L_Scene,R_Scene,L_Pts,R_Pts,Instructions_Loop.thisRepN,Instructions_Loop.thisTrialN,Instructions_Loop.thisN,Instructions_Loop.thisIndex,Redo_Instructions_Loop.thisRepN,Redo_Instructions_Loop.thisTrialN,Redo_Instructions_Loop.thisN,Redo_Instructions_Loop.thisIndex,Practice_Recognition_Loop.thisRepN,Practice_Recognition_Loop.thisTrialN,Practice_Recognition_Loop.thisN,Practice_Recognition_Loop.thisIndex,Practice_FB_Loop.thisRepN,Practice_FB_Loop.thisTrialN,Practice_FB_Loop.thisN,Practice_FB_Loop.thisIndex,RecStim_Loop.thisRepN,RecStim_Loop.thisTrialN,RecStim_Loop.thisN,RecStim_Loop.thisIndex,FB_Loop.thisRepN,FB_Loop.thisTrialN,FB_Loop.thisN,FB_Loop.thisIndex,RecBrk_Loop.thisRepN,RecBrk_Loop.thisTrialN,RecBrk_Loop.thisN,RecBrk_Loop.thisIndex,Transition_Enc.keys,Transition_Enc.rt,Encoding_Resp.keys,Encoding_Resp.rt,EncBrk_Resp.keys,EncBrk_Resp.rt,participant,date,expName,psychopyVersion,frameRate,
,,,,,,,,,,,,,,,,,,,,,,,,,,,,,,,,space,20.55370637588203,,,,,10,2024-08-02_09h40.33.208,EPIDM,2023.1.2,None,
F078.jpg,L130.jpg,,,,,,,,,,,0,0,0,0,,,,,,,,,,,,,,,,,,,l,1.4629636250901967,,,10,2024-08-02_09h40.33.208,EPIDM,2023.1.2,None,
P036.jpg,P217.jpg,,,,,,,,,,,0,1,1,1,,,,,,,,,,,,,,,,,,,k,13.180481709074229,,,10,2024-08-02_09h40.33.208,EPIDM,2023.1.2,None,
O161.jpg,F218.jpg,,,,,,,,,,,0,2,2,2,,,,,,,,,,,,,,,,,,,s,4.323629042133689,,,10,2024-08-02_09h40.33.208,EPIDM,2023.1.2,None,
F279.jpg,A001.jpg,,,,,,,,,,,0,3,3,3,,,,,,,,,,,,,,,,,,,l,4.292262834031135,,,10,2024-08-02_09h40.33.208,EPIDM,2023.1.2,None,
F273.jpg,A060.jpg,,,,,,,,,,,0,4,4,4,,,,,,,,,,,,,,,,,,,s,5.496460750233382,,,10,2024-08-02_09h40.33.208,EPIDM,2023.1.2,None,
2393.jpg,L055.jpg,,,,,,,,,,,0,5,5,5,,,,,,,,,,,,,,,,,,,s,3.0232047920580953,,,10,2024-08-02_09h40.33.208,EPIDM,2023.1.2,None,
1812.jpg,2593.jpg,,,,,,,,,,,0,6,6,6,,,,,,,,,,,,,,,,,,,l,2.070840291911736,,,10,2024-08-02_09h40.33.208,EPIDM,2023.1.2,None,
O013.jpg,A067.jpg,,,,,,,,,,,0,7,7,7,,,,,,,,,,,,,,,,,,,s,2.709053958998993,,,10,2024-08-02_09h40.33.208,EPIDM,2023.1.2,None,
P033.jpg,P034.jpg,,,,,,,,,,,0,8,8,8,,,,,,,,,,,,,,,,,,,s,3.8411955828778446,,,10,2024-08-02_09h40.33.208,EPIDM,2023.1.2,None,
A104.jpg,8186.jpg,,,,,,,,,,,0,9,9,9,,,,,,,,,,,,,,,,,,,k,4.850111624924466,,,10,2024-08-02_09h40.33.208,EPIDM,2023.1.2,None,
,,,,,,,,,,,,,,,,,,,,,,,,,,,,,,,,space,2.298598709050566,,,,,10,2024-08-02_09h40.33.208,EPIDM,2023.1.2,None,
8041.jpg,9405.jpg,2 Points,3 Points,,,,,,,,,,,,,,,,,0,0,0,0,,,,,,,,,,,s,3.9982383749447763,,,10,2024-08-02_09h40.33.208,EPIDM,2023.1.2,None,
2214.jpg,5532.jpg,3 Points,2 Points,,,,,,,,,,,,,,,,,0,1,1,1,,,,,,,,,,,s,2.5548972920514643,,,10,2024-08-02_09h40.33.208,EPIDM,2023.1.2,None,
9500.jpg,6834.jpg,1 Point,5 Points,,,,,,,,,,,,,,,,,0,2,2,2,,,,,,,,,,,k,3.4174434170126915,,,10,2024-08-02_09h40.33.208,EPIDM,2023.1.2,None,
9921.jpg,6370.jpg,1 Points,4 Points,,,,,,,,,,,,,,,,,0,3,3,3,,,,,,,,,,,s,3.1323146671056747,,,10,2024-08-02_09h40.33.208,EPIDM,2023.1.2,None,
5455.jpg,7570.jpg,0 Points,5 Points,,,,,,,,,,,,,,,,,0,4,4,4,,,,,,,,,,,s,2.731775082880631,,,10,2024-08-02_09h40.33.208,EPIDM,2023.1.2,None,
2890.jpg,2515.jpg,1 Points,4 Points,,,,,,,,,,,,,,,,,0,5,5,5,,,,,,,,,,,s,4.817737666890025,space,4.394530209247023,10,2024-08-02_09h40.33.208,EPIDM,2023.1.2,None,
9912.jpg,2750.jpg,5 Points,4 Points,,,,,,,,,,,,,,,,,0,6,6,6,,,,,,,,,,,k,3.4165011669974774,,,10,2024-08-02_09h40.33.208,EPIDM,2023.1.2,None,
7500.jpg,2751.jpg,2 Points,3 Points,,,,,,,,,,,,,,,,,0,7,7,7,,,,,,,,,,,k,2.329317708965391,,,10,2024-08-02_09h40.33.208,EPIDM,2023.1.2,None,
9250.jpg,6840.jpg,0 Points,1 Points,,,,,,,,,,,,,,,,,0,8,8,8,,,,,,,,,,,a,7.831494584213942,,,10,2024-08-02_09h40.33.208,EPIDM,2023.1.2,None,
9220.jpg,7560.jpg,1 Point,4 Points,,,,,,,,,,,,,,,,,0,9,9,9,,,,,,,,,,,s,4.457460000179708,,,10,2024-08-02_09h40.33.208,EPIDM,2023.1.2,None,
2518.jpg,8250.jpg,1 Point,4 Points,,,,,,,,,,,,,,,,,0,10,10,10,,,,,,,,,,,s,4.401485667098314,,,10,2024-08-02_09h40.33.208,EPIDM,2023.1.2,None,
1932.jpg,2053.jpg,1 Points,4 Points,,,,,,,,,,,,,,,,,0,11,11,11,,,,,,,,,,,k,2.309388125082478,,,10,2024-08-02_09h40.33.208,EPIDM,2023.1.2,None,
6000.jpg,5940.jpg,4 Points,0 Points,,,,,,,,,,,,,,,,,0,12,12,12,,,,,,,,,,,s,4.57987091713585,,,10,2024-08-02_09h40.33.208,EPIDM,2023.1.2,None,
9010.jpg,5450.jpg,0 Points,5 Points,,,,,,,,,,,,,,,,,0,13,13,13,,,,,,,,,,,k,1.7528244592249393,,,10,2024-08-02_09h40.33.208,EPIDM,2023.1.2,None,
1540.jpg,1560.jpg,1 Point,0 Points,,,,,,,,,,,,,,,,,0,14,14,14,,,,,,,,,,,s,3.4262047500815243,,,10,2024-08-02_09h40.33.208,EPIDM,2023.1.2,None,
7006.jpg,6821.jpg,3 Points,2 Points,,,,,,,,,,,,,,,,,0,15,15,15,,,,,,,,,,,k,2.023013584082946,,,10,2024-08-02_09h40.33.208,EPIDM,2023.1.2,None,
5030.jpg,4274.jpg,3 Points,2 Points,,,,,,,,,,,,,,,,,0,16,16,16,,,,,,,,,,,s,3.4157487091142684,,,10,2024-08-02_09h40.33.208,EPIDM,2023.1.2,None,
5622.jpg,7495.jpg,4 Points,1 Points,,,,,,,,,,,,,,,,,0,17,17,17,,,,,,,,,,,s,3.5072250419761986,,,10,2024-08-02_09h40.33.208,EPIDM,2023.1.2,None,
9340.jpg,1200.jpg,0 Points,4 Points,,,,,,,,,,,,,,,,,0,18,18,18,,,,,,,,,,,k,5.500981749966741,,,10,2024-08-02_09h40.33.208,EPIDM,2023.1.2,None,
7096.jpg,1040.jpg,5 Points,0 Points,,,,,,,,,,,,,,,,,0,19,19,19,,,,,,,,,,,k,2.904853834072128,,,10,2024-08-02_09h40.33.208,EPIDM,2023.1.2,None,
6940.jpg,6241.jpg,2 Points,3 Points,,,,,,,,,,,,,,,,,0,20,20,20,,,,,,,,,,,k,1.5720917501021177,,,10,2024-08-02_09h40.33.208,EPIDM,2023.1.2,None,
6230.jpg,6415.jpg,3 Points,2 Points,,,,,,,,,,,,,,,,,0,21,21,21,,,,,,,,,,,s,2.281508083920926,space,1.8673091251403093,10,2024-08-02_09h40.33.208,EPIDM,2023.1.2,None,
1740.jpg,4533.jpg,0 Points,3 Points,,,,,,,,,,,,,,,,,0,22,22,22,,,,,,,,,,,k,2.6397181251086295,,,10,2024-08-02_09h40.33.208,EPIDM,2023.1.2,None,
7183.jpg,9800.jpg,4 Points,1 Point,,,,,,,,,,,,,,,,,0,23,23,23,,,,,,,,,,,s,2.0874063330702484,,,10,2024-08-02_09h40.33.208,EPIDM,2023.1.2,None,
9210.jpg,9254.jpg,1 Point,2 Points,,,,,,,,,,,,,,,,,0,24,24,24,,,,,,,,,,,s,2.2708110420498997,,,10,2024-08-02_09h40.33.208,EPIDM,2023.1.2,None,
2850.jpg,7150.jpg,3 Points,2 Points,,,,,,,,,,,,,,,,,0,25,25,25,,,,,,,,,,,s,2.0357556252274662,,,10,2024-08-02_09h40.33.208,EPIDM,2023.1.2,None,
3022.jpg,9417.jpg,0 Points,1 Point,,,,,,,,,,,,,,,,,0,26,26,26,,,,,,,,,,,k,2.267566667171195,,,10,2024-08-02_09h40.33.208,EPIDM,2023.1.2,None,
3069.jpg,6314.jpg,3 Points,2 Points,,,,,,,,,,,,,,,,,0,27,27,27,,,,,,,,,,,k,3.2098425838630646,,,10,2024-08-02_09h40.33.208,EPIDM,2023.1.2,None,
8465.jpg,2590.jpg,1 Point,4 Points,,,,,,,,,,,,,,,,,0,28,28,28,,,,,,,,,,,s,3.5567276671063155,,,10,2024-08-02_09h40.33.208,EPIDM,2023.1.2,None,
8117.jpg,7281.jpg,5 Points,0 Points,,,,,,,,,,,,,,,,,0,29,29,29,,,,,,,,,,,k,2.1668718340806663,,,10,2024-08-02_09h40.33.208,EPIDM,2023.1.2,None,
8311.jpg,8161.jpg,2 Points,4 Points,,,,,,,,,,,,,,,,,0,30,30,30,,,,,,,,,,,s,2.2866700009908527,,,10,2024-08-02_09h40.33.208,EPIDM,2023.1.2,None,
7010.jpg,9040.jpg,2 Points,3 Points,,,,,,,,,,,,,,,,,0,31,31,31,,,,,,,,,,,k,3.512774500064552,,,10,2024-08-02_09h40.33.208,EPIDM,2023.1.2,None,
3300.jpg,3110.jpg,0 Points,4 Points,,,,,,,,,,,,,,,,,0,32,32,32,,,,,,,,,,,s,2.898986459011212,,,10,2024-08-02_09h40.33.208,EPIDM,2023.1.2,None,
6610.jpg,9911.jpg,0 Points,5 Points,,,,,,,,,,,,,,,,,0,33,33,33,,,,,,,,,,,k,4.291237417142838,,,10,2024-08-02_09h40.33.208,EPIDM,2023.1.2,None,
6243.jpg,3266.jpg,2 Points,1 Point,,,,,,,,,,,,,,,,,0,34,34,34,,,,,,,,,,,s,3.725978709058836,,,10,2024-08-02_09h40.33.208,EPIDM,2023.1.2,None,
7090.jpg,2690.jpg,4 Points,1 Point,,,,,,,,,,,,,,,,,0,35,35,35,,,,,,,,,,,k,3.273576417006552,,,10,2024-08-02_09h40.33.208,EPIDM,2023.1.2,None,
8232.jpg,2030.jpg,5 Points,0 Points,,,,,,,,,,,,,,,,,0,36,36,36,,,,,,,,,,,k,3.12792208394967,,,10,2024-08-02_09h40.33.208,EPIDM,2023.1.2,None,
9920.jpg,5950.jpg,5 Points,0 Points,,,,,,,,,,,,,,,,,0,37,37,37,,,,,,,,,,,k,1.1625014590099454,space,1.4831418339163065,10,2024-08-02_09h40.33.208,EPIDM,2023.1.2,None,
9101.jpg,1945.jpg,2 Points,4 Points,,,,,,,,,,,,,,,,,0,38,38,38,,,,,,,,,,,s,2.803397832904011,,,10,2024-08-02_09h40.33.208,EPIDM,2023.1.2,None,
5626.jpg,7234.jpg,2 Points,3 Points,,,,,,,,,,,,,,,,,0,39,39,39,,,,,,,,,,,s,3.7556028328835964,,,10,2024-08-02_09h40.33.208,EPIDM,2023.1.2,None,
9265.jpg,9041.jpg,0 Points,4 Points,,,,,,,,,,,,,,,,,0,40,40,40,,,,,,,,,,,s,2.0736437500454485,,,10,2024-08-02_09h40.33.208,EPIDM,2023.1.2,None,
6250.1.jpg,7705.jpg,0 Points,5 Points,,,,,,,,,,,,,,,,,0,41,41,41,,,,,,,,,,,k,3.7351854171138257,,,10,2024-08-02_09h40.33.208,EPIDM,2023.1.2,None,
4536.jpg,7170.jpg,4 Points,2 Points,,,,,,,,,,,,,,,,,0,42,42,42,,,,,,,,,,,a,2.1854225841816515,,,10,2024-08-02_09h40.33.208,EPIDM,2023.1.2,None,
7140.jpg,2702.jpg,0 Points,5 Points,,,,,,,,,,,,,,,,,0,43,43,43,,,,,,,,,,,k,5.910307292127982,,,10,2024-08-02_09h40.33.208,EPIDM,2023.1.2,None,
2661.jpg,2520.jpg,5 Points,2 Points,,,,,,,,,,,,,,,,,0,44,44,44,,,,,,,,,,,s,2.418712917016819,,,10,2024-08-02_09h40.33.208,EPIDM,2023.1.2,None,
8480.jpg,9830.jpg,1 Point,4 Points,,,,,,,,,,,,,,,,,0,45,45,45,,,,,,,,,,,s,2.704452876234427,,,10,2024-08-02_09h40.33.208,EPIDM,2023.1.2,None,
F149.jpg,6571.jpg,0 Points,2 Points,,,,,,,,,,,,,,,,,0,46,46,46,,,,,,,,,,,l,2.0995530830696225,,,10,2024-08-02_09h40.33.208,EPIDM,2023.1.2,None,
9621.jpg,6838.jpg,0 Points,5 Points,,,,,,,,,,,,,,,,,0,47,47,47,,,,,,,,,,,l,2.2430425421334803,,,10,2024-08-02_09h40.33.208,EPIDM,2023.1.2,None,
9401.jpg,9110.jpg,2 Points,1 Point,,,,,,,,,,,,,,,,,0,48,48,48,,,,,,,,,,,s,2.5588242919184268,,,10,2024-08-02_09h40.33.208,EPIDM,2023.1.2,None,
1022.jpg,7031.jpg,1 Point,4 Points,,,,,,,,,,,,,,,,,0,49,49,49,,,,,,,,,,,a,1.7838498749770224,,,10,2024-08-02_09h40.33.208,EPIDM,2023.1.2,None,
5480.jpg,2722.jpg,4 Points,1 Points,,,,,,,,,,,,,,,,,0,50,50,50,,,,,,,,,,,l,1.9460300002247095,,,10,2024-08-02_09h40.33.208,EPIDM,2023.1.2,None,
7025.jpg,9584.jpg,3 Points,2 Points,,,,,,,,,,,,,,,,,0,51,51,51,,,,,,,,,,,k,2.315250501036644,,,10,2024-08-02_09h40.33.208,EPIDM,2023.1.2,None,
1052.jpg,F365.jpg,3 Points,5 Points,,,,,,,,,,,,,,,,,0,52,52,52,,,,,,,,,,,a,2.092010292224586,,,10,2024-08-02_09h40.33.208,EPIDM,2023.1.2,None,
3350.jpg,7130.jpg,1 Point,4 Points,,,,,,,,,,,,,,,,,0,53,53,53,,,,,,,,,,,s,2.9096605840604752,space,1.648108292138204,10,2024-08-02_09h40.33.208,EPIDM,2023.1.2,None,
7195.jpg,2200.jpg,2 Points,1 Point,,,,,,,,,,,,,,,,,0,54,54,54,,,,,,,,,,,l,4.631026501068845,,,10,2024-08-02_09h40.33.208,EPIDM,2023.1.2,None,
7224.jpg,7920.jpg,2 Points,3 Points,,,,,,,,,,,,,,,,,0,55,55,55,,,,,,,,,,,k,1.7721001671161503,,,10,2024-08-02_09h40.33.208,EPIDM,2023.1.2,None,
F369.jpg,6260.jpg,2 Points,3 Points,,,,,,,,,,,,,,,,,0,56,56,56,,,,,,,,,,,k,4.763653667178005,,,10,2024-08-02_09h40.33.208,EPIDM,2023.1.2,None,
5000.jpg,1603.jpg,4 Points,1 Points,,,,,,,,,,,,,,,,,0,57,57,57,,,,,,,,,,,l,2.9408109169453382,,,10,2024-08-02_09h40.33.208,EPIDM,2023.1.2,None,
5982.jpg,1602.jpg,5 Points,1 Point,,,,,,,,,,,,,,,,,0,58,58,58,,,,,,,,,,,a,2.998390250140801,,,10,2024-08-02_09h40.33.208,EPIDM,2023.1.2,None,
5890.jpg,5990.jpg,2 Points,3 Points,,,,,,,,,,,,,,,,,0,59,59,59,,,,,,,,,,,s,3.4685264171566814,,,10,2024-08-02_09h40.33.208,EPIDM,2023.1.2,None,
P019.jpg,6550.jpg,3 Points,5 Points,,,,,,,,,,,,,,,,,0,60,60,60,,,,,,,,,,,l,2.305684542050585,,,10,2024-08-02_09h40.33.208,EPIDM,2023.1.2,None,
6350.jpg,1274.jpg,4 Points,1 Points,,,,,,,,,,,,,,,,,0,61,61,61,,,,,,,,,,,s,3.979660457931459,,,10,2024-08-02_09h40.33.208,EPIDM,2023.1.2,None,
3102.jpg,9594.jpg,1 Point,4 Points,,,,,,,,,,,,,,,,,0,62,62,62,,,,,,,,,,,a,2.703594666905701,,,10,2024-08-02_09h40.33.208,EPIDM,2023.1.2,None,
7233.jpg,5623.jpg,0 Points,5 Points,,,,,,,,,,,,,,,,,0,63,63,63,,,,,,,,,,,l,2.651631750166416,,,10,2024-08-02_09h40.33.208,EPIDM,2023.1.2,None,
7580.jpg,8340.jpg,3 Points,2 Points,,,,,,,,,,,,,,,,,0,64,64,64,,,,,,,,,,,s,2.5385671670082957,,,10,2024-08-02_09h40.33.208,EPIDM,2023.1.2,None,
5200.jpg,5820.jpg,0 Points,5 Points,,,,,,,,,,,,,,,,,0,65,65,65,,,,,,,,,,,a,6.70282862521708,,,10,2024-08-02_09h40.33.208,EPIDM,2023.1.2,None,
7160.jpg,2560.jpg,0 Points,4 Points,,,,,,,,,,,,,,,,,0,66,66,66,,,,,,,,,,,l,2.5773620009422302,,,10,2024-08-02_09h40.33.208,EPIDM,2023.1.2,None,
5593.jpg,5600.jpg,0 Points,5 Points,,,,,,,,,,,,,,,,,0,67,67,67,,,,,,,,,,,l,1.9767653760500252,,,10,2024-08-02_09h40.33.208,EPIDM,2023.1.2,None,
6831.jpg,9611.jpg,5 Points,3 Points,,,,,,,,,,,,,,,,,0,68,68,68,,,,,,,,,,,a,2.8837658339180052,,,10,2024-08-02_09h40.33.208,EPIDM,2023.1.2,None,
9190.jpg,7110.jpg,0 Points,5 Points,,,,,,,,,,,,,,,,,0,69,69,69,,,,,,,,,,,a,2.4432271260302514,space,2.340837834170088,10,2024-08-02_09h40.33.208,EPIDM,2023.1.2,None,
1113.jpg,6020.jpg,3 Points,2 Points,,,,,,,,,,,,,,,,,0,70,70,70,,,,,,,,,,,a,2.2731153750792146,,,10,2024-08-02_09h40.33.208,EPIDM,2023.1.2,None,
5900.jpg,7503.jpg,3 Points,2 Points,,,,,,,,,,,,,,,,,0,71,71,71,,,,,,,,,,,l,2.177388000069186,,,10,2024-08-02_09h40.33.208,EPIDM,2023.1.2,None,
8300.jpg,1910.jpg,3 Points,2 Points,,,,,,,,,,,,,,,,,0,72,72,72,,,,,,,,,,,l,1.4281699580606073,,,10,2024-08-02_09h40.33.208,EPIDM,2023.1.2,None,
7282.jpg,5849.jpg,3 Points,2 Points,,,,,,,,,,,,,,,,,0,73,73,73,,,,,,,,,,,a,1.7431346669327468,,,10,2024-08-02_09h40.33.208,EPIDM,2023.1.2,None,
2830.jpg,2681.jpg,5 Points,3 Points,,,,,,,,,,,,,,,,,0,74,74,74,,,,,,,,,,,a,1.2209084171336144,,,10,2024-08-02_09h40.33.208,EPIDM,2023.1.2,None,
5629.jpg,2597.jpg,0 Points,5 Points,,,,,,,,,,,,,,,,,0,75,75,75,,,,,,,,,,,l,2.9495407920330763,,,10,2024-08-02_09h40.33.208,EPIDM,2023.1.2,None,
3061.jpg,3015.jpg,4 Points,5 Points,,,,,,,,,,,,,,,,,0,76,76,76,,,,,,,,,,,l,1.3899325421079993,,,10,2024-08-02_09h40.33.208,EPIDM,2023.1.2,None,
2485.jpg,7286.jpg,0 Points,5 Points,,,,,,,,,,,,,,,,,0,77,77,77,,,,,,,,,,,l,1.0008919171523303,,,10,2024-08-02_09h40.33.208,EPIDM,2023.1.2,None,
4100.jpg,1510.jpg,3 Points,4 Points,,,,,,,,,,,,,,,,,0,78,78,78,,,,,,,,,,,a,1.3990393329877406,,,10,2024-08-02_09h40.33.208,EPIDM,2023.1.2,None,
7035.jpg,7002.jpg,1 Points,4 Points,,,,,,,,,,,,,,,,,0,79,79,79,,,,,,,,,,,a,3.2377351669128984,,,10,2024-08-02_09h40.33.208,EPIDM,2023.1.2,None,
8210.jpg,8460.jpg,3 Points,0 Points,,,,,,,,,,,,,,,,,0,80,80,80,,,,,,,,,,,l,2.9351566249970347,,,10,2024-08-02_09h40.33.208,EPIDM,2023.1.2,None,
4510.jpg,F252.jpg,5 Points,0 Points,,,,,,,,,,,,,,,,,0,81,81,81,,,,,,,,,,,l,1.2711779170203954,,,10,2024-08-02_09h40.33.208,EPIDM,2023.1.2,None,
7380.jpg,2692.jpg,1 Point,4 Points,,,,,,,,,,,,,,,,,0,82,82,82,,,,,,,,,,,l,1.9686110839247704,,,10,2024-08-02_09h40.33.208,EPIDM,2023.1.2,None,
5720.jpg,2383.jpg,3 Points,2 Points,,,,,,,,,,,,,,,,,0,83,83,83,,,,,,,,,,,l,0.9023224171251059,,,10,2024-08-02_09h40.33.208,EPIDM,2023.1.2,None,
3170.jpg,6570.1.jpg,2 Points,5 Points,,,,,,,,,,,,,,,,,0,84,84,84,,,,,,,,,,,l,1.0788429169915617,,,10,2024-08-02_09h40.33.208,EPIDM,2023.1.2,None,
1310.jpg,9913.jpg,4 Points,1 Points,,,,,,,,,,,,,,,,,0,85,85,85,,,,,,,,,,,l,0.3330602089408785,space,26.57811616710387,10,2024-08-02_09h40.33.208,EPIDM,2023.1.2,None,
5471.jpg,2240.jpg,2 Points,5 Points,,,,,,,,,,,,,,,,,0,86,86,86,,,,,,,,,,,l,0.8456963750068098,,,10,2024-08-02_09h40.33.208,EPIDM,2023.1.2,None,
2683.jpg,6010.jpg,3 Points,2 Points,,,,,,,,,,,,,,,,,0,87,87,87,,,,,,,,,,,l,0.6235997499898076,,,10,2024-08-02_09h40.33.208,EPIDM,2023.1.2,None,
2650.jpg,5621.jpg,5 Points,3 Points,,,,,,,,,,,,,,,,,0,88,88,88,,,,,,,,,,,a,1.6964714999776334,,,10,2024-08-02_09h40.33.208,EPIDM,2023.1.2,None,
7220.jpg,5831.jpg,2 Points,3 Points,,,,,,,,,,,,,,,,,0,89,89,89,,,,,,,,,,,l,2.8638010839931667,,,10,2024-08-02_09h40.33.208,EPIDM,2023.1.2,None,
9320.jpg,2900.jpg,0 Points,3 Points,,,,,,,,,,,,,,,,,0,90,90,90,,,,,,,,,,,l,1.405338834039867,,,10,2024-08-02_09h40.33.208,EPIDM,2023.1.2,None,
7034.jpg,9140.jpg,2 Points,3 Points,,,,,,,,,,,,,,,,,0,91,91,91,,,,,,,,,,,l,2.0228128330782056,,,10,2024-08-02_09h40.33.208,EPIDM,2023.1.2,None,
3500.jpg,6312.jpg,4 Points,2 Points,,,,,,,,,,,,,,,,,0,92,92,92,,,,,,,,,,,a,1.1790281261783093,,,10,2024-08-02_09h40.33.208,EPIDM,2023.1.2,None,
6561.jpg,7211.jpg,2 Points,3 Points,,,,,,,,,,,,,,,,,0,93,93,93,,,,,,,,,,,a,0.5988944170530885,,,10,2024-08-02_09h40.33.208,EPIDM,2023.1.2,None,
7190.jpg,5300.jpg,5 Points,1 Point,,,,,,,,,,,,,,,,,0,94,94,94,,,,,,,,,,,l,1.697203875053674,,,10,2024-08-02_09h40.33.208,EPIDM,2023.1.2,None,
2500.jpg,2630.jpg,5 Points,0 Points,,,,,,,,,,,,,,,,,0,95,95,95,,,,,,,,,,,l,1.2430712501518428,,,10,2024-08-02_09h40.33.208,EPIDM,2023.1.2,None,
9404.jpg,6830.jpg,5 Points,4 Points,,,,,,,,,,,,,,,,,0,96,96,96,,,,,,,,,,,l,0.35226170904934406,,,10,2024-08-02_09h40.33.208,EPIDM,2023.1.2,None,
5994.jpg,5700.jpg,0 Points,5 Points,,,,,,,,,,,,,,,,,0,97,97,97,,,,,,,,,,,l,0.06244183308444917,,,10,2024-08-02_09h40.33.208,EPIDM,2023.1.2,None,
2570.jpg,5120.jpg,3 Points,2 Points,,,,,,,,,,,,,,,,,0,98,98,98,,,,,,,,,,,a,0.017098458018153906,,,10,2024-08-02_09h40.33.208,EPIDM,2023.1.2,None,
7545.jpg,2389.jpg,5 Points,0 Points,,,,,,,,,,,,,,,,,0,99,99,99,,,,,,,,,,,l,0.6388755419757217,,,10,2024-08-02_09h40.33.208,EPIDM,2023.1.2,None,
2220.jpg,2210.jpg,5 Points,0 Points,,,,,,,,,,,,,,,,,0,100,100,100,,,,,,,,,,,l,0.6607272508554161,,,10,2024-08-02_09h40.33.208,EPIDM,2023.1.2,None,
9452.jpg,9700.jpg,4 Points,1 Points,,,,,,,,,,,,,,,,,0,101,101,101,,,,,,,,,,,a,1.6046403751242906,space,1.831209917087108,10,2024-08-02_09h40.33.208,EPIDM,2023.1.2,None,
1390.jpg,A025.jpg,2 Points,0 Points,,,,,,,,,,,,,,,,,0,102,102,102,,,,,,,,,,,a,2.1914412090554833,,,10,2024-08-02_09h40.33.208,EPIDM,2023.1.2,None,
7182.jpg,7620.jpg,4 Points,1 Point,,,,,,,,,,,,,,,,,0,103,103,103,,,,,,,,,,,l,1.2327832500450313,,,10,2024-08-02_09h40.33.208,EPIDM,2023.1.2,None,
4608.jpg,2514.jpg,1 Point,5 Points,,,,,,,,,,,,,,,,,0,104,104,104,,,,,,,,,,,l,2.8598128331359476,,,10,2024-08-02_09h40.33.208,EPIDM,2023.1.2,None,
2620.jpg,5470.jpg,0 Points,5 Points,,,,,,,,,,,,,,,,,0,105,105,105,,,,,,,,,,,l,2.2062870420049876,,,10,2024-08-02_09h40.33.208,EPIDM,2023.1.2,None,
6242.jpg,3530.jpg,4 Points,1 Point,,,,,,,,,,,,,,,,,0,106,106,106,,,,,,,,,,,a,0.9570458750240505,,,10,2024-08-02_09h40.33.208,EPIDM,2023.1.2,None,
5731.jpg,2606.jpg,4 Points,1 Point,,,,,,,,,,,,,,,,,0,107,107,107,,,,,,,,,,,l,0.7777763330377638,,,10,2024-08-02_09h40.33.208,EPIDM,2023.1.2,None,
1650.jpg,7237.jpg,1 Points,4 Points,,,,,,,,,,,,,,,,,0,108,108,108,,,,,,,,,,,l,0.912025999976322,,,10,2024-08-02_09h40.33.208,EPIDM,2023.1.2,None,
4770.jpg,5920.jpg,3 Points,2 Points,,,,,,,,,,,,,,,,,0,109,109,109,,,,,,,,,,,l,3.0626228749752045,,,10,2024-08-02_09h40.33.208,EPIDM,2023.1.2,None,
8220.jpg,4689.jpg,4 Points,5 Points,,,,,,,,,,,,,,,,,0,110,110,110,,,,,,,,,,,l,2.413538376102224,,,10,2024-08-02_09h40.33.208,EPIDM,2023.1.2,None,
7040.jpg,P077.jpg,4 Points,1 Point,,,,,,,,,,,,,,,,,0,111,111,111,,,,,,,,,,,l,1.4299199590459466,,,10,2024-08-02_09h40.33.208,EPIDM,2023.1.2,None,
6510.jpg,6190.jpg,2 Points,5 Points,,,,,,,,,,,,,,,,,0,112,112,112,,,,,,,,,,,l,0.9225865830667317,,,10,2024-08-02_09h40.33.208,EPIDM,2023.1.2,None,
P233.jpg,7217.jpg,1 Point,4 Points,,,,,,,,,,,,,,,,,0,113,113,113,,,,,,,,,,,l,2.5124923340044916,,,10,2024-08-02_09h40.33.208,EPIDM,2023.1.2,None,
3064.jpg,9070.jpg,4 Points,2 Points,,,,,,,,,,,,,,,,,0,114,114,114,,,,,,,,,,,a,1.5171919171698391,,,10,2024-08-02_09h40.33.208,EPIDM,2023.1.2,None,
7207.jpg,2320.jpg,1 Points,4 Points,,,,,,,,,,,,,,,,,0,115,115,115,,,,,,,,,,,l,0.8913244591094553,,,10,2024-08-02_09h40.33.208,EPIDM,2023.1.2,None,
5531.jpg,7283.jpg,3 Points,4 Points,,,,,,,,,,,,,,,,,0,116,116,116,,,,,,,,,,,l,0.853446459164843,,,10,2024-08-02_09h40.33.208,EPIDM,2023.1.2,None,
9300.jpg,7030.jpg,4 Points,1 Points,,,,,,,,,,,,,,,,,0,117,117,117,,,,,,,,,,,a,1.081824708962813,space,22.009157333057374,10,2024-08-02_09h40.33.208,EPIDM,2023.1.2,None,
1947.jpg,1811.jpg,5 Points,1 Point,,,,,,,,,,,,,,,,,0,118,118,118,,,,,,,,,,,l,1.0445767079945654,,,10,2024-08-02_09h40.33.208,EPIDM,2023.1.2,None,
7020.jpg,6150.jpg,5 Points,0 Points,,,,,,,,,,,,,,,,,0,119,119,119,,,,,,,,,,,l,0.46372237615287304,,,10,2024-08-02_09h40.33.208,EPIDM,2023.1.2,None,
9042.jpg,1090.jpg,0 Points,5 Points,,,,,,,,,,,,,,,,,0,120,120,120,,,,,,,,,,,l,0.75987808406353,,,10,2024-08-02_09h40.33.208,EPIDM,2023.1.2,None,
3160.jpg,7080.jpg,1 Point,4 Points,,,,,,,,,,,,,,,,,0,121,121,121,,,,,,,,,,,l,0.9394470420666039,,,10,2024-08-02_09h40.33.208,EPIDM,2023.1.2,None,
2110.jpg,8260.jpg,5 Points,3 Points,,,,,,,,,,,,,,,,,0,122,122,122,,,,,,,,,,,l,0.8933004580903798,,,10,2024-08-02_09h40.33.208,EPIDM,2023.1.2,None,
5740.jpg,2100.jpg,0 Points,5 Points,,,,,,,,,,,,,,,,,0,123,123,123,,,,,,,,,,,l,2.958678334020078,,,10,2024-08-02_09h40.33.208,EPIDM,2023.1.2,None,
1660.jpg,8040.jpg,2 Points,1 Point,,,,,,,,,,,,,,,,,0,124,124,124,,,,,,,,,,,a,1.770922876195982,,,10,2024-08-02_09h40.33.208,EPIDM,2023.1.2,None,
5410.jpg,5530.jpg,5 Points,0 Points,,,,,,,,,,,,,,,,,0,125,125,125,,,,,,,,,,,a,1.6976837920956314,,,10,2024-08-02_09h40.33.208,EPIDM,2023.1.2,None,
2276.jpg,1930.jpg,3 Points,1 Point,,,,,,,,,,,,,,,,,0,126,126,126,,,,,,,,,,,l,1.7110968751367182,,,10,2024-08-02_09h40.33.208,EPIDM,2023.1.2,None,
5628.jpg,5660.jpg,5 Points,0 Points,,,,,,,,,,,,,,,,,0,127,127,127,,,,,,,,,,,l,1.425090542063117,,,10,2024-08-02_09h40.33.208,EPIDM,2023.1.2,None,
4250.jpg,7830.jpg,5 Points,3 Points,,,,,,,,,,,,,,,,,0,128,128,128,,,,,,,,,,,a,1.1256270839367062,,,10,2024-08-02_09h40.33.208,EPIDM,2023.1.2,None,
2215.jpg,7050.jpg,1 Point,4 Points,,,,,,,,,,,,,,,,,0,129,129,129,,,,,,,,,,,l,1.3909551668912172,,,10,2024-08-02_09h40.33.208,EPIDM,2023.1.2,None,
4621.jpg,3280.jpg,2 Points,0 Points,,,,,,,,,,,,,,,,,0,130,130,130,,,,,,,,,,,a,1.4414052499923855,,,10,2024-08-02_09h40.33.208,EPIDM,2023.1.2,None,
5910.jpg,5460.jpg,5 Points,0 Points,,,,,,,,,,,,,,,,,0,131,131,131,,,,,,,,,,,a,1.3514632501173764,,,10,2024-08-02_09h40.33.208,EPIDM,2023.1.2,None,
9592.jpg,3000.jpg,2 Points,5 Points,,,,,,,,,,,,,,,,,0,132,132,132,,,,,,,,,,,l,1.7212235839106143,,,10,2024-08-02_09h40.33.208,EPIDM,2023.1.2,None,
7285.jpg,5875.jpg,5 Points,0 Points,,,,,,,,,,,,,,,,,0,133,133,133,,,,,,,,,,,a,1.5826478751841933,space,17.534856708021834,10,2024-08-02_09h40.33.208,EPIDM,2023.1.2,None,
2221.jpg,1303.jpg,2 Points,0 Points,,,,,,,,,,,,,,,,,0,134,134,134,,,,,,,,,,,l,1.008828334044665,,,10,2024-08-02_09h40.33.208,EPIDM,2023.1.2,None,
9600.jpg,2691.jpg,5 Points,0 Points,,,,,,,,,,,,,,,,,0,135,135,135,,,,,,,,,,,l,0.8879935001023114,,,10,2024-08-02_09h40.33.208,EPIDM,2023.1.2,None,
1810.jpg,2616.jpg,3 Points,4 Points,,,,,,,,,,,,,,,,,0,136,136,136,,,,,,,,,,,l,0.9544758342672139,,,10,2024-08-02_09h40.33.208,EPIDM,2023.1.2,None,
9180.jpg,9630.jpg,3 Points,2 Points,,,,,,,,,,,,,,,,,0,137,137,137,,,,,,,,,,,l,1.032822708133608,,,10,2024-08-02_09h40.33.208,EPIDM,2023.1.2,None,
9560.jpg,2700.jpg,1 Point,3 Points,,,,,,,,,,,,,,,,,0,138,138,138,,,,,,,,,,,l,0.5090424590744078,,,10,2024-08-02_09h40.33.208,EPIDM,2023.1.2,None,
7000.jpg,1661.jpg,2 Points,3 Points,,,,,,,,,,,,,,,,,0,139,139,139,,,,,,,,,,,a,0.9178749590646476,,,10,2024-08-02_09h40.33.208,EPIDM,2023.1.2,None,
9331.jpg,1275.jpg,2 Points,1 Point,,,,,,,,,,,,,,,,,0,140,140,140,,,,,,,,,,,l,1.2697158751543611,,,10,2024-08-02_09h40.33.208,EPIDM,2023.1.2,None,
9400.jpg,9810.jpg,3 Points,2 Points,,,,,,,,,,,,,,,,,0,141,141,141,,,,,,,,,,,l,3.0173036670312285,,,10,2024-08-02_09h40.33.208,EPIDM,2023.1.2,None,
8033.jpg,7289.jpg,3 Points,0 Points,,,,,,,,,,,,,,,,,0,142,142,142,,,,,,,,,,,l,1.2408389169722795,,,10,2024-08-02_09h40.33.208,EPIDM,2023.1.2,None,
7502.jpg,9230.jpg,5 Points,0 Points,,,,,,,,,,,,,,,,,0,143,143,143,,,,,,,,,,,a,0.9791840000543743,,,10,2024-08-02_09h40.33.208,EPIDM,2023.1.2,None,
7175.jpg,8021.jpg,2 Points,4 Points,,,,,,,,,,,,,,,,,0,144,144,144,,,,,,,,,,,a,1.0882965829223394,,,10,2024-08-02_09h40.33.208,EPIDM,2023.1.2,None,
9390.jpg,9424.jpg,1 Point,4 Points,,,,,,,,,,,,,,,,,0,145,145,145,,,,,,,,,,,l,1.8336086261551827,,,10,2024-08-02_09h40.33.208,EPIDM,2023.1.2,None,
2682.jpg,2710.jpg,5 Points,1 Point,,,,,,,,,,,,,,,,,0,146,146,146,,,,,,,,,,,a,1.2199797499924898,,,10,2024-08-02_09h40.33.208,EPIDM,2023.1.2,None,
7235.jpg,7186.jpg,3 Points,2 Points,,,,,,,,,,,,,,,,,0,147,147,147,,,,,,,,,,,a,2.9753581669647247,,,10,2024-08-02_09h40.33.208,EPIDM,2023.1.2,None,
7351.jpg,7187.jpg,4 Points,1 Point,,,,,,,,,,,,,,,,,0,148,148,148,,,,,,,,,,,a,3.128174667013809,,,10,2024-08-02_09h40.33.208,EPIDM,2023.1.2,None,
9620.jpg,1230.jpg,1 Point,4 Points,,,,,,,,,,,,,,,,,0,149,149,149,,,,,,,,,,,a,0.8783965001348406,space,2.4473696670029312,10,2024-08-02_09h40.33.208,EPIDM,2023.1.2,None,
9373.jpg,9402.jpg,0 Points,2 Points,,,,,,,,,,,,,,,,,0,150,150,150,,,,,,,,,,,l,2.5024879169650376,,,10,2024-08-02_09h40.33.208,EPIDM,2023.1.2,None,
2716.jpg,3250.jpg,2 Points,3 Points,,,,,,,,,,,,,,,,,0,151,151,151,,,,,,,,,,,a,1.3730547919403762,,,10,2024-08-02_09h40.33.208,EPIDM,2023.1.2,None,
1301.jpg,3220.jpg,2 Points,5 Points,,,,,,,,,,,,,,,,,0,152,152,152,,,,,,,,,,,l,2.721827584085986,,,10,2024-08-02_09h40.33.208,EPIDM,2023.1.2,None,
2205.jpg,7550.jpg,4 Points,1 Points,,,,,,,,,,,,,,,,,0,153,153,153,,,,,,,,,,,a,0.7115989171434194,,,10,2024-08-02_09h40.33.208,EPIDM,2023.1.2,None,
4613.jpg,1610.jpg,4 Points,0 Points,,,,,,,,,,,,,,,,,0,154,154,154,,,,,,,,,,,a,1.3498354170005769,,,10,2024-08-02_09h40.33.208,EPIDM,2023.1.2,None,
5991.jpg,5594.jpg,0 Points,5 Points,,,,,,,,,,,,,,,,,0,155,155,155,,,,,,,,,,,l,1.2100067920982838,,,10,2024-08-02_09h40.33.208,EPIDM,2023.1.2,None,
9430.jpg,9520.jpg,5 Points,3 Points,,,,,,,,,,,,,,,,,0,156,156,156,,,,,,,,,,,l,1.5607985840179026,,,10,2024-08-02_09h40.33.208,EPIDM,2023.1.2,None,
8531.jpg,7095.jpg,4 Points,1 Points,,,,,,,,,,,,,,,,,0,157,157,157,,,,,,,,,,,a,1.6529200011864305,,,10,2024-08-02_09h40.33.208,EPIDM,2023.1.2,None,
2516.jpg,1121.jpg,4 Points,0 Points,,,,,,,,,,,,,,,,,0,158,158,158,,,,,,,,,,,a,2.2045667921192944,,,10,2024-08-02_09h40.33.208,EPIDM,2023.1.2,None,
7004.jpg,1019.jpg,5 Points,0 Points,,,,,,,,,,,,,,,,,0,159,159,159,,,,,,,,,,,l,4.163975708186626,,,10,2024-08-02_09h40.33.208,EPIDM,2023.1.2,None,
