L_Scene,R_Scene,L_Pts,R_Pts,Instructions_Loop.thisRepN,Instructions_Loop.thisTrialN,Instructions_Loop.thisN,Instructions_Loop.thisIndex,Redo_Instructions_Loop.thisRepN,Redo_Instructions_Loop.thisTrialN,Redo_Instructions_Loop.thisN,Redo_Instructions_Loop.thisIndex,Practice_Recognition_Loop.thisRepN,Practice_Recognition_Loop.thisTrialN,Practice_Recognition_Loop.thisN,Practice_Recognition_Loop.thisIndex,Practice_FB_Loop.thisRepN,Practice_FB_Loop.thisTrialN,Practice_FB_Loop.thisN,Practice_FB_Loop.thisIndex,RecStim_Loop.thisRepN,RecStim_Loop.thisTrialN,RecStim_Loop.thisN,RecStim_Loop.thisIndex,FB_Loop.thisRepN,FB_Loop.thisTrialN,FB_Loop.thisN,FB_Loop.thisIndex,RecBrk_Loop.thisRepN,RecBrk_Loop.thisTrialN,RecBrk_Loop.thisN,RecBrk_Loop.thisIndex,Transition_Enc.keys,Transition_Enc.rt,Encoding_Resp.keys,Encoding_Resp.rt,EncBrk_Resp.keys,EncBrk_Resp.rt,participant,date,expName,psychopyVersion,frameRate,
,,,,,,,,,,,,,,,,,,,,,,,,,,,,,,,,space,14.039651167113334,,,,,12,2024-08-02_11h41.27.688,EPIDM,2023.1.2,59.75943844801027,
F078.jpg,L130.jpg,,,,,,,,,,,0,0,0,0,,,,,,,,,,,,,,,,,,,l,2.397198709193617,,,12,2024-08-02_11h41.27.688,EPIDM,2023.1.2,59.75943844801027,
P036.jpg,P217.jpg,,,,,,,,,,,0,1,1,1,,,,,,,,,,,,,,,,,,,a,6.043574251234531,,,12,2024-08-02_11h41.27.688,EPIDM,2023.1.2,59.75943844801027,
O161.jpg,F218.jpg,,,,,,,,,,,0,2,2,2,,,,,,,,,,,,,,,,,,,a,2.7541893750894815,,,12,2024-08-02_11h41.27.688,EPIDM,2023.1.2,59.75943844801027,
F279.jpg,A001.jpg,,,,,,,,,,,0,3,3,3,,,,,,,,,,,,,,,,,,,k,1.6846756250597537,,,12,2024-08-02_11h41.27.688,EPIDM,2023.1.2,59.75943844801027,
F273.jpg,A060.jpg,,,,,,,,,,,0,4,4,4,,,,,,,,,,,,,,,,,,,a,3.049831084208563,,,12,2024-08-02_11h41.27.688,EPIDM,2023.1.2,59.75943844801027,
2393.jpg,L055.jpg,,,,,,,,,,,0,5,5,5,,,,,,,,,,,,,,,,,,,s,3.054428708041087,,,12,2024-08-02_11h41.27.688,EPIDM,2023.1.2,59.75943844801027,
1812.jpg,2593.jpg,,,,,,,,,,,0,6,6,6,,,,,,,,,,,,,,,,,,,k,6.669193834066391,,,12,2024-08-02_11h41.27.688,EPIDM,2023.1.2,59.75943844801027,
O013.jpg,A067.jpg,,,,,,,,,,,0,7,7,7,,,,,,,,,,,,,,,,,,,a,4.470851083286107,,,12,2024-08-02_11h41.27.688,EPIDM,2023.1.2,59.75943844801027,
P033.jpg,P034.jpg,,,,,,,,,,,0,8,8,8,,,,,,,,,,,,,,,,,,,d,6.137833167100325,,,12,2024-08-02_11h41.27.688,EPIDM,2023.1.2,59.75943844801027,
A104.jpg,8186.jpg,,,,,,,,,,,0,9,9,9,,,,,,,,,,,,,,,,,,,j,3.228727666893974,,,12,2024-08-02_11h41.27.688,EPIDM,2023.1.2,59.75943844801027,
,,,,,,,,,,,,,,,,,,,,,,,,,,,,,,,,space,4.067904042080045,,,,,12,2024-08-02_11h41.27.688,EPIDM,2023.1.2,59.75943844801027,
2271.jpg,6250.2.jpg,2 Points,3 Points,,,,,,,,,,,,,,,,,0,0,0,0,,,,,,,,,,,k,2.7311048342380673,,,12,2024-08-02_11h41.27.688,EPIDM,2023.1.2,59.75943844801027,
2214.jpg,5532.jpg,3 Points,2 Points,,,,,,,,,,,,,,,,,0,1,1,1,,,,,,,,,,,a,3.7361030420288444,,,12,2024-08-02_11h41.27.688,EPIDM,2023.1.2,59.75943844801027,
9500.jpg,6834.jpg,1 Point,5 Points,,,,,,,,,,,,,,,,,0,2,2,2,,,,,,,,,,,k,2.3350610001944005,,,12,2024-08-02_11h41.27.688,EPIDM,2023.1.2,59.75943844801027,
9921.jpg,1270.jpg,1 Points,4 Points,,,,,,,,,,,,,,,,,0,3,3,3,,,,,,,,,,,k,2.228603167226538,,,12,2024-08-02_11h41.27.688,EPIDM,2023.1.2,59.75943844801027,
5455.jpg,7570.jpg,0 Points,5 Points,,,,,,,,,,,,,,,,,0,4,4,4,,,,,,,,,,,s,3.2726605830248445,,,12,2024-08-02_11h41.27.688,EPIDM,2023.1.2,59.75943844801027,
1942.jpg,2515.jpg,1 Points,4 Points,,,,,,,,,,,,,,,,,0,5,5,5,,,,,,,,,,,s,2.454155792016536,space,3.4811197090893984,12,2024-08-02_11h41.27.688,EPIDM,2023.1.2,59.75943844801027,
9912.jpg,9050.jpg,5 Points,4 Points,,,,,,,,,,,,,,,,,0,6,6,6,,,,,,,,,,,k,3.270509001100436,,,12,2024-08-02_11h41.27.688,EPIDM,2023.1.2,59.75943844801027,
7500.jpg,6313.jpg,2 Points,3 Points,,,,,,,,,,,,,,,,,0,7,7,7,,,,,,,,,,,l,3.5765840839594603,,,12,2024-08-02_11h41.27.688,EPIDM,2023.1.2,59.75943844801027,
9250.jpg,3080.jpg,0 Points,1 Points,,,,,,,,,,,,,,,,,0,8,8,8,,,,,,,,,,,l,3.1572864172048867,,,12,2024-08-02_11h41.27.688,EPIDM,2023.1.2,59.75943844801027,
9530.jpg,7560.jpg,1 Point,4 Points,,,,,,,,,,,,,,,,,0,9,9,9,,,,,,,,,,,d,2.5454189169686288,,,12,2024-08-02_11h41.27.688,EPIDM,2023.1.2,59.75943844801027,
2518.jpg,1313.jpg,1 Point,4 Points,,,,,,,,,,,,,,,,,0,10,10,10,,,,,,,,,,,s,4.307881251210347,,,12,2024-08-02_11h41.27.688,EPIDM,2023.1.2,59.75943844801027,
1932.jpg,2053.jpg,1 Points,4 Points,,,,,,,,,,,,,,,,,0,11,11,11,,,,,,,,,,,k,2.5583472091238946,,,12,2024-08-02_11h41.27.688,EPIDM,2023.1.2,59.75943844801027,
6000.jpg,5940.jpg,4 Points,0 Points,,,,,,,,,,,,,,,,,0,12,12,12,,,,,,,,,,,j,3.6026239581406116,,,12,2024-08-02_11h41.27.688,EPIDM,2023.1.2,59.75943844801027,
9010.jpg,5450.jpg,0 Points,5 Points,,,,,,,,,,,,,,,,,0,13,13,13,,,,,,,,,,,s,3.9173422080930322,,,12,2024-08-02_11h41.27.688,EPIDM,2023.1.2,59.75943844801027,
1540.jpg,1560.jpg,1 Point,0 Points,,,,,,,,,,,,,,,,,0,14,14,14,,,,,,,,,,,d,3.434758709045127,,,12,2024-08-02_11h41.27.688,EPIDM,2023.1.2,59.75943844801027,
7006.jpg,9622.jpg,3 Points,2 Points,,,,,,,,,,,,,,,,,0,15,15,15,,,,,,,,,,,l,1.5096595829818398,,,12,2024-08-02_11h41.27.688,EPIDM,2023.1.2,59.75943844801027,
1670.jpg,8160.jpg,3 Points,2 Points,,,,,,,,,,,,,,,,,0,16,16,16,,,,,,,,,,,s,3.9399293751921505,,,12,2024-08-02_11h41.27.688,EPIDM,2023.1.2,59.75943844801027,
9156.jpg,7495.jpg,4 Points,1 Points,,,,,,,,,,,,,,,,,0,17,17,17,,,,,,,,,,,a,4.281358625274152,,,12,2024-08-02_11h41.27.688,EPIDM,2023.1.2,59.75943844801027,
9340.jpg,9160.jpg,0 Points,4 Points,,,,,,,,,,,,,,,,,0,18,18,18,,,,,,,,,,,k,2.5670443759299815,,,12,2024-08-02_11h41.27.688,EPIDM,2023.1.2,59.75943844801027,
7096.jpg,1111.jpg,5 Points,0 Points,,,,,,,,,,,,,,,,,0,19,19,19,,,,,,,,,,,k,2.4693790420424193,,,12,2024-08-02_11h41.27.688,EPIDM,2023.1.2,59.75943844801027,
9910.jpg,9561.jpg,2 Points,3 Points,,,,,,,,,,,,,,,,,0,20,20,20,,,,,,,,,,,d,2.28110737609677,,,12,2024-08-02_11h41.27.688,EPIDM,2023.1.2,59.75943844801027,
6230.jpg,6415.jpg,3 Points,2 Points,,,,,,,,,,,,,,,,,0,21,21,21,,,,,,,,,,,k,2.3973130842205137,space,1.4562431669328362,12,2024-08-02_11h41.27.688,EPIDM,2023.1.2,59.75943844801027,
1740.jpg,2385.jpg,0 Points,3 Points,,,,,,,,,,,,,,,,,0,22,22,22,,,,,,,,,,,j,3.3422797091770917,,,12,2024-08-02_11h41.27.688,EPIDM,2023.1.2,59.75943844801027,
7183.jpg,9433.jpg,4 Points,1 Point,,,,,,,,,,,,,,,,,0,23,23,23,,,,,,,,,,,l,2.3890438328962773,,,12,2024-08-02_11h41.27.688,EPIDM,2023.1.2,59.75943844801027,
9490.jpg,9254.jpg,1 Point,2 Points,,,,,,,,,,,,,,,,,0,24,24,24,,,,,,,,,,,l,2.7807334582321346,,,12,2024-08-02_11h41.27.688,EPIDM,2023.1.2,59.75943844801027,
2850.jpg,7150.jpg,3 Points,2 Points,,,,,,,,,,,,,,,,,0,25,25,25,,,,,,,,,,,j,4.496966250007972,,,12,2024-08-02_11h41.27.688,EPIDM,2023.1.2,59.75943844801027,
2352.2.jpg,6530.jpg,0 Points,1 Point,,,,,,,,,,,,,,,,,0,26,26,26,,,,,,,,,,,k,4.192777876276523,,,12,2024-08-02_11h41.27.688,EPIDM,2023.1.2,59.75943844801027,
3069.jpg,O022.jpg,3 Points,2 Points,,,,,,,,,,,,,,,,,0,27,27,27,,,,,,,,,,,s,3.7256822921335697,,,12,2024-08-02_11h41.27.688,EPIDM,2023.1.2,59.75943844801027,
8400.jpg,2490.jpg,1 Point,4 Points,,,,,,,,,,,,,,,,,0,28,28,28,,,,,,,,,,,l,2.2562915002927184,,,12,2024-08-02_11h41.27.688,EPIDM,2023.1.2,59.75943844801027,
2880.jpg,7281.jpg,5 Points,0 Points,,,,,,,,,,,,,,,,,0,29,29,29,,,,,,,,,,,s,3.8399137500673532,,,12,2024-08-02_11h41.27.688,EPIDM,2023.1.2,59.75943844801027,
8311.jpg,8161.jpg,2 Points,4 Points,,,,,,,,,,,,,,,,,0,30,30,30,,,,,,,,,,,j,4.148243542062119,,,12,2024-08-02_11h41.27.688,EPIDM,2023.1.2,59.75943844801027,
7010.jpg,9040.jpg,2 Points,3 Points,,,,,,,,,,,,,,,,,0,31,31,31,,,,,,,,,,,k,3.274914584122598,,,12,2024-08-02_11h41.27.688,EPIDM,2023.1.2,59.75943844801027,
5970.jpg,3110.jpg,0 Points,4 Points,,,,,,,,,,,,,,,,,0,32,32,32,,,,,,,,,,,l,2.2897508330643177,,,12,2024-08-02_11h41.27.688,EPIDM,2023.1.2,59.75943844801027,
9570.jpg,9911.jpg,0 Points,5 Points,,,,,,,,,,,,,,,,,0,33,33,33,,,,,,,,,,,k,2.145682126050815,,,12,2024-08-02_11h41.27.688,EPIDM,2023.1.2,59.75943844801027,
6243.jpg,3266.jpg,2 Points,1 Point,,,,,,,,,,,,,,,,,0,34,34,34,,,,,,,,,,,s,3.172013584058732,,,12,2024-08-02_11h41.27.688,EPIDM,2023.1.2,59.75943844801027,
7090.jpg,2690.jpg,4 Points,1 Point,,,,,,,,,,,,,,,,,0,35,35,35,,,,,,,,,,,d,3.328926334157586,,,12,2024-08-02_11h41.27.688,EPIDM,2023.1.2,59.75943844801027,
8232.jpg,2495.jpg,5 Points,0 Points,,,,,,,,,,,,,,,,,0,36,36,36,,,,,,,,,,,k,3.240124292206019,,,12,2024-08-02_11h41.27.688,EPIDM,2023.1.2,59.75943844801027,
9920.jpg,5950.jpg,5 Points,0 Points,,,,,,,,,,,,,,,,,0,37,37,37,,,,,,,,,,,s,1.9610991671215743,space,6.13410658412613,12,2024-08-02_11h41.27.688,EPIDM,2023.1.2,59.75943844801027,
9571.jpg,1945.jpg,2 Points,4 Points,,,,,,,,,,,,,,,,,0,38,38,38,,,,,,,,,,,k,2.989671624964103,,,12,2024-08-02_11h41.27.688,EPIDM,2023.1.2,59.75943844801027,
5626.jpg,7234.jpg,2 Points,3 Points,,,,,,,,,,,,,,,,,0,39,39,39,,,,,,,,,,,k,2.9514790002722293,,,12,2024-08-02_11h41.27.688,EPIDM,2023.1.2,59.75943844801027,
6244.jpg,9041.jpg,0 Points,4 Points,,,,,,,,,,,,,,,,,0,40,40,40,,,,,,,,,,,l,2.699846750125289,,,12,2024-08-02_11h41.27.688,EPIDM,2023.1.2,59.75943844801027,
3301.jpg,7705.jpg,0 Points,5 Points,,,,,,,,,,,,,,,,,0,41,41,41,,,,,,,,,,,s,4.578521084040403,,,12,2024-08-02_11h41.27.688,EPIDM,2023.1.2,59.75943844801027,
2280.jpg,7170.jpg,4 Points,2 Points,,,,,,,,,,,,,,,,,0,42,42,42,,,,,,,,,,,s,2.9414445001166314,,,12,2024-08-02_11h41.27.688,EPIDM,2023.1.2,59.75943844801027,
7140.jpg,1590.jpg,0 Points,5 Points,,,,,,,,,,,,,,,,,0,43,43,43,,,,,,,,,,,l,1.0601243341807276,,,12,2024-08-02_11h41.27.688,EPIDM,2023.1.2,59.75943844801027,
2870.jpg,2520.jpg,5 Points,2 Points,,,,,,,,,,,,,,,,,0,44,44,44,,,,,,,,,,,k,3.830311458092183,,,12,2024-08-02_11h41.27.688,EPIDM,2023.1.2,59.75943844801027,
6410.jpg,9830.jpg,1 Point,4 Points,,,,,,,,,,,,,,,,,0,45,45,45,,,,,,,,,,,s,2.136948708910495,,,12,2024-08-02_11h41.27.688,EPIDM,2023.1.2,59.75943844801027,
F149.jpg,P237.jpg,0 Points,2 Points,,,,,,,,,,,,,,,,,0,46,46,46,,,,,,,,,,,a,3.316425916971639,,,12,2024-08-02_11h41.27.688,EPIDM,2023.1.2,59.75943844801027,
9621.jpg,5972.jpg,0 Points,5 Points,,,,,,,,,,,,,,,,,0,47,47,47,,,,,,,,,,,k,1.7560667919460684,,,12,2024-08-02_11h41.27.688,EPIDM,2023.1.2,59.75943844801027,
9401.jpg,9110.jpg,2 Points,1 Point,,,,,,,,,,,,,,,,,0,48,48,48,,,,,,,,,,,l,3.6757155840750784,,,12,2024-08-02_11h41.27.688,EPIDM,2023.1.2,59.75943844801027,
1022.jpg,7031.jpg,1 Point,4 Points,,,,,,,,,,,,,,,,,0,49,49,49,,,,,,,,,,,d,2.312477166997269,,,12,2024-08-02_11h41.27.688,EPIDM,2023.1.2,59.75943844801027,
5480.jpg,2722.jpg,4 Points,1 Points,,,,,,,,,,,,,,,,,0,50,50,50,,,,,,,,,,,k,3.332324624992907,,,12,2024-08-02_11h41.27.688,EPIDM,2023.1.2,59.75943844801027,
7025.jpg,3400.jpg,3 Points,2 Points,,,,,,,,,,,,,,,,,0,51,51,51,,,,,,,,,,,k,1.6055485010147095,,,12,2024-08-02_11h41.27.688,EPIDM,2023.1.2,59.75943844801027,
1201.jpg,F365.jpg,3 Points,5 Points,,,,,,,,,,,,,,,,,0,52,52,52,,,,,,,,,,,l,1.0285264169797301,,,12,2024-08-02_11h41.27.688,EPIDM,2023.1.2,59.75943844801027,
3210.jpg,7130.jpg,1 Point,4 Points,,,,,,,,,,,,,,,,,0,53,53,53,,,,,,,,,,,s,4.36032145912759,space,2.3292853753082454,12,2024-08-02_11h41.27.688,EPIDM,2023.1.2,59.75943844801027,
7195.jpg,4598.jpg,2 Points,1 Point,,,,,,,,,,,,,,,,,0,54,54,54,,,,,,,,,,,a,2.9909307511989027,,,12,2024-08-02_11h41.27.688,EPIDM,2023.1.2,59.75943844801027,
7224.jpg,7920.jpg,2 Points,3 Points,,,,,,,,,,,,,,,,,0,55,55,55,,,,,,,,,,,k,1.9851388749666512,,,12,2024-08-02_11h41.27.688,EPIDM,2023.1.2,59.75943844801027,
F369.jpg,3062.jpg,2 Points,3 Points,,,,,,,,,,,,,,,,,0,56,56,56,,,,,,,,,,,j,2.862601667176932,,,12,2024-08-02_11h41.27.688,EPIDM,2023.1.2,59.75943844801027,
8180.jpg,1603.jpg,4 Points,1 Points,,,,,,,,,,,,,,,,,0,57,57,57,,,,,,,,,,,s,2.323262375080958,,,12,2024-08-02_11h41.27.688,EPIDM,2023.1.2,59.75943844801027,
5260.jpg,1602.jpg,5 Points,1 Point,,,,,,,,,,,,,,,,,0,58,58,58,,,,,,,,,,,k,4.557970458175987,,,12,2024-08-02_11h41.27.688,EPIDM,2023.1.2,59.75943844801027,
5890.jpg,5990.jpg,2 Points,3 Points,,,,,,,,,,,,,,,,,0,59,59,59,,,,,,,,,,,k,2.354192375205457,,,12,2024-08-02_11h41.27.688,EPIDM,2023.1.2,59.75943844801027,
F158.jpg,9582.jpg,3 Points,5 Points,,,,,,,,,,,,,,,,,0,60,60,60,,,,,,,,,,,k,2.5031845839694142,,,12,2024-08-02_11h41.27.688,EPIDM,2023.1.2,59.75943844801027,
6350.jpg,1274.jpg,4 Points,1 Points,,,,,,,,,,,,,,,,,0,61,61,61,,,,,,,,,,,d,3.176678000949323,,,12,2024-08-02_11h41.27.688,EPIDM,2023.1.2,59.75943844801027,
3102.jpg,9594.jpg,1 Point,4 Points,,,,,,,,,,,,,,,,,0,62,62,62,,,,,,,,,,,l,2.1098685420583934,,,12,2024-08-02_11h41.27.688,EPIDM,2023.1.2,59.75943844801027,
7233.jpg,1850.jpg,0 Points,5 Points,,,,,,,,,,,,,,,,,0,63,63,63,,,,,,,,,,,l,1.0944294170476496,,,12,2024-08-02_11h41.27.688,EPIDM,2023.1.2,59.75943844801027,
9090.jpg,7546.jpg,3 Points,2 Points,,,,,,,,,,,,,,,,,0,64,64,64,,,,,,,,,,,j,2.976966541958973,,,12,2024-08-02_11h41.27.688,EPIDM,2023.1.2,59.75943844801027,
5200.jpg,5820.jpg,0 Points,5 Points,,,,,,,,,,,,,,,,,0,65,65,65,,,,,,,,,,,j,3.0914237501565367,,,12,2024-08-02_11h41.27.688,EPIDM,2023.1.2,59.75943844801027,
7160.jpg,5270.jpg,0 Points,4 Points,,,,,,,,,,,,,,,,,0,66,66,66,,,,,,,,,,,d,3.0633942089043558,,,12,2024-08-02_11h41.27.688,EPIDM,2023.1.2,59.75943844801027,
5593.jpg,9080.jpg,0 Points,5 Points,,,,,,,,,,,,,,,,,0,67,67,67,,,,,,,,,,,k,2.842366292141378,,,12,2024-08-02_11h41.27.688,EPIDM,2023.1.2,59.75943844801027,
6831.jpg,9611.jpg,5 Points,3 Points,,,,,,,,,,,,,,,,,0,68,68,68,,,,,,,,,,,l,1.1512575012166053,,,12,2024-08-02_11h41.27.688,EPIDM,2023.1.2,59.75943844801027,
6800.jpg,7110.jpg,0 Points,5 Points,,,,,,,,,,,,,,,,,0,69,69,69,,,,,,,,,,,j,3.0114053760189563,space,1.796634916914627,12,2024-08-02_11h41.27.688,EPIDM,2023.1.2,59.75943844801027,
1113.jpg,6020.jpg,3 Points,2 Points,,,,,,,,,,,,,,,,,0,70,70,70,,,,,,,,,,,s,1.9797139591537416,,,12,2024-08-02_11h41.27.688,EPIDM,2023.1.2,59.75943844801027,
5900.jpg,7503.jpg,3 Points,2 Points,,,,,,,,,,,,,,,,,0,71,71,71,,,,,,,,,,,d,4.450422334019095,,,12,2024-08-02_11h41.27.688,EPIDM,2023.1.2,59.75943844801027,
2580.jpg,2575.jpg,3 Points,2 Points,,,,,,,,,,,,,,,,,0,72,72,72,,,,,,,,,,,j,3.847450417233631,,,12,2024-08-02_11h41.27.688,EPIDM,2023.1.2,59.75943844801027,
2749.jpg,5849.jpg,3 Points,2 Points,,,,,,,,,,,,,,,,,0,73,73,73,,,,,,,,,,,d,1.697234126040712,,,12,2024-08-02_11h41.27.688,EPIDM,2023.1.2,59.75943844801027,
2260.jpg,2681.jpg,5 Points,3 Points,,,,,,,,,,,,,,,,,0,74,74,74,,,,,,,,,,,s,3.7930155841168016,,,12,2024-08-02_11h41.27.688,EPIDM,2023.1.2,59.75943844801027,
5629.jpg,2597.jpg,0 Points,5 Points,,,,,,,,,,,,,,,,,0,75,75,75,,,,,,,,,,,k,2.1312595000490546,,,12,2024-08-02_11h41.27.688,EPIDM,2023.1.2,59.75943844801027,
2717.jpg,3015.jpg,4 Points,5 Points,,,,,,,,,,,,,,,,,0,76,76,76,,,,,,,,,,,k,2.7329644591081887,,,12,2024-08-02_11h41.27.688,EPIDM,2023.1.2,59.75943844801027,
2485.jpg,7286.jpg,0 Points,5 Points,,,,,,,,,,,,,,,,,0,77,77,77,,,,,,,,,,,k,3.4139785000588745,,,12,2024-08-02_11h41.27.688,EPIDM,2023.1.2,59.75943844801027,
6570.2.jpg,1510.jpg,3 Points,4 Points,,,,,,,,,,,,,,,,,0,78,78,78,,,,,,,,,,,k,3.7958924169652164,,,12,2024-08-02_11h41.27.688,EPIDM,2023.1.2,59.75943844801027,
7035.jpg,7002.jpg,1 Points,4 Points,,,,,,,,,,,,,,,,,0,79,79,79,,,,,,,,,,,d,3.4888104170095176,,,12,2024-08-02_11h41.27.688,EPIDM,2023.1.2,59.75943844801027,
8210.jpg,8460.jpg,3 Points,0 Points,,,,,,,,,,,,,,,,,0,80,80,80,,,,,,,,,,,l,4.482304458040744,,,12,2024-08-02_11h41.27.688,EPIDM,2023.1.2,59.75943844801027,
2230.jpg,F252.jpg,5 Points,0 Points,,,,,,,,,,,,,,,,,0,81,81,81,,,,,,,,,,,s,2.8747789170593023,,,12,2024-08-02_11h41.27.688,EPIDM,2023.1.2,59.75943844801027,
7380.jpg,2692.jpg,1 Point,4 Points,,,,,,,,,,,,,,,,,0,82,82,82,,,,,,,,,,,k,3.5786369170527905,,,12,2024-08-02_11h41.27.688,EPIDM,2023.1.2,59.75943844801027,
5720.jpg,2383.jpg,3 Points,2 Points,,,,,,,,,,,,,,,,,0,83,83,83,,,,,,,,,,,l,1.4419234590604901,,,12,2024-08-02_11h41.27.688,EPIDM,2023.1.2,59.75943844801027,
6560.jpg,9432.jpg,2 Points,5 Points,,,,,,,,,,,,,,,,,0,84,84,84,,,,,,,,,,,k,2.144408583175391,,,12,2024-08-02_11h41.27.688,EPIDM,2023.1.2,59.75943844801027,
1310.jpg,9913.jpg,4 Points,1 Points,,,,,,,,,,,,,,,,,0,85,85,85,,,,,,,,,,,k,2.5492156671825796,space,3.2873419590760022,12,2024-08-02_11h41.27.688,EPIDM,2023.1.2,59.75943844801027,
5471.jpg,2240.jpg,2 Points,5 Points,,,,,,,,,,,,,,,,,0,86,86,86,,,,,,,,,,,k,1.7309336250182241,,,12,2024-08-02_11h41.27.688,EPIDM,2023.1.2,59.75943844801027,
2683.jpg,7361.jpg,3 Points,2 Points,,,,,,,,,,,,,,,,,0,87,87,87,,,,,,,,,,,s,2.7284429592546076,,,12,2024-08-02_11h41.27.688,EPIDM,2023.1.2,59.75943844801027,
4531.jpg,5621.jpg,5 Points,3 Points,,,,,,,,,,,,,,,,,0,88,88,88,,,,,,,,,,,d,1.8268439592793584,,,12,2024-08-02_11h41.27.688,EPIDM,2023.1.2,59.75943844801027,
8090.jpg,5831.jpg,2 Points,3 Points,,,,,,,,,,,,,,,,,0,89,89,89,,,,,,,,,,,l,4.51866454211995,,,12,2024-08-02_11h41.27.688,EPIDM,2023.1.2,59.75943844801027,
9320.jpg,2900.jpg,0 Points,3 Points,,,,,,,,,,,,,,,,,0,90,90,90,,,,,,,,,,,l,1.9323062081821263,,,12,2024-08-02_11h41.27.688,EPIDM,2023.1.2,59.75943844801027,
7034.jpg,2810.jpg,2 Points,3 Points,,,,,,,,,,,,,,,,,0,91,91,91,,,,,,,,,,,s,2.657547000097111,,,12,2024-08-02_11h41.27.688,EPIDM,2023.1.2,59.75943844801027,
3500.jpg,3230.jpg,4 Points,2 Points,,,,,,,,,,,,,,,,,0,92,92,92,,,,,,,,,,,j,3.7969388749916106,,,12,2024-08-02_11h41.27.688,EPIDM,2023.1.2,59.75943844801027,
6561.jpg,7211.jpg,2 Points,3 Points,,,,,,,,,,,,,,,,,0,93,93,93,,,,,,,,,,,j,2.507227292051539,,,12,2024-08-02_11h41.27.688,EPIDM,2023.1.2,59.75943844801027,
8350.jpg,2372.jpg,5 Points,1 Point,,,,,,,,,,,,,,,,,0,94,94,94,,,,,,,,,,,k,1.9993115002289414,,,12,2024-08-02_11h41.27.688,EPIDM,2023.1.2,59.75943844801027,
2500.jpg,8010.jpg,5 Points,0 Points,,,,,,,,,,,,,,,,,0,95,95,95,,,,,,,,,,,d,1.6453217500820756,,,12,2024-08-02_11h41.27.688,EPIDM,2023.1.2,59.75943844801027,
F174.jpg,6212.jpg,5 Points,4 Points,,,,,,,,,,,,,,,,,0,96,96,96,,,,,,,,,,,a,2.644996999995783,,,12,2024-08-02_11h41.27.688,EPIDM,2023.1.2,59.75943844801027,
5994.jpg,5700.jpg,0 Points,5 Points,,,,,,,,,,,,,,,,,0,97,97,97,,,,,,,,,,,d,5.837989251129329,,,12,2024-08-02_11h41.27.688,EPIDM,2023.1.2,59.75943844801027,
5500.jpg,5120.jpg,3 Points,2 Points,,,,,,,,,,,,,,,,,0,98,98,98,,,,,,,,,,,s,2.8023547092452645,,,12,2024-08-02_11h41.27.688,EPIDM,2023.1.2,59.75943844801027,
7545.jpg,7320.jpg,5 Points,0 Points,,,,,,,,,,,,,,,,,0,99,99,99,,,,,,,,,,,d,4.227369375061244,,,12,2024-08-02_11h41.27.688,EPIDM,2023.1.2,59.75943844801027,
2220.jpg,2210.jpg,5 Points,0 Points,,,,,,,,,,,,,,,,,0,100,100,100,,,,,,,,,,,a,1.4611721250694245,,,12,2024-08-02_11h41.27.688,EPIDM,2023.1.2,59.75943844801027,
7184.jpg,9700.jpg,4 Points,1 Points,,,,,,,,,,,,,,,,,0,101,101,101,,,,,,,,,,,j,2.9834347090218216,space,1.626219459110871,12,2024-08-02_11h41.27.688,EPIDM,2023.1.2,59.75943844801027,
9421.jpg,1051.jpg,2 Points,0 Points,,,,,,,,,,,,,,,,,0,102,102,102,,,,,,,,,,,d,2.3754507512785494,,,12,2024-08-02_11h41.27.688,EPIDM,2023.1.2,59.75943844801027,
7182.jpg,5395.jpg,4 Points,1 Point,,,,,,,,,,,,,,,,,0,103,103,103,,,,,,,,,,,k,2.31531233410351,,,12,2024-08-02_11h41.27.688,EPIDM,2023.1.2,59.75943844801027,
8320.jpg,5510.jpg,1 Point,5 Points,,,,,,,,,,,,,,,,,0,104,104,104,,,,,,,,,,,k,3.016527417115867,,,12,2024-08-02_11h41.27.688,EPIDM,2023.1.2,59.75943844801027,
2594.jpg,5470.jpg,0 Points,5 Points,,,,,,,,,,,,,,,,,0,105,105,105,,,,,,,,,,,l,3.206701874965802,,,12,2024-08-02_11h41.27.688,EPIDM,2023.1.2,59.75943844801027,
F034.jpg,3530.jpg,4 Points,1 Point,,,,,,,,,,,,,,,,,0,106,106,106,,,,,,,,,,,a,4.375801084097475,,,12,2024-08-02_11h41.27.688,EPIDM,2023.1.2,59.75943844801027,
5731.jpg,2480.jpg,4 Points,1 Point,,,,,,,,,,,,,,,,,0,107,107,107,,,,,,,,,,,j,2.0544939171522856,,,12,2024-08-02_11h41.27.688,EPIDM,2023.1.2,59.75943844801027,
1650.jpg,7237.jpg,1 Points,4 Points,,,,,,,,,,,,,,,,,0,108,108,108,,,,,,,,,,,s,2.23301845905371,,,12,2024-08-02_11h41.27.688,EPIDM,2023.1.2,59.75943844801027,
4770.jpg,5920.jpg,3 Points,2 Points,,,,,,,,,,,,,,,,,0,109,109,109,,,,,,,,,,,a,1.874304042197764,,,12,2024-08-02_11h41.27.688,EPIDM,2023.1.2,59.75943844801027,
2410.jpg,7009.jpg,4 Points,5 Points,,,,,,,,,,,,,,,,,0,110,110,110,,,,,,,,,,,a,3.544062500121072,,,12,2024-08-02_11h41.27.688,EPIDM,2023.1.2,59.75943844801027,
7040.jpg,A041.jpg,4 Points,1 Point,,,,,,,,,,,,,,,,,0,111,111,111,,,,,,,,,,,j,3.382069750223309,,,12,2024-08-02_11h41.27.688,EPIDM,2023.1.2,59.75943844801027,
6510.jpg,3120.jpg,2 Points,5 Points,,,,,,,,,,,,,,,,,0,112,112,112,,,,,,,,,,,k,1.2936975010670722,,,12,2024-08-02_11h41.27.688,EPIDM,2023.1.2,59.75943844801027,
3060.jpg,7217.jpg,1 Point,4 Points,,,,,,,,,,,,,,,,,0,113,113,113,,,,,,,,,,,s,2.3785292499233037,,,12,2024-08-02_11h41.27.688,EPIDM,2023.1.2,59.75943844801027,
3168.jpg,9070.jpg,4 Points,2 Points,,,,,,,,,,,,,,,,,0,114,114,114,,,,,,,,,,,a,1.3588699172250926,,,12,2024-08-02_11h41.27.688,EPIDM,2023.1.2,59.75943844801027,
7207.jpg,2320.jpg,1 Points,4 Points,,,,,,,,,,,,,,,,,0,115,115,115,,,,,,,,,,,k,1.18013737606816,,,12,2024-08-02_11h41.27.688,EPIDM,2023.1.2,59.75943844801027,
5531.jpg,7283.jpg,3 Points,4 Points,,,,,,,,,,,,,,,,,0,116,116,116,,,,,,,,,,,k,1.1952434591948986,,,12,2024-08-02_11h41.27.688,EPIDM,2023.1.2,59.75943844801027,
1050.jpg,7030.jpg,4 Points,1 Points,,,,,,,,,,,,,,,,,0,117,117,117,,,,,,,,,,,s,1.3316055000759661,space,1.0046862501185387,12,2024-08-02_11h41.27.688,EPIDM,2023.1.2,59.75943844801027,
2020.jpg,4535.jpg,5 Points,1 Point,,,,,,,,,,,,,,,,,0,118,118,118,,,,,,,,,,,j,1.9250895420555025,,,12,2024-08-02_11h41.27.688,EPIDM,2023.1.2,59.75943844801027,
7020.jpg,6150.jpg,5 Points,0 Points,,,,,,,,,,,,,,,,,0,119,119,119,,,,,,,,,,,j,1.4871317502111197,,,12,2024-08-02_11h41.27.688,EPIDM,2023.1.2,59.75943844801027,
9042.jpg,1090.jpg,0 Points,5 Points,,,,,,,,,,,,,,,,,0,120,120,120,,,,,,,,,,,s,3.750767125049606,,,12,2024-08-02_11h41.27.688,EPIDM,2023.1.2,59.75943844801027,
6210.jpg,7080.jpg,1 Point,4 Points,,,,,,,,,,,,,,,,,0,121,121,121,,,,,,,,,,,d,1.5199454580433667,,,12,2024-08-02_11h41.27.688,EPIDM,2023.1.2,59.75943844801027,
2110.jpg,8280.jpg,5 Points,3 Points,,,,,,,,,,,,,,,,,0,122,122,122,,,,,,,,,,,s,1.4257352920249104,,,12,2024-08-02_11h41.27.688,EPIDM,2023.1.2,59.75943844801027,
5740.jpg,2100.jpg,0 Points,5 Points,,,,,,,,,,,,,,,,,0,123,123,123,,,,,,,,,,,j,2.1622028332203627,,,12,2024-08-02_11h41.27.688,EPIDM,2023.1.2,59.75943844801027,
1660.jpg,7185.jpg,2 Points,1 Point,,,,,,,,,,,,,,,,,0,124,124,124,,,,,,,,,,,d,2.688209750223905,,,12,2024-08-02_11h41.27.688,EPIDM,2023.1.2,59.75943844801027,
5410.jpg,5530.jpg,5 Points,0 Points,,,,,,,,,,,,,,,,,0,125,125,125,,,,,,,,,,,d,1.199451042106375,,,12,2024-08-02_11h41.27.688,EPIDM,2023.1.2,59.75943844801027,
2276.jpg,9008.jpg,3 Points,1 Point,,,,,,,,,,,,,,,,,0,126,126,126,,,,,,,,,,,s,2.95432316721417,,,12,2024-08-02_11h41.27.688,EPIDM,2023.1.2,59.75943844801027,
5628.jpg,5660.jpg,5 Points,0 Points,,,,,,,,,,,,,,,,,0,127,127,127,,,,,,,,,,,j,3.7124915830790997,,,12,2024-08-02_11h41.27.688,EPIDM,2023.1.2,59.75943844801027,
7060.jpg,7830.jpg,5 Points,3 Points,,,,,,,,,,,,,,,,,0,128,128,128,,,,,,,,,,,s,2.4798360420390964,,,12,2024-08-02_11h41.27.688,EPIDM,2023.1.2,59.75943844801027,
2512.jpg,7050.jpg,1 Point,4 Points,,,,,,,,,,,,,,,,,0,129,129,129,,,,,,,,,,,s,1.68822037614882,,,12,2024-08-02_11h41.27.688,EPIDM,2023.1.2,59.75943844801027,
3550.jpg,9270.jpg,2 Points,0 Points,,,,,,,,,,,,,,,,,0,130,130,130,,,,,,,,,,,d,2.4866758750285953,,,12,2024-08-02_11h41.27.688,EPIDM,2023.1.2,59.75943844801027,
5910.jpg,5800.jpg,5 Points,0 Points,,,,,,,,,,,,,,,,,0,131,131,131,,,,,,,,,,,k,1.899458542233333,,,12,2024-08-02_11h41.27.688,EPIDM,2023.1.2,59.75943844801027,
1300.jpg,6200.jpg,2 Points,5 Points,,,,,,,,,,,,,,,,,0,132,132,132,,,,,,,,,,,k,2.7770580421201885,,,12,2024-08-02_11h41.27.688,EPIDM,2023.1.2,59.75943844801027,
7285.jpg,5875.jpg,5 Points,0 Points,,,,,,,,,,,,,,,,,0,133,133,133,,,,,,,,,,,j,2.488247042056173,space,1.1061221670825034,12,2024-08-02_11h41.27.688,EPIDM,2023.1.2,59.75943844801027,
2270.jpg,1303.jpg,2 Points,0 Points,,,,,,,,,,,,,,,,,0,134,134,134,,,,,,,,,,,s,2.0493596252053976,,,12,2024-08-02_11h41.27.688,EPIDM,2023.1.2,59.75943844801027,
9600.jpg,7640.jpg,5 Points,0 Points,,,,,,,,,,,,,,,,,0,135,135,135,,,,,,,,,,,d,2.746129959123209,,,12,2024-08-02_11h41.27.688,EPIDM,2023.1.2,59.75943844801027,
5130.jpg,7238.jpg,3 Points,4 Points,,,,,,,,,,,,,,,,,0,136,136,136,,,,,,,,,,,d,1.2318628341890872,,,12,2024-08-02_11h41.27.688,EPIDM,2023.1.2,59.75943844801027,
9180.jpg,9630.jpg,3 Points,2 Points,,,,,,,,,,,,,,,,,0,137,137,137,,,,,,,,,,,j,2.156037792097777,,,12,2024-08-02_11h41.27.688,EPIDM,2023.1.2,59.75943844801027,
9560.jpg,2700.jpg,1 Point,3 Points,,,,,,,,,,,,,,,,,0,138,138,138,,,,,,,,,,,k,1.404502792051062,,,12,2024-08-02_11h41.27.688,EPIDM,2023.1.2,59.75943844801027,
7000.jpg,1661.jpg,2 Points,3 Points,,,,,,,,,,,,,,,,,0,139,139,139,,,,,,,,,,,k,1.554106708150357,,,12,2024-08-02_11h41.27.688,EPIDM,2023.1.2,59.75943844801027,
9331.jpg,3150.jpg,2 Points,1 Point,,,,,,,,,,,,,,,,,0,140,140,140,,,,,,,,,,,d,3.8488825012464076,,,12,2024-08-02_11h41.27.688,EPIDM,2023.1.2,59.75943844801027,
9400.jpg,9810.jpg,3 Points,2 Points,,,,,,,,,,,,,,,,,0,141,141,141,,,,,,,,,,,d,1.6644957091193646,,,12,2024-08-02_11h41.27.688,EPIDM,2023.1.2,59.75943844801027,
7270.jpg,7289.jpg,3 Points,0 Points,,,,,,,,,,,,,,,,,0,142,142,142,,,,,,,,,,,s,1.1002210841979831,,,12,2024-08-02_11h41.27.688,EPIDM,2023.1.2,59.75943844801027,
7502.jpg,9230.jpg,5 Points,0 Points,,,,,,,,,,,,,,,,,0,143,143,143,,,,,,,,,,,k,1.7667062089312822,,,12,2024-08-02_11h41.27.688,EPIDM,2023.1.2,59.75943844801027,
7490.jpg,7284.jpg,2 Points,4 Points,,,,,,,,,,,,,,,,,0,144,144,144,,,,,,,,,,,k,1.6071213751565665,,,12,2024-08-02_11h41.27.688,EPIDM,2023.1.2,59.75943844801027,
9390.jpg,9424.jpg,1 Point,4 Points,,,,,,,,,,,,,,,,,0,145,145,145,,,,,,,,,,,d,2.4525370839983225,,,12,2024-08-02_11h41.27.688,EPIDM,2023.1.2,59.75943844801027,
8230.jpg,2710.jpg,5 Points,1 Point,,,,,,,,,,,,,,,,,0,146,146,146,,,,,,,,,,,k,1.6851574589964002,,,12,2024-08-02_11h41.27.688,EPIDM,2023.1.2,59.75943844801027,
7235.jpg,9182.jpg,3 Points,2 Points,,,,,,,,,,,,,,,,,0,147,147,147,,,,,,,,,,,k,2.9049124580342323,,,12,2024-08-02_11h41.27.688,EPIDM,2023.1.2,59.75943844801027,
2440.jpg,7950.jpg,4 Points,1 Point,,,,,,,,,,,,,,,,,0,148,148,148,,,,,,,,,,,s,0.6156012089923024,,,12,2024-08-02_11h41.27.688,EPIDM,2023.1.2,59.75943844801027,
9001.jpg,1230.jpg,1 Point,4 Points,,,,,,,,,,,,,,,,,0,149,149,149,,,,,,,,,,,d,2.914437751052901,space,1.3950468751136214,12,2024-08-02_11h41.27.688,EPIDM,2023.1.2,59.75943844801027,
9410.jpg,9402.jpg,0 Points,2 Points,,,,,,,,,,,,,,,,,0,150,150,150,,,,,,,,,,,s,2.656911208992824,,,12,2024-08-02_11h41.27.688,EPIDM,2023.1.2,59.75943844801027,
2716.jpg,3250.jpg,2 Points,3 Points,,,,,,,,,,,,,,,,,0,151,151,151,,,,,,,,,,,d,1.818081917008385,,,12,2024-08-02_11h41.27.688,EPIDM,2023.1.2,59.75943844801027,
1301.jpg,3063.jpg,2 Points,5 Points,,,,,,,,,,,,,,,,,0,152,152,152,,,,,,,,,,,l,1.0765077511314303,,,12,2024-08-02_11h41.27.688,EPIDM,2023.1.2,59.75943844801027,
2205.jpg,7550.jpg,4 Points,1 Points,,,,,,,,,,,,,,,,,0,153,153,153,,,,,,,,,,,s,2.496557582868263,,,12,2024-08-02_11h41.27.688,EPIDM,2023.1.2,59.75943844801027,
2720.jpg,1610.jpg,4 Points,0 Points,,,,,,,,,,,,,,,,,0,154,154,154,,,,,,,,,,,a,1.2939182091504335,,,12,2024-08-02_11h41.27.688,EPIDM,2023.1.2,59.75943844801027,
5991.jpg,5594.jpg,0 Points,5 Points,,,,,,,,,,,,,,,,,0,155,155,155,,,,,,,,,,,k,4.100916251074523,,,12,2024-08-02_11h41.27.688,EPIDM,2023.1.2,59.75943844801027,
9430.jpg,9520.jpg,5 Points,3 Points,,,,,,,,,,,,,,,,,0,156,156,156,,,,,,,,,,,k,1.7235880000516772,,,12,2024-08-02_11h41.27.688,EPIDM,2023.1.2,59.75943844801027,
8531.jpg,7095.jpg,4 Points,1 Points,,,,,,,,,,,,,,,,,0,157,157,157,,,,,,,,,,,s,3.1715948760975152,,,12,2024-08-02_11h41.27.688,EPIDM,2023.1.2,59.75943844801027,
2516.jpg,7820.jpg,4 Points,0 Points,,,,,,,,,,,,,,,,,0,158,158,158,,,,,,,,,,,d,1.0120319172274321,,,12,2024-08-02_11h41.27.688,EPIDM,2023.1.2,59.75943844801027,
7004.jpg,1019.jpg,5 Points,0 Points,,,,,,,,,,,,,,,,,0,159,159,159,,,,,,,,,,,k,2.583344001090154,,,12,2024-08-02_11h41.27.688,EPIDM,2023.1.2,59.75943844801027,
