L_Scene,R_Scene,L_Pts,R_Pts,Instructions_Loop.thisRepN,Instructions_Loop.thisTrialN,Instructions_Loop.thisN,Instructions_Loop.thisIndex,Redo_Instructions_Loop.thisRepN,Redo_Instructions_Loop.thisTrialN,Redo_Instructions_Loop.thisN,Redo_Instructions_Loop.thisIndex,Practice_Recognition_Loop.thisRepN,Practice_Recognition_Loop.thisTrialN,Practice_Recognition_Loop.thisN,Practice_Recognition_Loop.thisIndex,Practice_FB_Loop.thisRepN,Practice_FB_Loop.thisTrialN,Practice_FB_Loop.thisN,Practice_FB_Loop.thisIndex,RecStim_Loop.thisRepN,RecStim_Loop.thisTrialN,RecStim_Loop.thisN,RecStim_Loop.thisIndex,FB_Loop.thisRepN,FB_Loop.thisTrialN,FB_Loop.thisN,FB_Loop.thisIndex,RecBrk_Loop.thisRepN,RecBrk_Loop.thisTrialN,RecBrk_Loop.thisN,RecBrk_Loop.thisIndex,Transition_Enc.keys,Transition_Enc.rt,Encoding_Resp.keys,Encoding_Resp.rt,EncBrk_Resp.keys,EncBrk_Resp.rt,participant,date,expName,psychopyVersion,frameRate,
,,,,,,,,,,,,,,,,,,,,,,,,,,,,,,,,space,4.79505579220131,,,,,14,2024-08-02_14h48.05.206,EPIDM,2023.1.2,None,
F078.jpg,L130.jpg,,,,,,,,,,,0,0,0,0,,,,,,,,,,,,,,,,,,,l,2.9139234591275454,,,14,2024-08-02_14h48.05.206,EPIDM,2023.1.2,None,
P036.jpg,P217.jpg,,,,,,,,,,,0,1,1,1,,,,,,,,,,,,,,,,,,,l,4.2107481262646616,,,14,2024-08-02_14h48.05.206,EPIDM,2023.1.2,None,
O161.jpg,F218.jpg,,,,,,,,,,,0,2,2,2,,,,,,,,,,,,,,,,,,,d,17.155042584054172,,,14,2024-08-02_14h48.05.206,EPIDM,2023.1.2,None,
F279.jpg,A001.jpg,,,,,,,,,,,0,3,3,3,,,,,,,,,,,,,,,,,,,j,9.344179667299613,,,14,2024-08-02_14h48.05.206,EPIDM,2023.1.2,None,
F273.jpg,A060.jpg,,,,,,,,,,,0,4,4,4,,,,,,,,,,,,,,,,,,,k,11.315914251143113,,,14,2024-08-02_14h48.05.206,EPIDM,2023.1.2,None,
2393.jpg,L055.jpg,,,,,,,,,,,0,5,5,5,,,,,,,,,,,,,,,,,,,d,43.93631508434191,,,14,2024-08-02_14h48.05.206,EPIDM,2023.1.2,None,
1812.jpg,2593.jpg,,,,,,,,,,,0,6,6,6,,,,,,,,,,,,,,,,,,,s,18.622536501148716,,,14,2024-08-02_14h48.05.206,EPIDM,2023.1.2,None,
O013.jpg,A067.jpg,,,,,,,,,,,0,7,7,7,,,,,,,,,,,,,,,,,,,l,18.11616162606515,,,14,2024-08-02_14h48.05.206,EPIDM,2023.1.2,None,
P033.jpg,P034.jpg,,,,,,,,,,,0,8,8,8,,,,,,,,,,,,,,,,,,,k,7.453875209204853,,,14,2024-08-02_14h48.05.206,EPIDM,2023.1.2,None,
A104.jpg,8186.jpg,,,,,,,,,,,0,9,9,9,,,,,,,,,,,,,,,,,,,l,64.86178183415905,,,14,2024-08-02_14h48.05.206,EPIDM,2023.1.2,None,
,,,,,,,,,,,,,,,,,,,,,,,,,,,,,,,,space,0.9643786260858178,,,,,14,2024-08-02_14h48.05.206,EPIDM,2023.1.2,None,
8041.jpg,9405.jpg,2 Points,3 Points,,,,,,,,,,,,,,,,,0,0,0,0,,,,,,,,,,,d,6.840064667165279,,,14,2024-08-02_14h48.05.206,EPIDM,2023.1.2,None,
4500.jpg,5532.jpg,3 Points,2 Points,,,,,,,,,,,,,,,,,0,1,1,1,,,,,,,,,,,k,8.019123209174722,,,14,2024-08-02_14h48.05.206,EPIDM,2023.1.2,None,
9500.jpg,6834.jpg,1 Point,5 Points,,,,,,,,,,,,,,,,,0,2,2,2,,,,,,,,,,,k,7.2678574591409415,,,14,2024-08-02_14h48.05.206,EPIDM,2023.1.2,None,
9921.jpg,1270.jpg,1 Points,4 Points,,,,,,,,,,,,,,,,,0,3,3,3,,,,,,,,,,,d,7.442707292037085,,,14,2024-08-02_14h48.05.206,EPIDM,2023.1.2,None,
5455.jpg,7570.jpg,0 Points,5 Points,,,,,,,,,,,,,,,,,0,4,4,4,,,,,,,,,,,l,3.194028084166348,,,14,2024-08-02_14h48.05.206,EPIDM,2023.1.2,None,
2890.jpg,2515.jpg,1 Points,4 Points,,,,,,,,,,,,,,,,,0,5,5,5,,,,,,,,,,,a,0.6250662510283291,space,2.9139732921030372,14,2024-08-02_14h48.05.206,EPIDM,2023.1.2,None,
9912.jpg,9050.jpg,5 Points,4 Points,,,,,,,,,,,,,,,,,0,6,6,6,,,,,,,,,,,j,5.884298917138949,,,14,2024-08-02_14h48.05.206,EPIDM,2023.1.2,None,
7500.jpg,6313.jpg,2 Points,3 Points,,,,,,,,,,,,,,,,,0,7,7,7,,,,,,,,,,,s,4.0832311261910945,,,14,2024-08-02_14h48.05.206,EPIDM,2023.1.2,None,
9250.jpg,3080.jpg,0 Points,1 Points,,,,,,,,,,,,,,,,,0,8,8,8,,,,,,,,,,,k,0.799457126064226,,,14,2024-08-02_14h48.05.206,EPIDM,2023.1.2,None,
9530.jpg,7560.jpg,1 Point,4 Points,,,,,,,,,,,,,,,,,0,9,9,9,,,,,,,,,,,s,4.239941501291469,,,14,2024-08-02_14h48.05.206,EPIDM,2023.1.2,None,
2518.jpg,8250.jpg,1 Point,4 Points,,,,,,,,,,,,,,,,,0,10,10,10,,,,,,,,,,,d,4.692801584023982,,,14,2024-08-02_14h48.05.206,EPIDM,2023.1.2,None,
1932.jpg,2053.jpg,1 Points,4 Points,,,,,,,,,,,,,,,,,0,11,11,11,,,,,,,,,,,l,0.7941270840819925,,,14,2024-08-02_14h48.05.206,EPIDM,2023.1.2,None,
6836.jpg,9411.jpg,4 Points,0 Points,,,,,,,,,,,,,,,,,0,12,12,12,,,,,,,,,,,s,0.5827087501529604,,,14,2024-08-02_14h48.05.206,EPIDM,2023.1.2,None,
9010.jpg,5450.jpg,0 Points,5 Points,,,,,,,,,,,,,,,,,0,13,13,13,,,,,,,,,,,k,0.08832604228518903,,,14,2024-08-02_14h48.05.206,EPIDM,2023.1.2,None,
2600.jpg,1560.jpg,1 Point,0 Points,,,,,,,,,,,,,,,,,0,14,14,14,,,,,,,,,,,l,0.6292836263310164,,,14,2024-08-02_14h48.05.206,EPIDM,2023.1.2,None,
7006.jpg,9622.jpg,3 Points,2 Points,,,,,,,,,,,,,,,,,0,15,15,15,,,,,,,,,,,k,1.289899209048599,,,14,2024-08-02_14h48.05.206,EPIDM,2023.1.2,None,
5030.jpg,4274.jpg,3 Points,2 Points,,,,,,,,,,,,,,,,,0,16,16,16,,,,,,,,,,,s,0.874499959172681,,,14,2024-08-02_14h48.05.206,EPIDM,2023.1.2,None,
5622.jpg,7495.jpg,4 Points,1 Points,,,,,,,,,,,,,,,,,0,17,17,17,,,,,,,,,,,a,2.4243123340420425,,,14,2024-08-02_14h48.05.206,EPIDM,2023.1.2,None,
6910.jpg,9160.jpg,0 Points,4 Points,,,,,,,,,,,,,,,,,0,18,18,18,,,,,,,,,,,k,1.6917812922038138,,,14,2024-08-02_14h48.05.206,EPIDM,2023.1.2,None,
7096.jpg,1111.jpg,5 Points,0 Points,,,,,,,,,,,,,,,,,0,19,19,19,,,,,,,,,,,s,0.12009379221126437,,,14,2024-08-02_14h48.05.206,EPIDM,2023.1.2,None,
9910.jpg,6241.jpg,2 Points,3 Points,,,,,,,,,,,,,,,,,0,20,20,20,,,,,,,,,,,k,1.8889423343352973,,,14,2024-08-02_14h48.05.206,EPIDM,2023.1.2,None,
1112.jpg,6415.jpg,3 Points,2 Points,,,,,,,,,,,,,,,,,0,21,21,21,,,,,,,,,,,s,1.61517941695638,space,0.8726921679917723,14,2024-08-02_14h48.05.206,EPIDM,2023.1.2,None,
1740.jpg,4533.jpg,0 Points,3 Points,,,,,,,,,,,,,,,,,0,22,22,22,,,,,,,,,,,d,1.7902136251796037,,,14,2024-08-02_14h48.05.206,EPIDM,2023.1.2,None,
7183.jpg,9800.jpg,4 Points,1 Point,,,,,,,,,,,,,,,,,0,23,23,23,,,,,,,,,,,j,2.5279957922175527,,,14,2024-08-02_14h48.05.206,EPIDM,2023.1.2,None,
9210.jpg,9254.jpg,1 Point,2 Points,,,,,,,,,,,,,,,,,0,24,24,24,,,,,,,,,,,j,2.483376417076215,,,14,2024-08-02_14h48.05.206,EPIDM,2023.1.2,None,
2850.jpg,7150.jpg,3 Points,2 Points,,,,,,,,,,,,,,,,,0,25,25,25,,,,,,,,,,,s,1.4616169170476496,,,14,2024-08-02_14h48.05.206,EPIDM,2023.1.2,None,
2352.2.jpg,6530.jpg,0 Points,1 Point,,,,,,,,,,,,,,,,,0,26,26,26,,,,,,,,,,,s,3.812092501204461,,,14,2024-08-02_14h48.05.206,EPIDM,2023.1.2,None,
3069.jpg,O022.jpg,3 Points,2 Points,,,,,,,,,,,,,,,,,0,27,27,27,,,,,,,,,,,s,0.9611507921945304,,,14,2024-08-02_14h48.05.206,EPIDM,2023.1.2,None,
8465.jpg,2590.jpg,1 Point,4 Points,,,,,,,,,,,,,,,,,0,28,28,28,,,,,,,,,,,k,1.3378235432319343,,,14,2024-08-02_14h48.05.206,EPIDM,2023.1.2,None,
8117.jpg,7281.jpg,5 Points,0 Points,,,,,,,,,,,,,,,,,0,29,29,29,,,,,,,,,,,j,2.3279195432551205,,,14,2024-08-02_14h48.05.206,EPIDM,2023.1.2,None,
4609.jpg,8161.jpg,2 Points,4 Points,,,,,,,,,,,,,,,,,0,30,30,30,,,,,,,,,,,s,0.7787757092155516,,,14,2024-08-02_14h48.05.206,EPIDM,2023.1.2,None,
7010.jpg,1120.jpg,2 Points,3 Points,,,,,,,,,,,,,,,,,0,31,31,31,,,,,,,,,,,l,0.4361894172616303,,,14,2024-08-02_14h48.05.206,EPIDM,2023.1.2,None,
3300.jpg,3110.jpg,0 Points,4 Points,,,,,,,,,,,,,,,,,0,32,32,32,,,,,,,,,,,k,0.7634088762570173,,,14,2024-08-02_14h48.05.206,EPIDM,2023.1.2,None,
9570.jpg,9911.jpg,0 Points,5 Points,,,,,,,,,,,,,,,,,0,33,33,33,,,,,,,,,,,s,0.229729084065184,,,14,2024-08-02_14h48.05.206,EPIDM,2023.1.2,None,
6243.jpg,7360.jpg,2 Points,1 Point,,,,,,,,,,,,,,,,,0,34,34,34,,,,,,,,,,,l,0.10616258415393531,,,14,2024-08-02_14h48.05.206,EPIDM,2023.1.2,None,
7090.jpg,9360.jpg,4 Points,1 Point,,,,,,,,,,,,,,,,,0,35,35,35,,,,,,,,,,,j,2.040418501244858,,,14,2024-08-02_14h48.05.206,EPIDM,2023.1.2,None,
4279.jpg,2030.jpg,5 Points,0 Points,,,,,,,,,,,,,,,,,0,36,36,36,,,,,,,,,,,s,0.927395875332877,,,14,2024-08-02_14h48.05.206,EPIDM,2023.1.2,None,
9920.jpg,5950.jpg,5 Points,0 Points,,,,,,,,,,,,,,,,,0,37,37,37,,,,,,,,,,,s,0.9390082501340657,space,0.7596650840714574,14,2024-08-02_14h48.05.206,EPIDM,2023.1.2,None,
9571.jpg,2800.jpg,2 Points,4 Points,,,,,,,,,,,,,,,,,0,38,38,38,,,,,,,,,,,k,0.6787445431109518,,,14,2024-08-02_14h48.05.206,EPIDM,2023.1.2,None,
5626.jpg,7234.jpg,2 Points,3 Points,,,,,,,,,,,,,,,,,0,39,39,39,,,,,,,,,,,k,0.9477429592516273,,,14,2024-08-02_14h48.05.206,EPIDM,2023.1.2,None,
9265.jpg,P211.jpg,0 Points,4 Points,,,,,,,,,,,,,,,,,0,40,40,40,,,,,,,,,,,s,0.17652737605385482,,,14,2024-08-02_14h48.05.206,EPIDM,2023.1.2,None,
6250.1.jpg,7705.jpg,0 Points,5 Points,,,,,,,,,,,,,,,,,0,41,41,41,,,,,,,,,,,s,0.6728957092855126,,,14,2024-08-02_14h48.05.206,EPIDM,2023.1.2,None,
2280.jpg,2170.jpg,4 Points,2 Points,,,,,,,,,,,,,,,,,0,42,42,42,,,,,,,,,,,k,0.34985712612979114,,,14,2024-08-02_14h48.05.206,EPIDM,2023.1.2,None,
7140.jpg,2702.jpg,0 Points,5 Points,,,,,,,,,,,,,,,,,0,43,43,43,,,,,,,,,,,a,0.46200345922261477,,,14,2024-08-02_14h48.05.206,EPIDM,2023.1.2,None,
2661.jpg,2520.jpg,5 Points,2 Points,,,,,,,,,,,,,,,,,0,44,44,44,,,,,,,,,,,s,0.43126875115558505,,,14,2024-08-02_14h48.05.206,EPIDM,2023.1.2,None,
6410.jpg,9830.jpg,1 Point,4 Points,,,,,,,,,,,,,,,,,0,45,45,45,,,,,,,,,,,l,0.26455300115048885,,,14,2024-08-02_14h48.05.206,EPIDM,2023.1.2,None,
F149.jpg,P237.jpg,0 Points,2 Points,,,,,,,,,,,,,,,,,0,46,46,46,,,,,,,,,,,s,0.33913587615825236,,,14,2024-08-02_14h48.05.206,EPIDM,2023.1.2,None,
9621.jpg,6838.jpg,0 Points,5 Points,,,,,,,,,,,,,,,,,0,47,47,47,,,,,,,,,,,s,0.415293084224686,,,14,2024-08-02_14h48.05.206,EPIDM,2023.1.2,None,
P222.jpg,3051.jpg,2 Points,1 Point,,,,,,,,,,,,,,,,,0,48,48,48,,,,,,,,,,,k,0.25201725121587515,,,14,2024-08-02_14h48.05.206,EPIDM,2023.1.2,None,
1022.jpg,7031.jpg,1 Point,4 Points,,,,,,,,,,,,,,,,,0,49,49,49,,,,,,,,,,,s,0.07170979329384863,,,14,2024-08-02_14h48.05.206,EPIDM,2023.1.2,None,
8200.jpg,2312.jpg,4 Points,1 Points,,,,,,,,,,,,,,,,,0,50,50,50,,,,,,,,,,,k,0.07760283420793712,,,14,2024-08-02_14h48.05.206,EPIDM,2023.1.2,None,
7025.jpg,3400.jpg,3 Points,2 Points,,,,,,,,,,,,,,,,,0,51,51,51,,,,,,,,,,,s,0.121695542242378,,,14,2024-08-02_14h48.05.206,EPIDM,2023.1.2,None,
1052.jpg,3180.jpg,3 Points,5 Points,,,,,,,,,,,,,,,,,0,52,52,52,,,,,,,,,,,k,0.5253233341500163,,,14,2024-08-02_14h48.05.206,EPIDM,2023.1.2,None,
3350.jpg,7130.jpg,1 Point,4 Points,,,,,,,,,,,,,,,,,0,53,53,53,,,,,,,,,,,s,0.38414891716092825,space,0.6557166681159288,14,2024-08-02_14h48.05.206,EPIDM,2023.1.2,None,
2487.jpg,4598.jpg,2 Points,1 Point,,,,,,,,,,,,,,,,,0,54,54,54,,,,,,,,,,,k,1.3376348752062768,,,14,2024-08-02_14h48.05.206,EPIDM,2023.1.2,None,
7224.jpg,9102.jpg,2 Points,3 Points,,,,,,,,,,,,,,,,,0,55,55,55,,,,,,,,,,,l,0.7966461672913283,,,14,2024-08-02_14h48.05.206,EPIDM,2023.1.2,None,
3100.jpg,6260.jpg,2 Points,3 Points,,,,,,,,,,,,,,,,,0,56,56,56,,,,,,,,,,,s,4.0327460842672735,,,14,2024-08-02_14h48.05.206,EPIDM,2023.1.2,None,
8180.jpg,1603.jpg,4 Points,1 Points,,,,,,,,,,,,,,,,,0,57,57,57,,,,,,,,,,,s,5.441413168096915,,,14,2024-08-02_14h48.05.206,EPIDM,2023.1.2,None,
5260.jpg,1602.jpg,5 Points,1 Point,,,,,,,,,,,,,,,,,0,58,58,58,,,,,,,,,,,a,1.8364071249961853,,,14,2024-08-02_14h48.05.206,EPIDM,2023.1.2,None,
5890.jpg,5990.jpg,2 Points,3 Points,,,,,,,,,,,,,,,,,0,59,59,59,,,,,,,,,,,a,1.4328315432649106,,,14,2024-08-02_14h48.05.206,EPIDM,2023.1.2,None,
F158.jpg,9582.jpg,3 Points,5 Points,,,,,,,,,,,,,,,,,0,60,60,60,,,,,,,,,,,k,1.484083459014073,,,14,2024-08-02_14h48.05.206,EPIDM,2023.1.2,None,
9440.jpg,1274.jpg,4 Points,1 Points,,,,,,,,,,,,,,,,,0,61,61,61,,,,,,,,,,,s,1.490205875132233,,,14,2024-08-02_14h48.05.206,EPIDM,2023.1.2,None,
3102.jpg,9594.jpg,1 Point,4 Points,,,,,,,,,,,,,,,,,0,62,62,62,,,,,,,,,,,l,3.9181861251126975,,,14,2024-08-02_14h48.05.206,EPIDM,2023.1.2,None,
7233.jpg,5623.jpg,0 Points,5 Points,,,,,,,,,,,,,,,,,0,63,63,63,,,,,,,,,,,a,1.7008487512357533,,,14,2024-08-02_14h48.05.206,EPIDM,2023.1.2,None,
7580.jpg,7546.jpg,3 Points,2 Points,,,,,,,,,,,,,,,,,0,64,64,64,,,,,,,,,,,l,2.771191001171246,,,14,2024-08-02_14h48.05.206,EPIDM,2023.1.2,None,
5200.jpg,5820.jpg,0 Points,5 Points,,,,,,,,,,,,,,,,,0,65,65,65,,,,,,,,,,,j,5.167662126244977,,,14,2024-08-02_14h48.05.206,EPIDM,2023.1.2,None,
7160.jpg,5270.jpg,0 Points,4 Points,,,,,,,,,,,,,,,,,0,66,66,66,,,,,,,,,,,j,0.8171865839976817,,,14,2024-08-02_14h48.05.206,EPIDM,2023.1.2,None,
5593.jpg,5600.jpg,0 Points,5 Points,,,,,,,,,,,,,,,,,0,67,67,67,,,,,,,,,,,k,0.4351167092099786,,,14,2024-08-02_14h48.05.206,EPIDM,2023.1.2,None,
2141.jpg,6211.jpg,5 Points,3 Points,,,,,,,,,,,,,,,,,0,68,68,68,,,,,,,,,,,k,0.47593258414417505,,,14,2024-08-02_14h48.05.206,EPIDM,2023.1.2,None,
6800.jpg,7110.jpg,0 Points,5 Points,,,,,,,,,,,,,,,,,0,69,69,69,,,,,,,,,,,k,0.38017433416098356,space,0.6785677091684192,14,2024-08-02_14h48.05.206,EPIDM,2023.1.2,None,
1240.jpg,6020.jpg,3 Points,2 Points,,,,,,,,,,,,,,,,,0,70,70,70,,,,,,,,,,,s,0.06279629236087203,,,14,2024-08-02_14h48.05.206,EPIDM,2023.1.2,None,
5900.jpg,2190.jpg,3 Points,2 Points,,,,,,,,,,,,,,,,,0,71,71,71,,,,,,,,,,,s,0.3371232512872666,,,14,2024-08-02_14h48.05.206,EPIDM,2023.1.2,None,
8300.jpg,1910.jpg,3 Points,2 Points,,,,,,,,,,,,,,,,,0,72,72,72,,,,,,,,,,,d,0.8596051260828972,,,14,2024-08-02_14h48.05.206,EPIDM,2023.1.2,None,
7282.jpg,5849.jpg,3 Points,2 Points,,,,,,,,,,,,,,,,,0,73,73,73,,,,,,,,,,,l,4.421141876140609,,,14,2024-08-02_14h48.05.206,EPIDM,2023.1.2,None,
2830.jpg,7100.jpg,5 Points,3 Points,,,,,,,,,,,,,,,,,0,74,74,74,,,,,,,,,,,a,6.323322917334735,,,14,2024-08-02_14h48.05.206,EPIDM,2023.1.2,None,
5629.jpg,2597.jpg,0 Points,5 Points,,,,,,,,,,,,,,,,,0,75,75,75,,,,,,,,,,,s,3.7792067090049386,,,14,2024-08-02_14h48.05.206,EPIDM,2023.1.2,None,
3061.jpg,3015.jpg,4 Points,5 Points,,,,,,,,,,,,,,,,,0,76,76,76,,,,,,,,,,,k,0.576096500037238,,,14,2024-08-02_14h48.05.206,EPIDM,2023.1.2,None,
7350.jpg,7286.jpg,0 Points,5 Points,,,,,,,,,,,,,,,,,0,77,77,77,,,,,,,,,,,l,4.042766334023327,,,14,2024-08-02_14h48.05.206,EPIDM,2023.1.2,None,
6570.2.jpg,1510.jpg,3 Points,4 Points,,,,,,,,,,,,,,,,,0,78,78,78,,,,,,,,,,,j,5.503885751124471,,,14,2024-08-02_14h48.05.206,EPIDM,2023.1.2,None,
7035.jpg,4660.jpg,1 Points,4 Points,,,,,,,,,,,,,,,,,0,79,79,79,,,,,,,,,,,s,0.7139223341364413,,,14,2024-08-02_14h48.05.206,EPIDM,2023.1.2,None,
5535.jpg,8460.jpg,3 Points,0 Points,,,,,,,,,,,,,,,,,0,80,80,80,,,,,,,,,,,l,3.474484542151913,,,14,2024-08-02_14h48.05.206,EPIDM,2023.1.2,None,
4510.jpg,F252.jpg,5 Points,0 Points,,,,,,,,,,,,,,,,,0,81,81,81,,,,,,,,,,,d,3.183135334169492,,,14,2024-08-02_14h48.05.206,EPIDM,2023.1.2,None,
7380.jpg,2692.jpg,1 Point,4 Points,,,,,,,,,,,,,,,,,0,82,82,82,,,,,,,,,,,d,5.042914001271129,,,14,2024-08-02_14h48.05.206,EPIDM,2023.1.2,None,
5720.jpg,2383.jpg,3 Points,2 Points,,,,,,,,,,,,,,,,,0,83,83,83,,,,,,,,,,,k,5.517050500260666,,,14,2024-08-02_14h48.05.206,EPIDM,2023.1.2,None,
3170.jpg,9432.jpg,2 Points,5 Points,,,,,,,,,,,,,,,,,0,84,84,84,,,,,,,,,,,l,3.0341948340646923,,,14,2024-08-02_14h48.05.206,EPIDM,2023.1.2,None,
1310.jpg,9913.jpg,4 Points,1 Points,,,,,,,,,,,,,,,,,0,85,85,85,,,,,,,,,,,j,0.7139593751635402,space,0.7767646261490881,14,2024-08-02_14h48.05.206,EPIDM,2023.1.2,None,
5471.jpg,5010.jpg,2 Points,5 Points,,,,,,,,,,,,,,,,,0,86,86,86,,,,,,,,,,,d,2.9682693341746926,,,14,2024-08-02_14h48.05.206,EPIDM,2023.1.2,None,
2683.jpg,7361.jpg,3 Points,2 Points,,,,,,,,,,,,,,,,,0,87,87,87,,,,,,,,,,,j,2.4974336680024862,,,14,2024-08-02_14h48.05.206,EPIDM,2023.1.2,None,
2650.jpg,5621.jpg,5 Points,3 Points,,,,,,,,,,,,,,,,,0,88,88,88,,,,,,,,,,,s,7.619647834217176,,,14,2024-08-02_14h48.05.206,EPIDM,2023.1.2,None,
8090.jpg,5831.jpg,2 Points,3 Points,,,,,,,,,,,,,,,,,0,89,89,89,,,,,,,,,,,j,2.0203488341066986,,,14,2024-08-02_14h48.05.206,EPIDM,2023.1.2,None,
9320.jpg,1101.jpg,0 Points,3 Points,,,,,,,,,,,,,,,,,0,90,90,90,,,,,,,,,,,j,5.352291667135432,,,14,2024-08-02_14h48.05.206,EPIDM,2023.1.2,None,
7034.jpg,9140.jpg,2 Points,3 Points,,,,,,,,,,,,,,,,,0,91,91,91,,,,,,,,,,,k,1.2287522931583226,,,14,2024-08-02_14h48.05.206,EPIDM,2023.1.2,None,
3130.jpg,3230.jpg,4 Points,2 Points,,,,,,,,,,,,,,,,,0,92,92,92,,,,,,,,,,,j,0.7841324592009187,,,14,2024-08-02_14h48.05.206,EPIDM,2023.1.2,None,
6561.jpg,7211.jpg,2 Points,3 Points,,,,,,,,,,,,,,,,,0,93,93,93,,,,,,,,,,,k,2.963911209255457,,,14,2024-08-02_14h48.05.206,EPIDM,2023.1.2,None,
8350.jpg,2372.jpg,5 Points,1 Point,,,,,,,,,,,,,,,,,0,94,94,94,,,,,,,,,,,s,0.39522150135599077,,,14,2024-08-02_14h48.05.206,EPIDM,2023.1.2,None,
2500.jpg,2630.jpg,5 Points,0 Points,,,,,,,,,,,,,,,,,0,95,95,95,,,,,,,,,,,d,0.6737261260859668,,,14,2024-08-02_14h48.05.206,EPIDM,2023.1.2,None,
F174.jpg,6212.jpg,5 Points,4 Points,,,,,,,,,,,,,,,,,0,96,96,96,,,,,,,,,,,j,1.1190635012462735,,,14,2024-08-02_14h48.05.206,EPIDM,2023.1.2,None,
5994.jpg,5700.jpg,0 Points,5 Points,,,,,,,,,,,,,,,,,0,97,97,97,,,,,,,,,,,d,0.4491879171691835,,,14,2024-08-02_14h48.05.206,EPIDM,2023.1.2,None,
2570.jpg,5520.jpg,3 Points,2 Points,,,,,,,,,,,,,,,,,0,98,98,98,,,,,,,,,,,d,3.340344584081322,,,14,2024-08-02_14h48.05.206,EPIDM,2023.1.2,None,
7545.jpg,7320.jpg,5 Points,0 Points,,,,,,,,,,,,,,,,,0,99,99,99,,,,,,,,,,,d,2.809677293058485,,,14,2024-08-02_14h48.05.206,EPIDM,2023.1.2,None,
2220.jpg,2092.jpg,5 Points,0 Points,,,,,,,,,,,,,,,,,0,100,100,100,,,,,,,,,,,l,11.997041043126956,,,14,2024-08-02_14h48.05.206,EPIDM,2023.1.2,None,
9452.jpg,9700.jpg,4 Points,1 Points,,,,,,,,,,,,,,,,,0,101,101,101,,,,,,,,,,,k,8.559019168140367,space,0.681158667197451,14,2024-08-02_14h48.05.206,EPIDM,2023.1.2,None,
1390.jpg,1051.jpg,2 Points,0 Points,,,,,,,,,,,,,,,,,0,102,102,102,,,,,,,,,,,k,0.6704977510962635,,,14,2024-08-02_14h48.05.206,EPIDM,2023.1.2,None,
7182.jpg,5395.jpg,4 Points,1 Point,,,,,,,,,,,,,,,,,0,103,103,103,,,,,,,,,,,j,0.7425092509947717,,,14,2024-08-02_14h48.05.206,EPIDM,2023.1.2,None,
4608.jpg,5510.jpg,1 Point,5 Points,,,,,,,,,,,,,,,,,0,104,104,104,,,,,,,,,,,k,0.46923712524585426,,,14,2024-08-02_14h48.05.206,EPIDM,2023.1.2,None,
2620.jpg,5470.jpg,0 Points,5 Points,,,,,,,,,,,,,,,,,0,105,105,105,,,,,,,,,,,s,0.7421590422745794,,,14,2024-08-02_14h48.05.206,EPIDM,2023.1.2,None,
F034.jpg,3530.jpg,4 Points,1 Point,,,,,,,,,,,,,,,,,0,106,106,106,,,,,,,,,,,l,0.5112595842219889,,,14,2024-08-02_14h48.05.206,EPIDM,2023.1.2,None,
5731.jpg,2606.jpg,4 Points,1 Point,,,,,,,,,,,,,,,,,0,107,107,107,,,,,,,,,,,k,0.7109361251350492,,,14,2024-08-02_14h48.05.206,EPIDM,2023.1.2,None,
1650.jpg,8510.jpg,1 Points,4 Points,,,,,,,,,,,,,,,,,0,108,108,108,,,,,,,,,,,s,0.08381416811607778,,,14,2024-08-02_14h48.05.206,EPIDM,2023.1.2,None,
4770.jpg,5920.jpg,3 Points,2 Points,,,,,,,,,,,,,,,,,0,109,109,109,,,,,,,,,,,a,0.6558633341919631,,,14,2024-08-02_14h48.05.206,EPIDM,2023.1.2,None,
2410.jpg,4689.jpg,4 Points,5 Points,,,,,,,,,,,,,,,,,0,110,110,110,,,,,,,,,,,k,0.46873845905065536,,,14,2024-08-02_14h48.05.206,EPIDM,2023.1.2,None,
7040.jpg,P077.jpg,4 Points,1 Point,,,,,,,,,,,,,,,,,0,111,111,111,,,,,,,,,,,j,0.2827028762549162,,,14,2024-08-02_14h48.05.206,EPIDM,2023.1.2,None,
A074.jpg,3120.jpg,2 Points,5 Points,,,,,,,,,,,,,,,,,0,112,112,112,,,,,,,,,,,j,0.3398353341035545,,,14,2024-08-02_14h48.05.206,EPIDM,2023.1.2,None,
P233.jpg,7217.jpg,1 Point,4 Points,,,,,,,,,,,,,,,,,0,113,113,113,,,,,,,,,,,k,0.4856890430673957,,,14,2024-08-02_14h48.05.206,EPIDM,2023.1.2,None,
3064.jpg,9420.jpg,4 Points,2 Points,,,,,,,,,,,,,,,,,0,114,114,114,,,,,,,,,,,s,2.221618543146178,,,14,2024-08-02_14h48.05.206,EPIDM,2023.1.2,None,
7207.jpg,2320.jpg,1 Points,4 Points,,,,,,,,,,,,,,,,,0,115,115,115,,,,,,,,,,,k,1.361583918100223,,,14,2024-08-02_14h48.05.206,EPIDM,2023.1.2,None,
5531.jpg,7283.jpg,3 Points,4 Points,,,,,,,,,,,,,,,,,0,116,116,116,,,,,,,,,,,s,1.7981445011682808,,,14,2024-08-02_14h48.05.206,EPIDM,2023.1.2,None,
9300.jpg,7030.jpg,4 Points,1 Points,,,,,,,,,,,,,,,,,0,117,117,117,,,,,,,,,,,s,1.9914401683490723,space,0.674160584108904,14,2024-08-02_14h48.05.206,EPIDM,2023.1.2,None,
1947.jpg,4535.jpg,5 Points,1 Point,,,,,,,,,,,,,,,,,0,118,118,118,,,,,,,,,,,s,1.695976417278871,,,14,2024-08-02_14h48.05.206,EPIDM,2023.1.2,None,
7020.jpg,2206.jpg,5 Points,0 Points,,,,,,,,,,,,,,,,,0,119,119,119,,,,,,,,,,,d,2.969501792220399,,,14,2024-08-02_14h48.05.206,EPIDM,2023.1.2,None,
2753.jpg,P217.jpg,0 Points,5 Points,,,,,,,,,,,,,,,,,0,120,120,120,,,,,,,,,,,l,2.138022334082052,,,14,2024-08-02_14h48.05.206,EPIDM,2023.1.2,None,
3160.jpg,7080.jpg,1 Point,4 Points,,,,,,,,,,,,,,,,,0,121,121,121,,,,,,,,,,,a,2.920818209182471,,,14,2024-08-02_14h48.05.206,EPIDM,2023.1.2,None,
7260.jpg,8260.jpg,5 Points,3 Points,,,,,,,,,,,,,,,,,0,122,122,122,,,,,,,,,,,l,0.511175834108144,,,14,2024-08-02_14h48.05.206,EPIDM,2023.1.2,None,
5740.jpg,2100.jpg,0 Points,5 Points,,,,,,,,,,,,,,,,,0,123,123,123,,,,,,,,,,,s,5.788227749988437,,,14,2024-08-02_14h48.05.206,EPIDM,2023.1.2,None,
1660.jpg,8040.jpg,2 Points,1 Point,,,,,,,,,,,,,,,,,0,124,124,124,,,,,,,,,,,l,3.486563167301938,,,14,2024-08-02_14h48.05.206,EPIDM,2023.1.2,None,
5410.jpg,5530.jpg,5 Points,0 Points,,,,,,,,,,,,,,,,,0,125,125,125,,,,,,,,,,,s,0.5916675422340631,,,14,2024-08-02_14h48.05.206,EPIDM,2023.1.2,None,
6540.jpg,9008.jpg,3 Points,1 Point,,,,,,,,,,,,,,,,,0,126,126,126,,,,,,,,,,,d,0.42129812529310584,,,14,2024-08-02_14h48.05.206,EPIDM,2023.1.2,None,
5628.jpg,5660.jpg,5 Points,0 Points,,,,,,,,,,,,,,,,,0,127,127,127,,,,,,,,,,,d,0.7641355842351913,,,14,2024-08-02_14h48.05.206,EPIDM,2023.1.2,None,
4250.jpg,2499.jpg,5 Points,3 Points,,,,,,,,,,,,,,,,,0,128,128,128,,,,,,,,,,,j,0.5448041262570769,,,14,2024-08-02_14h48.05.206,EPIDM,2023.1.2,None,
2512.jpg,7050.jpg,1 Point,4 Points,,,,,,,,,,,,,,,,,0,129,129,129,,,,,,,,,,,d,2.459871293278411,,,14,2024-08-02_14h48.05.206,EPIDM,2023.1.2,None,
4621.jpg,9270.jpg,2 Points,0 Points,,,,,,,,,,,,,,,,,0,130,130,130,,,,,,,,,,,k,1.057333417236805,,,14,2024-08-02_14h48.05.206,EPIDM,2023.1.2,None,
5910.jpg,5460.jpg,5 Points,0 Points,,,,,,,,,,,,,,,,,0,131,131,131,,,,,,,,,,,k,0.6257081681396812,,,14,2024-08-02_14h48.05.206,EPIDM,2023.1.2,None,
1300.jpg,3000.jpg,2 Points,5 Points,,,,,,,,,,,,,,,,,0,132,132,132,,,,,,,,,,,j,0.319912584265694,,,14,2024-08-02_14h48.05.206,EPIDM,2023.1.2,None,
7285.jpg,5875.jpg,5 Points,0 Points,,,,,,,,,,,,,,,,,0,133,133,133,,,,,,,,,,,j,0.876445917179808,space,2.8699743752367795,14,2024-08-02_14h48.05.206,EPIDM,2023.1.2,None,
2270.jpg,2000.jpg,2 Points,0 Points,,,,,,,,,,,,,,,,,0,134,134,134,,,,,,,,,,,l,2.3874953342601657,,,14,2024-08-02_14h48.05.206,EPIDM,2023.1.2,None,
9600.jpg,2691.jpg,5 Points,0 Points,,,,,,,,,,,,,,,,,0,135,135,135,,,,,,,,,,,k,0.661817709216848,,,14,2024-08-02_14h48.05.206,EPIDM,2023.1.2,None,
5130.jpg,2616.jpg,3 Points,4 Points,,,,,,,,,,,,,,,,,0,136,136,136,,,,,,,,,,,s,0.3490348339546472,,,14,2024-08-02_14h48.05.206,EPIDM,2023.1.2,None,
9180.jpg,9630.jpg,3 Points,2 Points,,,,,,,,,,,,,,,,,0,137,137,137,,,,,,,,,,,d,0.38943870924413204,,,14,2024-08-02_14h48.05.206,EPIDM,2023.1.2,None,
3071.jpg,1302.jpg,1 Point,3 Points,,,,,,,,,,,,,,,,,0,138,138,138,,,,,,,,,,,d,0.5829391670413315,,,14,2024-08-02_14h48.05.206,EPIDM,2023.1.2,None,
7000.jpg,1661.jpg,2 Points,3 Points,,,,,,,,,,,,,,,,,0,139,139,139,,,,,,,,,,,d,0.8175700013525784,,,14,2024-08-02_14h48.05.206,EPIDM,2023.1.2,None,
1110.jpg,1275.jpg,2 Points,1 Point,,,,,,,,,,,,,,,,,0,140,140,140,,,,,,,,,,,j,0.7126476250123233,,,14,2024-08-02_14h48.05.206,EPIDM,2023.1.2,None,
9400.jpg,9810.jpg,3 Points,2 Points,,,,,,,,,,,,,,,,,0,141,141,141,,,,,,,,,,,d,0.3002195421140641,,,14,2024-08-02_14h48.05.206,EPIDM,2023.1.2,None,
7270.jpg,7289.jpg,3 Points,0 Points,,,,,,,,,,,,,,,,,0,142,142,142,,,,,,,,,,,k,0.32621362525969744,,,14,2024-08-02_14h48.05.206,EPIDM,2023.1.2,None,
7502.jpg,9181.jpg,5 Points,0 Points,,,,,,,,,,,,,,,,,0,143,143,143,,,,,,,,,,,k,1.0354791672434658,,,14,2024-08-02_14h48.05.206,EPIDM,2023.1.2,None,
7490.jpg,8021.jpg,2 Points,4 Points,,,,,,,,,,,,,,,,,0,144,144,144,,,,,,,,,,,j,4.348674334120005,,,14,2024-08-02_14h48.05.206,EPIDM,2023.1.2,None,
9280.jpg,9424.jpg,1 Point,4 Points,,,,,,,,,,,,,,,,,0,145,145,145,,,,,,,,,,,k,5.132236249977723,,,14,2024-08-02_14h48.05.206,EPIDM,2023.1.2,None,
8230.jpg,9252.jpg,5 Points,1 Point,,,,,,,,,,,,,,,,,0,146,146,146,,,,,,,,,,,l,3.8985059182159603,,,14,2024-08-02_14h48.05.206,EPIDM,2023.1.2,None,
7235.jpg,9182.jpg,3 Points,2 Points,,,,,,,,,,,,,,,,,0,147,147,147,,,,,,,,,,,l,0.4145850839558989,,,14,2024-08-02_14h48.05.206,EPIDM,2023.1.2,None,
2440.jpg,7950.jpg,4 Points,1 Point,,,,,,,,,,,,,,,,,0,148,148,148,,,,,,,,,,,j,3.9857631262857467,,,14,2024-08-02_14h48.05.206,EPIDM,2023.1.2,None,
9620.jpg,1230.jpg,1 Point,4 Points,,,,,,,,,,,,,,,,,0,149,149,149,,,,,,,,,,,d,5.543623875128105,space,1.404007168021053,14,2024-08-02_14h48.05.206,EPIDM,2023.1.2,None,
9373.jpg,9402.jpg,0 Points,2 Points,,,,,,,,,,,,,,,,,0,150,150,150,,,,,,,,,,,k,2.477430417202413,,,14,2024-08-02_14h48.05.206,EPIDM,2023.1.2,None,
2716.jpg,3250.jpg,2 Points,3 Points,,,,,,,,,,,,,,,,,0,151,151,151,,,,,,,,,,,k,0.7347640842199326,,,14,2024-08-02_14h48.05.206,EPIDM,2023.1.2,None,
1301.jpg,3220.jpg,2 Points,5 Points,,,,,,,,,,,,,,,,,0,152,152,152,,,,,,,,,,,d,1.0938516682945192,,,14,2024-08-02_14h48.05.206,EPIDM,2023.1.2,None,
3053.jpg,7550.jpg,4 Points,1 Points,,,,,,,,,,,,,,,,,0,153,153,153,,,,,,,,,,,a,2.205693084280938,,,14,2024-08-02_14h48.05.206,EPIDM,2023.1.2,None,
2720.jpg,1610.jpg,4 Points,0 Points,,,,,,,,,,,,,,,,,0,154,154,154,,,,,,,,,,,j,5.336603125091642,,,14,2024-08-02_14h48.05.206,EPIDM,2023.1.2,None,
5991.jpg,5750.jpg,0 Points,5 Points,,,,,,,,,,,,,,,,,0,155,155,155,,,,,,,,,,,d,1.4286633760202676,,,14,2024-08-02_14h48.05.206,EPIDM,2023.1.2,None,
9430.jpg,9520.jpg,5 Points,3 Points,,,,,,,,,,,,,,,,,0,156,156,156,,,,,,,,,,,k,2.9304374591447413,,,14,2024-08-02_14h48.05.206,EPIDM,2023.1.2,None,
8531.jpg,7095.jpg,4 Points,1 Points,,,,,,,,,,,,,,,,,0,157,157,157,,,,,,,,,,,l,3.8898290432989597,,,14,2024-08-02_14h48.05.206,EPIDM,2023.1.2,None,
2516.jpg,1121.jpg,4 Points,0 Points,,,,,,,,,,,,,,,,,0,158,158,158,,,,,,,,,,,d,0.9526010842528194,,,14,2024-08-02_14h48.05.206,EPIDM,2023.1.2,None,
7004.jpg,1019.jpg,5 Points,0 Points,,,,,,,,,,,,,,,,,0,159,159,159,,,,,,,,,,,k,0.32372291712090373,,,14,2024-08-02_14h48.05.206,EPIDM,2023.1.2,None,
