L_Scene,R_Scene,L_Pts,R_Pts,Instructions_Loop.thisRepN,Instructions_Loop.thisTrialN,Instructions_Loop.thisN,Instructions_Loop.thisIndex,Redo_Instructions_Loop.thisRepN,Redo_Instructions_Loop.thisTrialN,Redo_Instructions_Loop.thisN,Redo_Instructions_Loop.thisIndex,Practice_Recognition_Loop.thisRepN,Practice_Recognition_Loop.thisTrialN,Practice_Recognition_Loop.thisN,Practice_Recognition_Loop.thisIndex,Practice_FB_Loop.thisRepN,Practice_FB_Loop.thisTrialN,Practice_FB_Loop.thisN,Practice_FB_Loop.thisIndex,RecStim_Loop.thisRepN,RecStim_Loop.thisTrialN,RecStim_Loop.thisN,RecStim_Loop.thisIndex,FB_Loop.thisRepN,FB_Loop.thisTrialN,FB_Loop.thisN,FB_Loop.thisIndex,RecBrk_Loop.thisRepN,RecBrk_Loop.thisTrialN,RecBrk_Loop.thisN,RecBrk_Loop.thisIndex,Transition_Enc.keys,Transition_Enc.rt,Encoding_Resp.keys,Encoding_Resp.rt,EncBrk_Resp.keys,EncBrk_Resp.rt,participant,date,expName,psychopyVersion,frameRate,
,,,,,,,,,,,,,,,,,,,,,,,,,,,,,,,,space,8.111272083129734,,,,,16,2024-08-23_13h16.59.175,EPIDM,2023.1.2,60.75181900429053,
F078.jpg,L130.jpg,,,,,,,,,,,0,0,0,0,,,,,,,,,,,,,,,,,,,s,3.50097637437284,,,16,2024-08-23_13h16.59.175,EPIDM,2023.1.2,60.75181900429053,
P036.jpg,P217.jpg,,,,,,,,,,,0,1,1,1,,,,,,,,,,,,,,,,,,,k,3.025747708044946,,,16,2024-08-23_13h16.59.175,EPIDM,2023.1.2,60.75181900429053,
O161.jpg,F218.jpg,,,,,,,,,,,0,2,2,2,,,,,,,,,,,,,,,,,,,j,7.181452082237229,,,16,2024-08-23_13h16.59.175,EPIDM,2023.1.2,60.75181900429053,
F279.jpg,A001.jpg,,,,,,,,,,,0,3,3,3,,,,,,,,,,,,,,,,,,,j,2.386091166175902,,,16,2024-08-23_13h16.59.175,EPIDM,2023.1.2,60.75181900429053,
F273.jpg,A060.jpg,,,,,,,,,,,0,4,4,4,,,,,,,,,,,,,,,,,,,d,6.326791375176981,,,16,2024-08-23_13h16.59.175,EPIDM,2023.1.2,60.75181900429053,
2393.jpg,L055.jpg,,,,,,,,,,,0,5,5,5,,,,,,,,,,,,,,,,,,,s,4.8668962912634015,,,16,2024-08-23_13h16.59.175,EPIDM,2023.1.2,60.75181900429053,
1812.jpg,2593.jpg,,,,,,,,,,,0,6,6,6,,,,,,,,,,,,,,,,,,,a,2.4066338753327727,,,16,2024-08-23_13h16.59.175,EPIDM,2023.1.2,60.75181900429053,
O013.jpg,A067.jpg,,,,,,,,,,,0,7,7,7,,,,,,,,,,,,,,,,,,,s,2.597681999206543,,,16,2024-08-23_13h16.59.175,EPIDM,2023.1.2,60.75181900429053,
P033.jpg,P034.jpg,,,,,,,,,,,0,8,8,8,,,,,,,,,,,,,,,,,,,d,2.1051562502980232,,,16,2024-08-23_13h16.59.175,EPIDM,2023.1.2,60.75181900429053,
A104.jpg,8186.jpg,,,,,,,,,,,0,9,9,9,,,,,,,,,,,,,,,,,,,k,5.036150291096419,,,16,2024-08-23_13h16.59.175,EPIDM,2023.1.2,60.75181900429053,
,,,,,,,,,,,,,,,,,,,,,,,,,,,,,,,,space,1.3581114162225276,,,,,16,2024-08-23_13h16.59.175,EPIDM,2023.1.2,60.75181900429053,
8041.jpg,6250.2.jpg,2 Points,3 Points,,,,,,,,,,,,,,,,,0,0,0,0,,,,,,,,,,,s,2.8819249160587788,,,16,2024-08-23_13h16.59.175,EPIDM,2023.1.2,60.75181900429053,
4500.jpg,5532.jpg,3 Points,2 Points,,,,,,,,,,,,,,,,,0,1,1,1,,,,,,,,,,,s,4.276633374160156,,,16,2024-08-23_13h16.59.175,EPIDM,2023.1.2,60.75181900429053,
6360.jpg,6834.jpg,1 Point,5 Points,,,,,,,,,,,,,,,,,0,2,2,2,,,,,,,,,,,k,4.208453291095793,,,16,2024-08-23_13h16.59.175,EPIDM,2023.1.2,60.75181900429053,
9921.jpg,1270.jpg,1 Points,4 Points,,,,,,,,,,,,,,,,,0,3,3,3,,,,,,,,,,,d,3.2071654160972685,,,16,2024-08-23_13h16.59.175,EPIDM,2023.1.2,60.75181900429053,
5220.jpg,7570.jpg,0 Points,5 Points,,,,,,,,,,,,,,,,,0,4,4,4,,,,,,,,,,,l,5.0690542492084205,,,16,2024-08-23_13h16.59.175,EPIDM,2023.1.2,60.75181900429053,
2890.jpg,2515.jpg,1 Points,4 Points,,,,,,,,,,,,,,,,,0,5,5,5,,,,,,,,,,,s,2.574175333371386,space,4.410827916115522,16,2024-08-23_13h16.59.175,EPIDM,2023.1.2,60.75181900429053,
5971.jpg,2750.jpg,5 Points,4 Points,,,,,,,,,,,,,,,,,0,6,6,6,,,,,,,,,,,j,5.045722166309133,,,16,2024-08-23_13h16.59.175,EPIDM,2023.1.2,60.75181900429053,
7500.jpg,6313.jpg,2 Points,3 Points,,,,,,,,,,,,,,,,,0,7,7,7,,,,,,,,,,,k,5.278962416108698,,,16,2024-08-23_13h16.59.175,EPIDM,2023.1.2,60.75181900429053,
9250.jpg,6840.jpg,0 Points,1 Points,,,,,,,,,,,,,,,,,0,8,8,8,,,,,,,,,,,k,4.573551916051656,,,16,2024-08-23_13h16.59.175,EPIDM,2023.1.2,60.75181900429053,
9220.jpg,7560.jpg,1 Point,4 Points,,,,,,,,,,,,,,,,,0,9,9,9,,,,,,,,,,,k,5.577018500305712,,,16,2024-08-23_13h16.59.175,EPIDM,2023.1.2,60.75181900429053,
2381.jpg,1313.jpg,1 Point,4 Points,,,,,,,,,,,,,,,,,0,10,10,10,,,,,,,,,,,s,6.94858158333227,,,16,2024-08-23_13h16.59.175,EPIDM,2023.1.2,60.75181900429053,
1932.jpg,9415.jpg,1 Points,4 Points,,,,,,,,,,,,,,,,,0,11,11,11,,,,,,,,,,,k,23.892826500115916,,,16,2024-08-23_13h16.59.175,EPIDM,2023.1.2,60.75181900429053,
6836.jpg,9411.jpg,4 Points,0 Points,,,,,,,,,,,,,,,,,0,12,12,12,,,,,,,,,,,s,5.234180707251653,,,16,2024-08-23_13h16.59.175,EPIDM,2023.1.2,60.75181900429053,
9253.jpg,5450.jpg,0 Points,5 Points,,,,,,,,,,,,,,,,,0,13,13,13,,,,,,,,,,,k,7.160927499178797,,,16,2024-08-23_13h16.59.175,EPIDM,2023.1.2,60.75181900429053,
1540.jpg,8185.jpg,1 Point,0 Points,,,,,,,,,,,,,,,,,0,14,14,14,,,,,,,,,,,a,3.986329666338861,,,16,2024-08-23_13h16.59.175,EPIDM,2023.1.2,60.75181900429053,
7006.jpg,6821.jpg,3 Points,2 Points,,,,,,,,,,,,,,,,,0,15,15,15,,,,,,,,,,,l,1.630992416292429,,,16,2024-08-23_13h16.59.175,EPIDM,2023.1.2,60.75181900429053,
1670.jpg,4274.jpg,3 Points,2 Points,,,,,,,,,,,,,,,,,0,16,16,16,,,,,,,,,,,l,8.620272249216214,,,16,2024-08-23_13h16.59.175,EPIDM,2023.1.2,60.75181900429053,
9156.jpg,7495.jpg,4 Points,1 Points,,,,,,,,,,,,,,,,,0,17,17,17,,,,,,,,,,,s,2.0550772910937667,,,16,2024-08-23_13h16.59.175,EPIDM,2023.1.2,60.75181900429053,
6910.jpg,9160.jpg,0 Points,4 Points,,,,,,,,,,,,,,,,,0,18,18,18,,,,,,,,,,,k,3.2265382912009954,,,16,2024-08-23_13h16.59.175,EPIDM,2023.1.2,60.75181900429053,
7096.jpg,1040.jpg,5 Points,0 Points,,,,,,,,,,,,,,,,,0,19,19,19,,,,,,,,,,,l,2.020612749271095,,,16,2024-08-23_13h16.59.175,EPIDM,2023.1.2,60.75181900429053,
6940.jpg,6241.jpg,2 Points,3 Points,,,,,,,,,,,,,,,,,0,20,20,20,,,,,,,,,,,d,3.4857483750674874,,,16,2024-08-23_13h16.59.175,EPIDM,2023.1.2,60.75181900429053,
1112.jpg,6415.jpg,3 Points,2 Points,,,,,,,,,,,,,,,,,0,21,21,21,,,,,,,,,,,d,2.2663333332166076,space,17.460466583026573,16,2024-08-23_13h16.59.175,EPIDM,2023.1.2,60.75181900429053,
1740.jpg,4533.jpg,0 Points,3 Points,,,,,,,,,,,,,,,,,0,22,22,22,,,,,,,,,,,s,3.9906982502434403,,,16,2024-08-23_13h16.59.175,EPIDM,2023.1.2,60.75181900429053,
7183.jpg,9433.jpg,4 Points,1 Point,,,,,,,,,,,,,,,,,0,23,23,23,,,,,,,,,,,k,2.1982860821299255,,,16,2024-08-23_13h16.59.175,EPIDM,2023.1.2,60.75181900429053,
9210.jpg,9290.jpg,1 Point,2 Points,,,,,,,,,,,,,,,,,0,24,24,24,,,,,,,,,,,k,4.096761416178197,,,16,2024-08-23_13h16.59.175,EPIDM,2023.1.2,60.75181900429053,
2850.jpg,7150.jpg,3 Points,2 Points,,,,,,,,,,,,,,,,,0,25,25,25,,,,,,,,,,,s,4.991051708115265,,,16,2024-08-23_13h16.59.175,EPIDM,2023.1.2,60.75181900429053,
2352.2.jpg,6530.jpg,0 Points,1 Point,,,,,,,,,,,,,,,,,0,26,26,26,,,,,,,,,,,l,1.4410769161768258,,,16,2024-08-23_13h16.59.175,EPIDM,2023.1.2,60.75181900429053,
3069.jpg,6314.jpg,3 Points,2 Points,,,,,,,,,,,,,,,,,0,27,27,27,,,,,,,,,,,k,0.8383495821617544,,,16,2024-08-23_13h16.59.175,EPIDM,2023.1.2,60.75181900429053,
8465.jpg,2490.jpg,1 Point,4 Points,,,,,,,,,,,,,,,,,0,28,28,28,,,,,,,,,,,j,2.851432666182518,,,16,2024-08-23_13h16.59.175,EPIDM,2023.1.2,60.75181900429053,
2880.jpg,7281.jpg,5 Points,0 Points,,,,,,,,,,,,,,,,,0,29,29,29,,,,,,,,,,,d,5.9101153742522,,,16,2024-08-23_13h16.59.175,EPIDM,2023.1.2,60.75181900429053,
4609.jpg,8161.jpg,2 Points,4 Points,,,,,,,,,,,,,,,,,0,30,30,30,,,,,,,,,,,a,2.7166700412053615,,,16,2024-08-23_13h16.59.175,EPIDM,2023.1.2,60.75181900429053,
7010.jpg,9040.jpg,2 Points,3 Points,,,,,,,,,,,,,,,,,0,31,31,31,,,,,,,,,,,k,2.6726143741980195,,,16,2024-08-23_13h16.59.175,EPIDM,2023.1.2,60.75181900429053,
3300.jpg,9000.jpg,0 Points,4 Points,,,,,,,,,,,,,,,,,0,32,32,32,,,,,,,,,,,d,2.2990354581270367,,,16,2024-08-23_13h16.59.175,EPIDM,2023.1.2,60.75181900429053,
6610.jpg,9911.jpg,0 Points,5 Points,,,,,,,,,,,,,,,,,0,33,33,33,,,,,,,,,,,l,2.473862583283335,,,16,2024-08-23_13h16.59.175,EPIDM,2023.1.2,60.75181900429053,
2752.jpg,7360.jpg,2 Points,1 Point,,,,,,,,,,,,,,,,,0,34,34,34,,,,,,,,,,,a,6.889377832179889,,,16,2024-08-23_13h16.59.175,EPIDM,2023.1.2,60.75181900429053,
7090.jpg,2690.jpg,4 Points,1 Point,,,,,,,,,,,,,,,,,0,35,35,35,,,,,,,,,,,d,2.1658572910819203,,,16,2024-08-23_13h16.59.175,EPIDM,2023.1.2,60.75181900429053,
4279.jpg,2030.jpg,5 Points,0 Points,,,,,,,,,,,,,,,,,0,36,36,36,,,,,,,,,,,a,2.9362136661075056,,,16,2024-08-23_13h16.59.175,EPIDM,2023.1.2,60.75181900429053,
9920.jpg,5950.jpg,5 Points,0 Points,,,,,,,,,,,,,,,,,0,37,37,37,,,,,,,,,,,a,1.5551785412244499,space,20.72677766624838,16,2024-08-23_13h16.59.175,EPIDM,2023.1.2,60.75181900429053,
9101.jpg,1945.jpg,2 Points,4 Points,,,,,,,,,,,,,,,,,0,38,38,38,,,,,,,,,,,a,5.093496208079159,,,16,2024-08-23_13h16.59.175,EPIDM,2023.1.2,60.75181900429053,
5626.jpg,7234.jpg,2 Points,3 Points,,,,,,,,,,,,,,,,,0,39,39,39,,,,,,,,,,,k,2.42061825026758,,,16,2024-08-23_13h16.59.175,EPIDM,2023.1.2,60.75181900429053,
9265.jpg,9041.jpg,0 Points,4 Points,,,,,,,,,,,,,,,,,0,40,40,40,,,,,,,,,,,j,4.528156000189483,,,16,2024-08-23_13h16.59.175,EPIDM,2023.1.2,60.75181900429053,
6250.1.jpg,7705.jpg,0 Points,5 Points,,,,,,,,,,,,,,,,,0,41,41,41,,,,,,,,,,,s,1.2230649581179023,,,16,2024-08-23_13h16.59.175,EPIDM,2023.1.2,60.75181900429053,
2280.jpg,2170.jpg,4 Points,2 Points,,,,,,,,,,,,,,,,,0,42,42,42,,,,,,,,,,,l,3.508556916145608,,,16,2024-08-23_13h16.59.175,EPIDM,2023.1.2,60.75181900429053,
7140.jpg,2702.jpg,0 Points,5 Points,,,,,,,,,,,,,,,,,0,43,43,43,,,,,,,,,,,k,2.050063750008121,,,16,2024-08-23_13h16.59.175,EPIDM,2023.1.2,60.75181900429053,
2870.jpg,8503.jpg,5 Points,2 Points,,,,,,,,,,,,,,,,,0,44,44,44,,,,,,,,,,,s,2.351928999181837,,,16,2024-08-23_13h16.59.175,EPIDM,2023.1.2,60.75181900429053,
6410.jpg,9830.jpg,1 Point,4 Points,,,,,,,,,,,,,,,,,0,45,45,45,,,,,,,,,,,s,1.964538416126743,,,16,2024-08-23_13h16.59.175,EPIDM,2023.1.2,60.75181900429053,
F149.jpg,P237.jpg,0 Points,2 Points,,,,,,,,,,,,,,,,,0,46,46,46,,,,,,,,,,,a,6.312867416301742,,,16,2024-08-23_13h16.59.175,EPIDM,2023.1.2,60.75181900429053,
9621.jpg,6838.jpg,0 Points,5 Points,,,,,,,,,,,,,,,,,0,47,47,47,,,,,,,,,,,k,0.9270739571657032,,,16,2024-08-23_13h16.59.175,EPIDM,2023.1.2,60.75181900429053,
9401.jpg,9110.jpg,2 Points,1 Point,,,,,,,,,,,,,,,,,0,48,48,48,,,,,,,,,,,d,3.8497704991605133,,,16,2024-08-23_13h16.59.175,EPIDM,2023.1.2,60.75181900429053,
1022.jpg,7031.jpg,1 Point,4 Points,,,,,,,,,,,,,,,,,0,49,49,49,,,,,,,,,,,a,1.0254814161453396,,,16,2024-08-23_13h16.59.175,EPIDM,2023.1.2,60.75181900429053,
8200.jpg,2722.jpg,4 Points,1 Points,,,,,,,,,,,,,,,,,0,50,50,50,,,,,,,,,,,a,1.0620475832838565,,,16,2024-08-23_13h16.59.175,EPIDM,2023.1.2,60.75181900429053,
7025.jpg,9584.jpg,3 Points,2 Points,,,,,,,,,,,,,,,,,0,51,51,51,,,,,,,,,,,l,3.4248278320301324,,,16,2024-08-23_13h16.59.175,EPIDM,2023.1.2,60.75181900429053,
1052.jpg,3180.jpg,3 Points,5 Points,,,,,,,,,,,,,,,,,0,52,52,52,,,,,,,,,,,a,1.796672249212861,,,16,2024-08-23_13h16.59.175,EPIDM,2023.1.2,60.75181900429053,
3210.jpg,7130.jpg,1 Point,4 Points,,,,,,,,,,,,,,,,,0,53,53,53,,,,,,,,,,,d,2.016432958189398,space,9.996679166099057,16,2024-08-23_13h16.59.175,EPIDM,2023.1.2,60.75181900429053,
7195.jpg,4598.jpg,2 Points,1 Point,,,,,,,,,,,,,,,,,0,54,54,54,,,,,,,,,,,k,2.8051164583303034,,,16,2024-08-23_13h16.59.175,EPIDM,2023.1.2,60.75181900429053,
7224.jpg,7920.jpg,2 Points,3 Points,,,,,,,,,,,,,,,,,0,55,55,55,,,,,,,,,,,k,2.723238958278671,,,16,2024-08-23_13h16.59.175,EPIDM,2023.1.2,60.75181900429053,
3100.jpg,6260.jpg,2 Points,3 Points,,,,,,,,,,,,,,,,,0,56,56,56,,,,,,,,,,,d,2.462073082337156,,,16,2024-08-23_13h16.59.175,EPIDM,2023.1.2,60.75181900429053,
8180.jpg,1603.jpg,4 Points,1 Points,,,,,,,,,,,,,,,,,0,57,57,57,,,,,,,,,,,d,3.3137524579651654,,,16,2024-08-23_13h16.59.175,EPIDM,2023.1.2,60.75181900429053,
5982.jpg,1602.jpg,5 Points,1 Point,,,,,,,,,,,,,,,,,0,58,58,58,,,,,,,,,,,a,2.100909166270867,,,16,2024-08-23_13h16.59.175,EPIDM,2023.1.2,60.75181900429053,
5890.jpg,5990.jpg,2 Points,3 Points,,,,,,,,,,,,,,,,,0,59,59,59,,,,,,,,,,,l,1.0128547071944922,,,16,2024-08-23_13h16.59.175,EPIDM,2023.1.2,60.75181900429053,
F158.jpg,7184.jpg,3 Points,4 Points,,,,,,,,,,,,,,,,,0,60,60,60,,,,,,,,,,,a,2.2193392501212656,,,16,2024-08-23_13h16.59.175,EPIDM,2023.1.2,60.75181900429053,
9440.jpg,1274.jpg,4 Points,1 Points,,,,,,,,,,,,,,,,,0,61,61,61,,,,,,,,,,,j,2.6319850410800427,,,16,2024-08-23_13h16.59.175,EPIDM,2023.1.2,60.75181900429053,
F032.jpg,1080.jpg,1 Point,4 Points,,,,,,,,,,,,,,,,,0,62,62,62,,,,,,,,,,,s,2.3960121241398156,,,16,2024-08-23_13h16.59.175,EPIDM,2023.1.2,60.75181900429053,
7233.jpg,1850.jpg,0 Points,5 Points,,,,,,,,,,,,,,,,,0,63,63,63,,,,,,,,,,,d,2.987911791075021,,,16,2024-08-23_13h16.59.175,EPIDM,2023.1.2,60.75181900429053,
9090.jpg,8340.jpg,3 Points,2 Points,,,,,,,,,,,,,,,,,0,64,64,64,,,,,,,,,,,j,3.585080958204344,,,16,2024-08-23_13h16.59.175,EPIDM,2023.1.2,60.75181900429053,
5020.jpg,5820.jpg,0 Points,5 Points,,,,,,,,,,,,,,,,,0,65,65,65,,,,,,,,,,,d,2.7290333330165595,,,16,2024-08-23_13h16.59.175,EPIDM,2023.1.2,60.75181900429053,
7280.jpg,5270.jpg,0 Points,4 Points,,,,,,,,,,,,,,,,,0,66,66,66,,,,,,,,,,,j,3.637548708356917,,,16,2024-08-23_13h16.59.175,EPIDM,2023.1.2,60.75181900429053,
5593.jpg,5600.jpg,0 Points,5 Points,,,,,,,,,,,,,,,,,0,67,67,67,,,,,,,,,,,k,5.172907666070387,,,16,2024-08-23_13h16.59.175,EPIDM,2023.1.2,60.75181900429053,
6831.jpg,6211.jpg,5 Points,3 Points,,,,,,,,,,,,,,,,,0,68,68,68,,,,,,,,,,,d,3.1718884161673486,,,16,2024-08-23_13h16.59.175,EPIDM,2023.1.2,60.75181900429053,
9190.jpg,7110.jpg,0 Points,5 Points,,,,,,,,,,,,,,,,,0,69,69,69,,,,,,,,,,,s,2.4371121663134545,space,23.92411358212121,16,2024-08-23_13h16.59.175,EPIDM,2023.1.2,60.75181900429053,
1113.jpg,6020.jpg,3 Points,2 Points,,,,,,,,,,,,,,,,,0,70,70,70,,,,,,,,,,,a,2.2699195821769536,,,16,2024-08-23_13h16.59.175,EPIDM,2023.1.2,60.75181900429053,
5900.jpg,7503.jpg,3 Points,2 Points,,,,,,,,,,,,,,,,,0,71,71,71,,,,,,,,,,,j,4.3583412491716444,,,16,2024-08-23_13h16.59.175,EPIDM,2023.1.2,60.75181900429053,
8300.jpg,1910.jpg,3 Points,2 Points,,,,,,,,,,,,,,,,,0,72,72,72,,,,,,,,,,,k,1.2117753741331398,,,16,2024-08-23_13h16.59.175,EPIDM,2023.1.2,60.75181900429053,
7282.jpg,5849.jpg,3 Points,2 Points,,,,,,,,,,,,,,,,,0,73,73,73,,,,,,,,,,,s,2.9104545831214637,,,16,2024-08-23_13h16.59.175,EPIDM,2023.1.2,60.75181900429053,
2260.jpg,2681.jpg,5 Points,3 Points,,,,,,,,,,,,,,,,,0,74,74,74,,,,,,,,,,,s,2.1412060821894556,,,16,2024-08-23_13h16.59.175,EPIDM,2023.1.2,60.75181900429053,
5629.jpg,5870.jpg,0 Points,5 Points,,,,,,,,,,,,,,,,,0,75,75,75,,,,,,,,,,,l,1.6579819582402706,,,16,2024-08-23_13h16.59.175,EPIDM,2023.1.2,60.75181900429053,
2717.jpg,3015.jpg,4 Points,5 Points,,,,,,,,,,,,,,,,,0,76,76,76,,,,,,,,,,,s,1.813714458141476,,,16,2024-08-23_13h16.59.175,EPIDM,2023.1.2,60.75181900429053,
7350.jpg,7286.jpg,0 Points,5 Points,,,,,,,,,,,,,,,,,0,77,77,77,,,,,,,,,,,d,4.498431374086067,,,16,2024-08-23_13h16.59.175,EPIDM,2023.1.2,60.75181900429053,
4100.jpg,4605.jpg,3 Points,4 Points,,,,,,,,,,,,,,,,,0,78,78,78,,,,,,,,,,,a,4.521747500170022,,,16,2024-08-23_13h16.59.175,EPIDM,2023.1.2,60.75181900429053,
7035.jpg,4660.jpg,1 Points,4 Points,,,,,,,,,,,,,,,,,0,79,79,79,,,,,,,,,,,l,2.5631140833720565,,,16,2024-08-23_13h16.59.175,EPIDM,2023.1.2,60.75181900429053,
8210.jpg,8460.jpg,3 Points,0 Points,,,,,,,,,,,,,,,,,0,80,80,80,,,,,,,,,,,k,2.8557667911518365,,,16,2024-08-23_13h16.59.175,EPIDM,2023.1.2,60.75181900429053,
4510.jpg,F252.jpg,5 Points,0 Points,,,,,,,,,,,,,,,,,0,81,81,81,,,,,,,,,,,a,0.8507840412203223,,,16,2024-08-23_13h16.59.175,EPIDM,2023.1.2,60.75181900429053,
7380.jpg,8231.jpg,1 Point,4 Points,,,,,,,,,,,,,,,,,0,82,82,82,,,,,,,,,,,k,2.2211971660144627,,,16,2024-08-23_13h16.59.175,EPIDM,2023.1.2,60.75181900429053,
5720.jpg,2383.jpg,3 Points,2 Points,,,,,,,,,,,,,,,,,0,83,83,83,,,,,,,,,,,j,2.15631741611287,,,16,2024-08-23_13h16.59.175,EPIDM,2023.1.2,60.75181900429053,
6560.jpg,9432.jpg,2 Points,5 Points,,,,,,,,,,,,,,,,,0,84,84,84,,,,,,,,,,,a,0.9044258752837777,,,16,2024-08-23_13h16.59.175,EPIDM,2023.1.2,60.75181900429053,
3181.jpg,9913.jpg,4 Points,1 Points,,,,,,,,,,,,,,,,,0,85,85,85,,,,,,,,,,,d,3.880393500206992,space,13.062783708097413,16,2024-08-23_13h16.59.175,EPIDM,2023.1.2,60.75181900429053,
7352.jpg,2240.jpg,2 Points,5 Points,,,,,,,,,,,,,,,,,0,86,86,86,,,,,,,,,,,l,1.0940586240030825,,,16,2024-08-23_13h16.59.175,EPIDM,2023.1.2,60.75181900429053,
2683.jpg,6010.jpg,3 Points,2 Points,,,,,,,,,,,,,,,,,0,87,87,87,,,,,,,,,,,k,1.9338533752597868,,,16,2024-08-23_13h16.59.175,EPIDM,2023.1.2,60.75181900429053,
4531.jpg,5621.jpg,5 Points,3 Points,,,,,,,,,,,,,,,,,0,88,88,88,,,,,,,,,,,a,0.9498299991246313,,,16,2024-08-23_13h16.59.175,EPIDM,2023.1.2,60.75181900429053,
8090.jpg,5831.jpg,2 Points,3 Points,,,,,,,,,,,,,,,,,0,89,89,89,,,,,,,,,,,a,0.8840769992675632,,,16,2024-08-23_13h16.59.175,EPIDM,2023.1.2,60.75181900429053,
9007.jpg,2900.jpg,0 Points,3 Points,,,,,,,,,,,,,,,,,0,90,90,90,,,,,,,,,,,l,6.944930124329403,,,16,2024-08-23_13h16.59.175,EPIDM,2023.1.2,60.75181900429053,
7034.jpg,2810.jpg,2 Points,3 Points,,,,,,,,,,,,,,,,,0,91,91,91,,,,,,,,,,,j,1.7866739162709564,,,16,2024-08-23_13h16.59.175,EPIDM,2023.1.2,60.75181900429053,
3500.jpg,6312.jpg,4 Points,2 Points,,,,,,,,,,,,,,,,,0,92,92,92,,,,,,,,,,,l,1.868824166012928,,,16,2024-08-23_13h16.59.175,EPIDM,2023.1.2,60.75181900429053,
6561.jpg,7211.jpg,2 Points,3 Points,,,,,,,,,,,,,,,,,0,93,93,93,,,,,,,,,,,a,0.961052083177492,,,16,2024-08-23_13h16.59.175,EPIDM,2023.1.2,60.75181900429053,
8350.jpg,5300.jpg,5 Points,1 Point,,,,,,,,,,,,,,,,,0,94,94,94,,,,,,,,,,,a,1.2285933322273195,,,16,2024-08-23_13h16.59.175,EPIDM,2023.1.2,60.75181900429053,
2500.jpg,2630.jpg,5 Points,0 Points,,,,,,,,,,,,,,,,,0,95,95,95,,,,,,,,,,,l,0.7920057913288474,,,16,2024-08-23_13h16.59.175,EPIDM,2023.1.2,60.75181900429053,
9404.jpg,6830.jpg,5 Points,4 Points,,,,,,,,,,,,,,,,,0,96,96,96,,,,,,,,,,,j,2.762877249158919,,,16,2024-08-23_13h16.59.175,EPIDM,2023.1.2,60.75181900429053,
5994.jpg,5700.jpg,0 Points,5 Points,,,,,,,,,,,,,,,,,0,97,97,97,,,,,,,,,,,a,3.1251448332332075,,,16,2024-08-23_13h16.59.175,EPIDM,2023.1.2,60.75181900429053,
2570.jpg,5120.jpg,3 Points,2 Points,,,,,,,,,,,,,,,,,0,98,98,98,,,,,,,,,,,d,3.5865418741013855,,,16,2024-08-23_13h16.59.175,EPIDM,2023.1.2,60.75181900429053,
7545.jpg,2389.jpg,5 Points,0 Points,,,,,,,,,,,,,,,,,0,99,99,99,,,,,,,,,,,l,1.2728803330101073,,,16,2024-08-23_13h16.59.175,EPIDM,2023.1.2,60.75181900429053,
2010.jpg,2092.jpg,5 Points,0 Points,,,,,,,,,,,,,,,,,0,100,100,100,,,,,,,,,,,d,6.645877290982753,,,16,2024-08-23_13h16.59.175,EPIDM,2023.1.2,60.75181900429053,
7184.jpg,9700.jpg,4 Points,1 Points,,,,,,,,,,,,,,,,,0,101,101,101,,,,,,,,,,,j,2.017815916100517,space,22.22510099923238,16,2024-08-23_13h16.59.175,EPIDM,2023.1.2,60.75181900429053,
9421.jpg,1051.jpg,2 Points,0 Points,,,,,,,,,,,,,,,,,0,102,102,102,,,,,,,,,,,l,2.671057416126132,,,16,2024-08-23_13h16.59.175,EPIDM,2023.1.2,60.75181900429053,
7182.jpg,7620.jpg,4 Points,1 Point,,,,,,,,,,,,,,,,,0,103,103,103,,,,,,,,,,,j,2.9756672082003206,,,16,2024-08-23_13h16.59.175,EPIDM,2023.1.2,60.75181900429053,
4608.jpg,2514.jpg,1 Point,5 Points,,,,,,,,,,,,,,,,,0,104,104,104,,,,,,,,,,,a,1.6721578740980476,,,16,2024-08-23_13h16.59.175,EPIDM,2023.1.2,60.75181900429053,
2594.jpg,5470.jpg,0 Points,5 Points,,,,,,,,,,,,,,,,,0,105,105,105,,,,,,,,,,,l,4.050829166080803,,,16,2024-08-23_13h16.59.175,EPIDM,2023.1.2,60.75181900429053,
6242.jpg,3530.jpg,4 Points,1 Point,,,,,,,,,,,,,,,,,0,106,106,106,,,,,,,,,,,s,2.1539174572099,,,16,2024-08-23_13h16.59.175,EPIDM,2023.1.2,60.75181900429053,
5731.jpg,2606.jpg,4 Points,1 Point,,,,,,,,,,,,,,,,,0,107,107,107,,,,,,,,,,,d,3.6062599571887404,,,16,2024-08-23_13h16.59.175,EPIDM,2023.1.2,60.75181900429053,
1650.jpg,7237.jpg,1 Points,4 Points,,,,,,,,,,,,,,,,,0,108,108,108,,,,,,,,,,,a,3.0372510412707925,,,16,2024-08-23_13h16.59.175,EPIDM,2023.1.2,60.75181900429053,
4275.jpg,5920.jpg,3 Points,2 Points,,,,,,,,,,,,,,,,,0,109,109,109,,,,,,,,,,,a,0.5750441662967205,,,16,2024-08-23_13h16.59.175,EPIDM,2023.1.2,60.75181900429053,
8220.jpg,4689.jpg,4 Points,5 Points,,,,,,,,,,,,,,,,,0,110,110,110,,,,,,,,,,,l,1.1579031241126359,,,16,2024-08-23_13h16.59.175,EPIDM,2023.1.2,60.75181900429053,
7040.jpg,P077.jpg,4 Points,1 Point,,,,,,,,,,,,,,,,,0,111,111,111,,,,,,,,,,,j,1.7402093750424683,,,16,2024-08-23_13h16.59.175,EPIDM,2023.1.2,60.75181900429053,
6510.jpg,3120.jpg,2 Points,5 Points,,,,,,,,,,,,,,,,,0,112,112,112,,,,,,,,,,,j,1.457269374281168,,,16,2024-08-23_13h16.59.175,EPIDM,2023.1.2,60.75181900429053,
3060.jpg,7217.jpg,1 Point,4 Points,,,,,,,,,,,,,,,,,0,113,113,113,,,,,,,,,,,j,1.5718820833135396,,,16,2024-08-23_13h16.59.175,EPIDM,2023.1.2,60.75181900429053,
3064.jpg,9070.jpg,4 Points,2 Points,,,,,,,,,,,,,,,,,0,114,114,114,,,,,,,,,,,k,0.9369164991658181,,,16,2024-08-23_13h16.59.175,EPIDM,2023.1.2,60.75181900429053,
7207.jpg,2320.jpg,1 Points,4 Points,,,,,,,,,,,,,,,,,0,115,115,115,,,,,,,,,,,d,4.259707125136629,,,16,2024-08-23_13h16.59.175,EPIDM,2023.1.2,60.75181900429053,
1640.jpg,1720.jpg,3 Points,4 Points,,,,,,,,,,,,,,,,,0,116,116,116,,,,,,,,,,,l,1.4409284160938114,,,16,2024-08-23_13h16.59.175,EPIDM,2023.1.2,60.75181900429053,
1050.jpg,7030.jpg,4 Points,1 Points,,,,,,,,,,,,,,,,,0,117,117,117,,,,,,,,,,,a,0.7745146253146231,space,21.79179483326152,16,2024-08-23_13h16.59.175,EPIDM,2023.1.2,60.75181900429053,
2020.jpg,4535.jpg,5 Points,1 Point,,,,,,,,,,,,,,,,,0,118,118,118,,,,,,,,,,,a,2.5931605831719935,,,16,2024-08-23_13h16.59.175,EPIDM,2023.1.2,60.75181900429053,
7020.jpg,2206.jpg,5 Points,0 Points,,,,,,,,,,,,,,,,,0,119,119,119,,,,,,,,,,,j,2.763349750312045,,,16,2024-08-23_13h16.59.175,EPIDM,2023.1.2,60.75181900429053,
9042.jpg,1090.jpg,0 Points,5 Points,,,,,,,,,,,,,,,,,0,120,120,120,,,,,,,,,,,l,0.8315818752162158,,,16,2024-08-23_13h16.59.175,EPIDM,2023.1.2,60.75181900429053,
6210.jpg,7080.jpg,1 Point,4 Points,,,,,,,,,,,,,,,,,0,121,121,121,,,,,,,,,,,d,3.302730791270733,,,16,2024-08-23_13h16.59.175,EPIDM,2023.1.2,60.75181900429053,
2110.jpg,8280.jpg,5 Points,3 Points,,,,,,,,,,,,,,,,,0,122,122,122,,,,,,,,,,,l,3.395410541212186,,,16,2024-08-23_13h16.59.175,EPIDM,2023.1.2,60.75181900429053,
5740.jpg,7205.jpg,0 Points,5 Points,,,,,,,,,,,,,,,,,0,123,123,123,,,,,,,,,,,d,1.5498419573996216,,,16,2024-08-23_13h16.59.175,EPIDM,2023.1.2,60.75181900429053,
1660.jpg,8040.jpg,2 Points,1 Point,,,,,,,,,,,,,,,,,0,124,124,124,,,,,,,,,,,a,2.6762079992331564,,,16,2024-08-23_13h16.59.175,EPIDM,2023.1.2,60.75181900429053,
5410.jpg,5530.jpg,5 Points,0 Points,,,,,,,,,,,,,,,,,0,125,125,125,,,,,,,,,,,d,1.9883382071275264,,,16,2024-08-23_13h16.59.175,EPIDM,2023.1.2,60.75181900429053,
6540.jpg,9008.jpg,3 Points,1 Point,,,,,,,,,,,,,,,,,0,126,126,126,,,,,,,,,,,a,1.3132683741860092,,,16,2024-08-23_13h16.59.175,EPIDM,2023.1.2,60.75181900429053,
5628.jpg,5201.jpg,5 Points,0 Points,,,,,,,,,,,,,,,,,0,127,127,127,,,,,,,,,,,d,1.8226140411570668,,,16,2024-08-23_13h16.59.175,EPIDM,2023.1.2,60.75181900429053,
4250.jpg,2499.jpg,5 Points,3 Points,,,,,,,,,,,,,,,,,0,128,128,128,,,,,,,,,,,a,1.1746749570593238,,,16,2024-08-23_13h16.59.175,EPIDM,2023.1.2,60.75181900429053,
2512.jpg,7050.jpg,1 Point,4 Points,,,,,,,,,,,,,,,,,0,129,129,129,,,,,,,,,,,d,0.940668499097228,,,16,2024-08-23_13h16.59.175,EPIDM,2023.1.2,60.75181900429053,
4621.jpg,9270.jpg,2 Points,0 Points,,,,,,,,,,,,,,,,,0,130,130,130,,,,,,,,,,,d,2.022309124004096,,,16,2024-08-23_13h16.59.175,EPIDM,2023.1.2,60.75181900429053,
5910.jpg,5800.jpg,5 Points,0 Points,,,,,,,,,,,,,,,,,0,131,131,131,,,,,,,,,,,j,2.509974707150832,,,16,2024-08-23_13h16.59.175,EPIDM,2023.1.2,60.75181900429053,
1300.jpg,6200.jpg,2 Points,5 Points,,,,,,,,,,,,,,,,,0,132,132,132,,,,,,,,,,,j,6.050324041163549,,,16,2024-08-23_13h16.59.175,EPIDM,2023.1.2,60.75181900429053,
4233.jpg,5875.jpg,5 Points,0 Points,,,,,,,,,,,,,,,,,0,133,133,133,,,,,,,,,,,a,0.9725723322480917,space,22.76922920718789,16,2024-08-23_13h16.59.175,EPIDM,2023.1.2,60.75181900429053,
2270.jpg,1303.jpg,2 Points,0 Points,,,,,,,,,,,,,,,,,0,134,134,134,,,,,,,,,,,a,1.4802444162778556,,,16,2024-08-23_13h16.59.175,EPIDM,2023.1.2,60.75181900429053,
9600.jpg,7640.jpg,5 Points,0 Points,,,,,,,,,,,,,,,,,0,135,135,135,,,,,,,,,,,k,1.2213202081620693,,,16,2024-08-23_13h16.59.175,EPIDM,2023.1.2,60.75181900429053,
1810.jpg,2616.jpg,3 Points,4 Points,,,,,,,,,,,,,,,,,0,136,136,136,,,,,,,,,,,a,0.679830166278407,,,16,2024-08-23_13h16.59.175,EPIDM,2023.1.2,60.75181900429053,
9046.jpg,9630.jpg,3 Points,2 Points,,,,,,,,,,,,,,,,,0,137,137,137,,,,,,,,,,,d,2.506323375273496,,,16,2024-08-23_13h16.59.175,EPIDM,2023.1.2,60.75181900429053,
9560.jpg,2700.jpg,1 Point,3 Points,,,,,,,,,,,,,,,,,0,138,138,138,,,,,,,,,,,j,1.2410069161560386,,,16,2024-08-23_13h16.59.175,EPIDM,2023.1.2,60.75181900429053,
7000.jpg,1321.jpg,2 Points,3 Points,,,,,,,,,,,,,,,,,0,139,139,139,,,,,,,,,,,l,0.790991583140567,,,16,2024-08-23_13h16.59.175,EPIDM,2023.1.2,60.75181900429053,
9331.jpg,1275.jpg,2 Points,1 Point,,,,,,,,,,,,,,,,,0,140,140,140,,,,,,,,,,,d,2.321452375035733,,,16,2024-08-23_13h16.59.175,EPIDM,2023.1.2,60.75181900429053,
9470.jpg,9810.jpg,3 Points,2 Points,,,,,,,,,,,,,,,,,0,141,141,141,,,,,,,,,,,d,1.3221464580856264,,,16,2024-08-23_13h16.59.175,EPIDM,2023.1.2,60.75181900429053,
7270.jpg,4534.jpg,3 Points,0 Points,,,,,,,,,,,,,,,,,0,142,142,142,,,,,,,,,,,j,0.7831024574115872,,,16,2024-08-23_13h16.59.175,EPIDM,2023.1.2,60.75181900429053,
7502.jpg,9230.jpg,5 Points,0 Points,,,,,,,,,,,,,,,,,0,143,143,143,,,,,,,,,,,d,1.4080081663560122,,,16,2024-08-23_13h16.59.175,EPIDM,2023.1.2,60.75181900429053,
7490.jpg,8021.jpg,2 Points,4 Points,,,,,,,,,,,,,,,,,0,144,144,144,,,,,,,,,,,s,2.4379993330221623,,,16,2024-08-23_13h16.59.175,EPIDM,2023.1.2,60.75181900429053,
9280.jpg,9424.jpg,1 Point,4 Points,,,,,,,,,,,,,,,,,0,145,145,145,,,,,,,,,,,j,2.529418333200738,,,16,2024-08-23_13h16.59.175,EPIDM,2023.1.2,60.75181900429053,
8230.jpg,9252.jpg,5 Points,1 Point,,,,,,,,,,,,,,,,,0,146,146,146,,,,,,,,,,,k,1.7786208752077073,,,16,2024-08-23_13h16.59.175,EPIDM,2023.1.2,60.75181900429053,
7235.jpg,9182.jpg,3 Points,2 Points,,,,,,,,,,,,,,,,,0,147,147,147,,,,,,,,,,,s,3.879145333310589,,,16,2024-08-23_13h16.59.175,EPIDM,2023.1.2,60.75181900429053,
2440.jpg,7187.jpg,4 Points,1 Point,,,,,,,,,,,,,,,,,0,148,148,148,,,,,,,,,,,s,3.3219150411896408,,,16,2024-08-23_13h16.59.175,EPIDM,2023.1.2,60.75181900429053,
9001.jpg,1230.jpg,1 Point,4 Points,,,,,,,,,,,,,,,,,0,149,149,149,,,,,,,,,,,j,1.7958886241540313,space,31.503883625147864,16,2024-08-23_13h16.59.175,EPIDM,2023.1.2,60.75181900429053,
9410.jpg,1280.jpg,0 Points,2 Points,,,,,,,,,,,,,,,,,0,150,150,150,,,,,,,,,,,k,2.2049714161548764,,,16,2024-08-23_13h16.59.175,EPIDM,2023.1.2,60.75181900429053,
2716.jpg,A053.jpg,2 Points,3 Points,,,,,,,,,,,,,,,,,0,151,151,151,,,,,,,,,,,l,1.8149495413526893,,,16,2024-08-23_13h16.59.175,EPIDM,2023.1.2,60.75181900429053,
1070.jpg,3220.jpg,2 Points,5 Points,,,,,,,,,,,,,,,,,0,152,152,152,,,,,,,,,,,d,1.3852632080670446,,,16,2024-08-23_13h16.59.175,EPIDM,2023.1.2,60.75181900429053,
2205.jpg,7550.jpg,4 Points,1 Points,,,,,,,,,,,,,,,,,0,153,153,153,,,,,,,,,,,a,2.29591012513265,,,16,2024-08-23_13h16.59.175,EPIDM,2023.1.2,60.75181900429053,
4613.jpg,1610.jpg,4 Points,0 Points,,,,,,,,,,,,,,,,,0,154,154,154,,,,,,,,,,,a,3.2679515830241144,,,16,2024-08-23_13h16.59.175,EPIDM,2023.1.2,60.75181900429053,
5991.jpg,5594.jpg,0 Points,5 Points,,,,,,,,,,,,,,,,,0,155,155,155,,,,,,,,,,,l,2.757677416317165,,,16,2024-08-23_13h16.59.175,EPIDM,2023.1.2,60.75181900429053,
9430.jpg,1931.jpg,5 Points,3 Points,,,,,,,,,,,,,,,,,0,156,156,156,,,,,,,,,,,k,1.5607017911970615,,,16,2024-08-23_13h16.59.175,EPIDM,2023.1.2,60.75181900429053,
6900.jpg,7095.jpg,4 Points,1 Points,,,,,,,,,,,,,,,,,0,157,157,157,,,,,,,,,,,d,1.3932858752086759,,,16,2024-08-23_13h16.59.175,EPIDM,2023.1.2,60.75181900429053,
2516.jpg,1121.jpg,4 Points,0 Points,,,,,,,,,,,,,,,,,0,158,158,158,,,,,,,,,,,j,1.841271750163287,,,16,2024-08-23_13h16.59.175,EPIDM,2023.1.2,60.75181900429053,
7004.jpg,2120.jpg,5 Points,0 Points,,,,,,,,,,,,,,,,,0,159,159,159,,,,,,,,,,,d,1.7055853332858533,,,16,2024-08-23_13h16.59.175,EPIDM,2023.1.2,60.75181900429053,
