L_Scene,R_Scene,L_Pts,R_Pts,Instructions_Loop.thisRepN,Instructions_Loop.thisTrialN,Instructions_Loop.thisN,Instructions_Loop.thisIndex,Redo_Instructions_Loop.thisRepN,Redo_Instructions_Loop.thisTrialN,Redo_Instructions_Loop.thisN,Redo_Instructions_Loop.thisIndex,Practice_Recognition_Loop.thisRepN,Practice_Recognition_Loop.thisTrialN,Practice_Recognition_Loop.thisN,Practice_Recognition_Loop.thisIndex,Practice_FB_Loop.thisRepN,Practice_FB_Loop.thisTrialN,Practice_FB_Loop.thisN,Practice_FB_Loop.thisIndex,RecStim_Loop.thisRepN,RecStim_Loop.thisTrialN,RecStim_Loop.thisN,RecStim_Loop.thisIndex,FB_Loop.thisRepN,FB_Loop.thisTrialN,FB_Loop.thisN,FB_Loop.thisIndex,RecBrk_Loop.thisRepN,RecBrk_Loop.thisTrialN,RecBrk_Loop.thisN,RecBrk_Loop.thisIndex,Transition_Enc.keys,Transition_Enc.rt,Encoding_Resp.keys,Encoding_Resp.rt,EncBrk_Resp.keys,EncBrk_Resp.rt,participant,date,expName,psychopyVersion,frameRate,
,,,,,,,,,,,,,,,,,,,,,,,,,,,,,,,,space,8.769300041953102,,,,,1,2024-06-28_11h38.37.528,EPIDM,2023.1.2,59.82457937508952,
F078.jpg,L130.jpg,,,,,,,,,,,0,0,0,0,,,,,,,,,,,,,,,,,,,l,2.237680000020191,,,1,2024-06-28_11h38.37.528,EPIDM,2023.1.2,59.82457937508952,
P036.jpg,P217.jpg,,,,,,,,,,,0,1,1,1,,,,,,,,,,,,,,,,,,,a,2.307471500011161,,,1,2024-06-28_11h38.37.528,EPIDM,2023.1.2,59.82457937508952,
O161.jpg,F218.jpg,,,,,,,,,,,0,2,2,2,,,,,,,,,,,,,,,,,,,s,2.1257699580164626,,,1,2024-06-28_11h38.37.528,EPIDM,2023.1.2,59.82457937508952,
F279.jpg,A001.jpg,,,,,,,,,,,0,3,3,3,,,,,,,,,,,,,,,,,,,k,2.2016303329728544,,,1,2024-06-28_11h38.37.528,EPIDM,2023.1.2,59.82457937508952,
F273.jpg,A060.jpg,,,,,,,,,,,0,4,4,4,,,,,,,,,,,,,,,,,,,k,2.3334547500126064,,,1,2024-06-28_11h38.37.528,EPIDM,2023.1.2,59.82457937508952,
2393.jpg,L055.jpg,,,,,,,,,,,0,5,5,5,,,,,,,,,,,,,,,,,,,s,3.0596504990244284,,,1,2024-06-28_11h38.37.528,EPIDM,2023.1.2,59.82457937508952,
1812.jpg,2593.jpg,,,,,,,,,,,0,6,6,6,,,,,,,,,,,,,,,,,,,k,1.7907846249872819,,,1,2024-06-28_11h38.37.528,EPIDM,2023.1.2,59.82457937508952,
O013.jpg,A067.jpg,,,,,,,,,,,0,7,7,7,,,,,,,,,,,,,,,,,,,s,3.480633790954016,,,1,2024-06-28_11h38.37.528,EPIDM,2023.1.2,59.82457937508952,
P033.jpg,P034.jpg,,,,,,,,,,,0,8,8,8,,,,,,,,,,,,,,,,,,,j,3.5759468749165535,,,1,2024-06-28_11h38.37.528,EPIDM,2023.1.2,59.82457937508952,
A104.jpg,8186.jpg,,,,,,,,,,,0,9,9,9,,,,,,,,,,,,,,,,,,,l,2.338640750036575,,,1,2024-06-28_11h38.37.528,EPIDM,2023.1.2,59.82457937508952,
,,,,,,,,,,,,,,,,,,,,,,,,,,,,,,,,space,7.424668792053126,,,,,1,2024-06-28_11h38.37.528,EPIDM,2023.1.2,59.82457937508952,
8041.jpg,6250.2.jpg,2 Points,3 Points,,,,,,,,,,,,,,,,,0,0,0,0,,,,,,,,,,,a,3.2755959579953924,,,1,2024-06-28_11h38.37.528,EPIDM,2023.1.2,59.82457937508952,
1019.jpg,7004.jpg,0 Points,5 Points,,,,,,,,,,,,,,,,,0,1,1,1,,,,,,,,,,,d,3.4060432909755036,,,1,2024-06-28_11h38.37.528,EPIDM,2023.1.2,59.82457937508952,
6360.jpg,9120.jpg,1 Point,5 Points,,,,,,,,,,,,,,,,,0,2,2,2,,,,,,,,,,,l,3.075445792055689,,,1,2024-06-28_11h38.37.528,EPIDM,2023.1.2,59.82457937508952,
7095.jpg,8531.jpg,1 Points,4 Points,,,,,,,,,,,,,,,,,0,3,3,3,,,,,,,,,,,d,5.802215915988199,,,1,2024-06-28_11h38.37.528,EPIDM,2023.1.2,59.82457937508952,
5220.jpg,7570.jpg,0 Points,5 Points,,,,,,,,,,,,,,,,,0,4,4,4,,,,,,,,,,,l,2.7031530829844996,,,1,2024-06-28_11h38.37.528,EPIDM,2023.1.2,59.82457937508952,
5750.jpg,5991.jpg,5 Points,0 Points,,,,,,,,,,,,,,,,,0,5,5,5,,,,,,,,,,,a,1.8210715829627588,space,7.212585999048315,1,2024-06-28_11h38.37.528,EPIDM,2023.1.2,59.82457937508952,
5971.jpg,9050.jpg,5 Points,4 Points,,,,,,,,,,,,,,,,,0,6,6,6,,,,,,,,,,,d,3.7975644159596413,,,1,2024-06-28_11h38.37.528,EPIDM,2023.1.2,59.82457937508952,
7550.jpg,2205.jpg,1 Points,4 Points,,,,,,,,,,,,,,,,,0,7,7,7,,,,,,,,,,,s,3.8020957919070497,,,1,2024-06-28_11h38.37.528,EPIDM,2023.1.2,59.82457937508952,
9480.jpg,6840.jpg,0 Points,1 Points,,,,,,,,,,,,,,,,,0,8,8,8,,,,,,,,,,,j,5.39979575003963,,,1,2024-06-28_11h38.37.528,EPIDM,2023.1.2,59.82457937508952,
3250.jpg,2716.jpg,3 Points,2 Points,,,,,,,,,,,,,,,,,0,9,9,9,,,,,,,,,,,d,5.591625125030987,,,1,2024-06-28_11h38.37.528,EPIDM,2023.1.2,59.82457937508952,
2381.jpg,1313.jpg,1 Point,4 Points,,,,,,,,,,,,,,,,,0,10,10,10,,,,,,,,,,,k,3.094037291011773,,,1,2024-06-28_11h38.37.528,EPIDM,2023.1.2,59.82457937508952,
1230.jpg,9001.jpg,4 Points,1 Point,,,,,,,,,,,,,,,,,0,11,11,11,,,,,,,,,,,k,3.1316207910422236,,,1,2024-06-28_11h38.37.528,EPIDM,2023.1.2,59.82457937508952,
6000.jpg,9411.jpg,4 Points,0 Points,,,,,,,,,,,,,,,,,0,12,12,12,,,,,,,,,,,s,3.935757457977161,,,1,2024-06-28_11h38.37.528,EPIDM,2023.1.2,59.82457937508952,
7186.jpg,7235.jpg,2 Points,3 Points,,,,,,,,,,,,,,,,,0,13,13,13,,,,,,,,,,,s,5.091690000030212,,,1,2024-06-28_11h38.37.528,EPIDM,2023.1.2,59.82457937508952,
1540.jpg,8185.jpg,1 Point,0 Points,,,,,,,,,,,,,,,,,0,14,14,14,,,,,,,,,,,l,2.296753583010286,,,1,2024-06-28_11h38.37.528,EPIDM,2023.1.2,59.82457937508952,
9424.jpg,9390.jpg,4 Points,1 Point,,,,,,,,,,,,,,,,,0,15,15,15,,,,,,,,,,,j,4.044526248937473,,,1,2024-06-28_11h38.37.528,EPIDM,2023.1.2,59.82457937508952,
5030.jpg,8160.jpg,3 Points,2 Points,,,,,,,,,,,,,,,,,0,16,16,16,,,,,,,,,,,s,4.007594000082463,,,1,2024-06-28_11h38.37.528,EPIDM,2023.1.2,59.82457937508952,
9230.jpg,7502.jpg,0 Points,5 Points,,,,,,,,,,,,,,,,,0,17,17,17,,,,,,,,,,,l,4.672746125026606,,,1,2024-06-28_11h38.37.528,EPIDM,2023.1.2,59.82457937508952,
6910.jpg,1200.jpg,0 Points,4 Points,,,,,,,,,,,,,,,,,0,18,18,18,,,,,,,,,,,l,3.410527041996829,,,1,2024-06-28_11h38.37.528,EPIDM,2023.1.2,59.82457937508952,
9810.jpg,9470.jpg,2 Points,3 Points,,,,,,,,,,,,,,,,,0,19,19,19,,,,,,,,,,,d,7.0099645419977605,,,1,2024-06-28_11h38.37.528,EPIDM,2023.1.2,59.82457937508952,
9910.jpg,6241.jpg,2 Points,3 Points,,,,,,,,,,,,,,,,,0,20,20,20,,,,,,,,,,,d,4.414300041040406,,,1,2024-06-28_11h38.37.528,EPIDM,2023.1.2,59.82457937508952,
1661.jpg,7000.jpg,3 Points,2 Points,,,,,,,,,,,,,,,,,0,21,21,21,,,,,,,,,,,k,5.699448457919061,space,7.953557749977335,1,2024-06-28_11h38.37.528,EPIDM,2023.1.2,59.82457937508952,
7480.jpg,4533.jpg,0 Points,3 Points,,,,,,,,,,,,,,,,,0,22,22,22,,,,,,,,,,,k,3.897826583008282,,,1,2024-06-28_11h38.37.528,EPIDM,2023.1.2,59.82457937508952,
9630.jpg,9046.jpg,2 Points,3 Points,,,,,,,,,,,,,,,,,0,23,23,23,,,,,,,,,,,d,5.438787291990593,,,1,2024-06-28_11h38.37.528,EPIDM,2023.1.2,59.82457937508952,
9210.jpg,9290.jpg,1 Point,2 Points,,,,,,,,,,,,,,,,,0,24,24,24,,,,,,,,,,,d,3.982399916043505,,,1,2024-06-28_11h38.37.528,EPIDM,2023.1.2,59.82457937508952,
7640.jpg,9600.jpg,0 Points,5 Points,,,,,,,,,,,,,,,,,0,25,25,25,,,,,,,,,,,s,4.865899916971102,,,1,2024-06-28_11h38.37.528,EPIDM,2023.1.2,59.82457937508952,
3022.jpg,9417.jpg,0 Points,1 Point,,,,,,,,,,,,,,,,,0,26,26,26,,,,,,,,,,,d,3.6460840000072494,,,1,2024-06-28_11h38.37.528,EPIDM,2023.1.2,59.82457937508952,
5875.jpg,7285.jpg,0 Points,5 Points,,,,,,,,,,,,,,,,,0,27,27,27,,,,,,,,,,,s,4.765326958033256,,,1,2024-06-28_11h38.37.528,EPIDM,2023.1.2,59.82457937508952,
8465.jpg,2590.jpg,1 Point,4 Points,,,,,,,,,,,,,,,,,0,28,28,28,,,,,,,,,,,s,3.8674959579948336,,,1,2024-06-28_11h38.37.528,EPIDM,2023.1.2,59.82457937508952,
5800.jpg,5910.jpg,0 Points,5 Points,,,,,,,,,,,,,,,,,0,29,29,29,,,,,,,,,,,a,2.9147300409385934,,,1,2024-06-28_11h38.37.528,EPIDM,2023.1.2,59.82457937508952,
8311.jpg,1900.jpg,2 Points,4 Points,,,,,,,,,,,,,,,,,0,30,30,30,,,,,,,,,,,k,2.8960182500304654,,,1,2024-06-28_11h38.37.528,EPIDM,2023.1.2,59.82457937508952,
7050.jpg,2512.jpg,4 Points,1 Point,,,,,,,,,,,,,,,,,0,31,31,31,,,,,,,,,,,j,6.494257375015877,,,1,2024-06-28_11h38.37.528,EPIDM,2023.1.2,59.82457937508952,
5970.jpg,9000.jpg,0 Points,4 Points,,,,,,,,,,,,,,,,,0,32,32,32,,,,,,,,,,,k,5.061815083026886,,,1,2024-06-28_11h38.37.528,EPIDM,2023.1.2,59.82457937508952,
5201.jpg,5628.jpg,0 Points,5 Points,,,,,,,,,,,,,,,,,0,33,33,33,,,,,,,,,,,a,3.9317142500076443,,,1,2024-06-28_11h38.37.528,EPIDM,2023.1.2,59.82457937508952,
6243.jpg,7360.jpg,2 Points,1 Point,,,,,,,,,,,,,,,,,0,34,34,34,,,,,,,,,,,k,3.587531500030309,,,1,2024-06-28_11h38.37.528,EPIDM,2023.1.2,59.82457937508952,
5530.jpg,1450.jpg,0 Points,5 Points,,,,,,,,,,,,,,,,,0,35,35,35,,,,,,,,,,,l,2.2412947500124574,,,1,2024-06-28_11h38.37.528,EPIDM,2023.1.2,59.82457937508952,
4279.jpg,2030.jpg,5 Points,0 Points,,,,,,,,,,,,,,,,,0,36,36,36,,,,,,,,,,,d,5.315665666013956,,,1,2024-06-28_11h38.37.528,EPIDM,2023.1.2,59.82457937508952,
7205.jpg,5740.jpg,5 Points,0 Points,,,,,,,,,,,,,,,,,0,37,37,37,,,,,,,,,,,k,4.6939126659417525,space,9.410747873946093,1,2024-06-28_11h38.37.528,EPIDM,2023.1.2,59.82457937508952,
9101.jpg,1945.jpg,2 Points,4 Points,,,,,,,,,,,,,,,,,0,38,38,38,,,,,,,,,,,k,3.0931591249536723,,,1,2024-06-28_11h38.37.528,EPIDM,2023.1.2,59.82457937508952,
7080.jpg,3160.jpg,4 Points,1 Point,,,,,,,,,,,,,,,,,0,39,39,39,,,,,,,,,,,d,3.950949623947963,,,1,2024-06-28_11h38.37.528,EPIDM,2023.1.2,59.82457937508952,
9265.jpg,9041.jpg,0 Points,4 Points,,,,,,,,,,,,,,,,,0,40,40,40,,,,,,,,,,,k,6.101512167020701,,,1,2024-06-28_11h38.37.528,EPIDM,2023.1.2,59.82457937508952,
6150.jpg,7020.jpg,0 Points,5 Points,,,,,,,,,,,,,,,,,0,41,41,41,,,,,,,,,,,l,1.9710308749927208,,,1,2024-06-28_11h38.37.528,EPIDM,2023.1.2,59.82457937508952,
2280.jpg,2170.jpg,4 Points,2 Points,,,,,,,,,,,,,,,,,0,42,42,42,,,,,,,,,,,d,7.343399708042853,,,1,2024-06-28_11h38.37.528,EPIDM,2023.1.2,59.82457937508952,
7030.jpg,1050.jpg,1 Points,4 Points,,,,,,,,,,,,,,,,,0,43,43,43,,,,,,,,,,,k,2.8823384159477428,,,1,2024-06-28_11h38.37.528,EPIDM,2023.1.2,59.82457937508952,
2870.jpg,8503.jpg,5 Points,2 Points,,,,,,,,,,,,,,,,,0,44,44,44,,,,,,,,,,,a,3.1181115829385817,,,1,2024-06-28_11h38.37.528,EPIDM,2023.1.2,59.82457937508952,
2320.jpg,7207.jpg,4 Points,1 Points,,,,,,,,,,,,,,,,,0,45,45,45,,,,,,,,,,,k,4.5741318330401555,,,1,2024-06-28_11h38.37.528,EPIDM,2023.1.2,59.82457937508952,
F149.jpg,6571.jpg,0 Points,2 Points,,,,,,,,,,,,,,,,,0,46,46,46,,,,,,,,,,,s,6.140332748997025,,,1,2024-06-28_11h38.37.528,EPIDM,2023.1.2,59.82457937508952,
7217.jpg,P233.jpg,4 Points,1 Point,,,,,,,,,,,,,,,,,0,47,47,47,,,,,,,,,,,s,5.9444508330198005,,,1,2024-06-28_11h38.37.528,EPIDM,2023.1.2,59.82457937508952,
9401.jpg,9110.jpg,2 Points,1 Point,,,,,,,,,,,,,,,,,0,48,48,48,,,,,,,,,,,l,3.149588583037257,,,1,2024-06-28_11h38.37.528,EPIDM,2023.1.2,59.82457937508952,
P077.jpg,7040.jpg,1 Point,4 Points,,,,,,,,,,,,,,,,,0,49,49,49,,,,,,,,,,,d,3.6846322909696028,,,1,2024-06-28_11h38.37.528,EPIDM,2023.1.2,59.82457937508952,
5480.jpg,2312.jpg,4 Points,1 Points,,,,,,,,,,,,,,,,,0,50,50,50,,,,,,,,,,,s,3.375296541955322,,,1,2024-06-28_11h38.37.528,EPIDM,2023.1.2,59.82457937508952,
5920.jpg,4275.jpg,2 Points,3 Points,,,,,,,,,,,,,,,,,0,51,51,51,,,,,,,,,,,s,3.0184505409561098,,,1,2024-06-28_11h38.37.528,EPIDM,2023.1.2,59.82457937508952,
1201.jpg,3180.jpg,3 Points,5 Points,,,,,,,,,,,,,,,,,0,52,52,52,,,,,,,,,,,s,4.613080665934831,,,1,2024-06-28_11h38.37.528,EPIDM,2023.1.2,59.82457937508952,
2606.jpg,5731.jpg,1 Point,4 Points,,,,,,,,,,,,,,,,,0,53,53,53,,,,,,,,,,,l,3.757861666032113,space,16.156553374952637,1,2024-06-28_11h38.37.528,EPIDM,2023.1.2,59.82457937508952,
2487.jpg,4598.jpg,2 Points,1 Point,,,,,,,,,,,,,,,,,0,54,54,54,,,,,,,,,,,k,2.2699282919056714,,,1,2024-06-28_11h38.37.528,EPIDM,2023.1.2,59.82457937508952,
5470.jpg,2594.jpg,5 Points,0 Points,,,,,,,,,,,,,,,,,0,55,55,55,,,,,,,,,,,a,2.1026696669869125,,,1,2024-06-28_11h38.37.528,EPIDM,2023.1.2,59.82457937508952,
F369.jpg,6260.jpg,2 Points,3 Points,,,,,,,,,,,,,,,,,0,56,56,56,,,,,,,,,,,s,4.32449374999851,,,1,2024-06-28_11h38.37.528,EPIDM,2023.1.2,59.82457937508952,
7620.jpg,7182.jpg,1 Point,4 Points,,,,,,,,,,,,,,,,,0,57,57,57,,,,,,,,,,,d,3.2432530419901013,,,1,2024-06-28_11h38.37.528,EPIDM,2023.1.2,59.82457937508952,
5260.jpg,5760.jpg,5 Points,1 Point,,,,,,,,,,,,,,,,,0,58,58,58,,,,,,,,,,,a,1.981556540937163,,,1,2024-06-28_11h38.37.528,EPIDM,2023.1.2,59.82457937508952,
9700.jpg,7184.jpg,1 Points,4 Points,,,,,,,,,,,,,,,,,0,59,59,59,,,,,,,,,,,d,5.366859667003155,,,1,2024-06-28_11h38.37.528,EPIDM,2023.1.2,59.82457937508952,
F158.jpg,9582.jpg,3 Points,5 Points,,,,,,,,,,,,,,,,,0,60,60,60,,,,,,,,,,,k,2.605920457979664,,,1,2024-06-28_11h38.37.528,EPIDM,2023.1.2,59.82457937508952,
7320.jpg,7545.jpg,0 Points,5 Points,,,,,,,,,,,,,,,,,0,61,61,61,,,,,,,,,,,l,4.202066291007213,,,1,2024-06-28_11h38.37.528,EPIDM,2023.1.2,59.82457937508952,
F032.jpg,1080.jpg,1 Point,4 Points,,,,,,,,,,,,,,,,,0,62,62,62,,,,,,,,,,,l,3.5047654169611633,,,1,2024-06-28_11h38.37.528,EPIDM,2023.1.2,59.82457937508952,
5700.jpg,5390.jpg,5 Points,0 Points,,,,,,,,,,,,,,,,,0,63,63,63,,,,,,,,,,,k,3.9969544580671936,,,1,2024-06-28_11h38.37.528,EPIDM,2023.1.2,59.82457937508952,
7580.jpg,7546.jpg,3 Points,2 Points,,,,,,,,,,,,,,,,,0,64,64,64,,,,,,,,,,,d,4.885613499907777,,,1,2024-06-28_11h38.37.528,EPIDM,2023.1.2,59.82457937508952,
2630.jpg,2500.jpg,0 Points,5 Points,,,,,,,,,,,,,,,,,0,65,65,65,,,,,,,,,,,s,3.821784458006732,,,1,2024-06-28_11h38.37.528,EPIDM,2023.1.2,59.82457937508952,
7280.jpg,5270.jpg,0 Points,4 Points,,,,,,,,,,,,,,,,,0,66,66,66,,,,,,,,,,,l,2.955441416008398,,,1,2024-06-28_11h38.37.528,EPIDM,2023.1.2,59.82457937508952,
7211.jpg,1525.jpg,3 Points,2 Points,,,,,,,,,,,,,,,,,0,67,67,67,,,,,,,,,,,j,4.96146904095076,,,1,2024-06-28_11h38.37.528,EPIDM,2023.1.2,59.82457937508952,
7190.jpg,9611.jpg,5 Points,3 Points,,,,,,,,,,,,,,,,,0,68,68,68,,,,,,,,,,,s,6.050062583060935,,,1,2024-06-28_11h38.37.528,EPIDM,2023.1.2,59.82457937508952,
2810.jpg,7034.jpg,3 Points,2 Points,,,,,,,,,,,,,,,,,0,69,69,69,,,,,,,,,,,k,4.138340916018933,space,17.288001582957804,1,2024-06-28_11h38.37.528,EPIDM,2023.1.2,59.82457937508952,
1240.jpg,6300.jpg,3 Points,2 Points,,,,,,,,,,,,,,,,,0,70,70,70,,,,,,,,,,,s,2.982246791012585,,,1,2024-06-28_11h38.37.528,EPIDM,2023.1.2,59.82457937508952,
5831.jpg,8090.jpg,3 Points,2 Points,,,,,,,,,,,,,,,,,0,71,71,71,,,,,,,,,,,s,4.744332124013454,,,1,2024-06-28_11h38.37.528,EPIDM,2023.1.2,59.82457937508952,
2580.jpg,2575.jpg,3 Points,2 Points,,,,,,,,,,,,,,,,,0,72,72,72,,,,,,,,,,,j,6.137902165995911,,,1,2024-06-28_11h38.37.528,EPIDM,2023.1.2,59.82457937508952,
6010.jpg,2683.jpg,2 Points,3 Points,,,,,,,,,,,,,,,,,0,73,73,73,,,,,,,,,,,k,5.532402875018306,,,1,2024-06-28_11h38.37.528,EPIDM,2023.1.2,59.82457937508952,
2260.jpg,7100.jpg,5 Points,3 Points,,,,,,,,,,,,,,,,,0,74,74,74,,,,,,,,,,,s,6.172827000031248,,,1,2024-06-28_11h38.37.528,EPIDM,2023.1.2,59.82457937508952,
9913.jpg,1310.jpg,1 Points,4 Points,,,,,,,,,,,,,,,,,0,75,75,75,,,,,,,,,,,k,5.7528212500037625,,,1,2024-06-28_11h38.37.528,EPIDM,2023.1.2,59.82457937508952,
2717.jpg,9330.jpg,4 Points,5 Points,,,,,,,,,,,,,,,,,0,76,76,76,,,,,,,,,,,l,2.334048290969804,,,1,2024-06-28_11h38.37.528,EPIDM,2023.1.2,59.82457937508952,
2383.jpg,5720.jpg,2 Points,3 Points,,,,,,,,,,,,,,,,,0,77,77,77,,,,,,,,,,,k,3.4274846659973264,,,1,2024-06-28_11h38.37.528,EPIDM,2023.1.2,59.82457937508952,
4100.jpg,1510.jpg,3 Points,4 Points,,,,,,,,,,,,,,,,,0,78,78,78,,,,,,,,,,,j,4.5463625830598176,,,1,2024-06-28_11h38.37.528,EPIDM,2023.1.2,59.82457937508952,
F252.jpg,4510.jpg,0 Points,5 Points,,,,,,,,,,,,,,,,,0,79,79,79,,,,,,,,,,,a,5.448679500026628,,,1,2024-06-28_11h38.37.528,EPIDM,2023.1.2,59.82457937508952,
8210.jpg,8330.jpg,3 Points,0 Points,,,,,,,,,,,,,,,,,0,80,80,80,,,,,,,,,,,a,2.4080208329251036,,,1,2024-06-28_11h38.37.528,EPIDM,2023.1.2,59.82457937508952,
4660.jpg,7035.jpg,4 Points,1 Points,,,,,,,,,,,,,,,,,0,81,81,81,,,,,,,,,,,j,3.3469917490147054,,,1,2024-06-28_11h38.37.528,EPIDM,2023.1.2,59.82457937508952,
7380.jpg,8231.jpg,1 Point,4 Points,,,,,,,,,,,,,,,,,0,82,82,82,,,,,,,,,,,s,4.779372541001067,,,1,2024-06-28_11h38.37.528,EPIDM,2023.1.2,59.82457937508952,
7286.jpg,7350.jpg,5 Points,0 Points,,,,,,,,,,,,,,,,,0,83,83,83,,,,,,,,,,,k,4.784635583055206,,,1,2024-06-28_11h38.37.528,EPIDM,2023.1.2,59.82457937508952,
3170.jpg,9432.jpg,2 Points,5 Points,,,,,,,,,,,,,,,,,0,84,84,84,,,,,,,,,,,l,2.929761999985203,,,1,2024-06-28_11h38.37.528,EPIDM,2023.1.2,59.82457937508952,
5870.jpg,5629.jpg,5 Points,0 Points,,,,,,,,,,,,,,,,,0,85,85,85,,,,,,,,,,,a,3.986292958026752,space,16.827794249053113,1,2024-06-28_11h38.37.528,EPIDM,2023.1.2,59.82457937508952,
5471.jpg,5010.jpg,2 Points,5 Points,,,,,,,,,,,,,,,,,0,86,86,86,,,,,,,,,,,j,2.7300437489757314,,,1,2024-06-28_11h38.37.528,EPIDM,2023.1.2,59.82457937508952,
5849.jpg,7282.jpg,2 Points,3 Points,,,,,,,,,,,,,,,,,0,87,87,87,,,,,,,,,,,k,4.801533915917389,,,1,2024-06-28_11h38.37.528,EPIDM,2023.1.2,59.82457937508952,
2650.jpg,5621.jpg,5 Points,3 Points,,,,,,,,,,,,,,,,,0,88,88,88,,,,,,,,,,,a,3.3675124160945415,,,1,2024-06-28_11h38.37.528,EPIDM,2023.1.2,59.82457937508952,
7503.jpg,5900.jpg,2 Points,3 Points,,,,,,,,,,,,,,,,,0,89,89,89,,,,,,,,,,,k,3.4555319170467556,,,1,2024-06-28_11h38.37.528,EPIDM,2023.1.2,59.82457937508952,
9320.jpg,1101.jpg,0 Points,3 Points,,,,,,,,,,,,,,,,,0,90,90,90,,,,,,,,,,,k,6.007229333044961,,,1,2024-06-28_11h38.37.528,EPIDM,2023.1.2,59.82457937508952,
7110.jpg,9190.jpg,5 Points,0 Points,,,,,,,,,,,,,,,,,0,91,91,91,,,,,,,,,,,j,5.265596291050315,,,1,2024-06-28_11h38.37.528,EPIDM,2023.1.2,59.82457937508952,
3500.jpg,3230.jpg,4 Points,2 Points,,,,,,,,,,,,,,,,,0,92,92,92,,,,,,,,,,,d,4.418767791008577,,,1,2024-06-28_11h38.37.528,EPIDM,2023.1.2,59.82457937508952,
9080.jpg,5593.jpg,5 Points,0 Points,,,,,,,,,,,,,,,,,0,93,93,93,,,,,,,,,,,s,5.253558291937225,,,1,2024-06-28_11h38.37.528,EPIDM,2023.1.2,59.82457937508952,
8350.jpg,5300.jpg,5 Points,1 Point,,,,,,,,,,,,,,,,,0,94,94,94,,,,,,,,,,,d,4.294934417004697,,,1,2024-06-28_11h38.37.528,EPIDM,2023.1.2,59.82457937508952,
5820.jpg,5200.jpg,5 Points,0 Points,,,,,,,,,,,,,,,,,0,95,95,95,,,,,,,,,,,l,3.5775260829832405,,,1,2024-06-28_11h38.37.528,EPIDM,2023.1.2,59.82457937508952,
F174.jpg,6212.jpg,5 Points,4 Points,,,,,,,,,,,,,,,,,0,96,96,96,,,,,,,,,,,d,6.905064332997426,,,1,2024-06-28_11h38.37.528,EPIDM,2023.1.2,59.82457937508952,
5623.jpg,7233.jpg,5 Points,0 Points,,,,,,,,,,,,,,,,,0,97,97,97,,,,,,,,,,,d,5.386205165996216,,,1,2024-06-28_11h38.37.528,EPIDM,2023.1.2,59.82457937508952,
5500.jpg,5520.jpg,3 Points,2 Points,,,,,,,,,,,,,,,,,0,98,98,98,,,,,,,,,,,d,5.77979854203295,,,1,2024-06-28_11h38.37.528,EPIDM,2023.1.2,59.82457937508952,
1274.jpg,6350.jpg,1 Points,4 Points,,,,,,,,,,,,,,,,,0,99,99,99,,,,,,,,,,,j,5.426008999929763,,,1,2024-06-28_11h38.37.528,EPIDM,2023.1.2,59.82457937508952,
2010.jpg,2092.jpg,5 Points,0 Points,,,,,,,,,,,,,,,,,0,100,100,100,,,,,,,,,,,s,4.458999166963622,,,1,2024-06-28_11h38.37.528,EPIDM,2023.1.2,59.82457937508952,
5990.jpg,5890.jpg,3 Points,2 Points,,,,,,,,,,,,,,,,,0,101,101,101,,,,,,,,,,,j,5.3394874999066815,space,13.960159165901132,1,2024-06-28_11h38.37.528,EPIDM,2023.1.2,59.82457937508952,
1390.jpg,1051.jpg,2 Points,0 Points,,,,,,,,,,,,,,,,,0,102,102,102,,,,,,,,,,,k,3.6049155408982188,,,1,2024-06-28_11h38.37.528,EPIDM,2023.1.2,59.82457937508952,
1603.jpg,5000.jpg,1 Points,4 Points,,,,,,,,,,,,,,,,,0,103,103,103,,,,,,,,,,,j,4.680312248994596,,,1,2024-06-28_11h38.37.528,EPIDM,2023.1.2,59.82457937508952,
4608.jpg,2514.jpg,1 Point,5 Points,,,,,,,,,,,,,,,,,0,104,104,104,,,,,,,,,,,s,3.3987973330076784,,,1,2024-06-28_11h38.37.528,EPIDM,2023.1.2,59.82457937508952,
7920.jpg,7224.jpg,3 Points,2 Points,,,,,,,,,,,,,,,,,0,105,105,105,,,,,,,,,,,s,4.476218124968,,,1,2024-06-28_11h38.37.528,EPIDM,2023.1.2,59.82457937508952,
6242.jpg,6213.jpg,4 Points,1 Point,,,,,,,,,,,,,,,,,0,106,106,106,,,,,,,,,,,s,5.776363541022874,,,1,2024-06-28_11h38.37.528,EPIDM,2023.1.2,59.82457937508952,
7130.jpg,3350.jpg,4 Points,1 Point,,,,,,,,,,,,,,,,,0,107,107,107,,,,,,,,,,,k,3.992030166904442,,,1,2024-06-28_11h38.37.528,EPIDM,2023.1.2,59.82457937508952,
1650.jpg,7237.jpg,1 Points,4 Points,,,,,,,,,,,,,,,,,0,108,108,108,,,,,,,,,,,d,7.103951249970123,,,1,2024-06-28_11h38.37.528,EPIDM,2023.1.2,59.82457937508952,
9584.jpg,7025.jpg,2 Points,3 Points,,,,,,,,,,,,,,,,,0,109,109,109,,,,,,,,,,,k,5.203577749081887,,,1,2024-06-28_11h38.37.528,EPIDM,2023.1.2,59.82457937508952,
8220.jpg,7009.jpg,4 Points,5 Points,,,,,,,,,,,,,,,,,0,110,110,110,,,,,,,,,,,k,3.7682934999465942,,,1,2024-06-28_11h38.37.528,EPIDM,2023.1.2,59.82457937508952,
7031.jpg,1022.jpg,4 Points,1 Point,,,,,,,,,,,,,,,,,0,111,111,111,,,,,,,,,,,j,4.40721916698385,,,1,2024-06-28_11h38.37.528,EPIDM,2023.1.2,59.82457937508952,
A074.jpg,6190.jpg,2 Points,5 Points,,,,,,,,,,,,,,,,,0,112,112,112,,,,,,,,,,,j,6.198556457995437,,,1,2024-06-28_11h38.37.528,EPIDM,2023.1.2,59.82457937508952,
5972.jpg,9621.jpg,5 Points,0 Points,,,,,,,,,,,,,,,,,0,113,113,113,,,,,,,,,,,d,5.742112000007182,,,1,2024-06-28_11h38.37.528,EPIDM,2023.1.2,59.82457937508952,
3064.jpg,9070.jpg,4 Points,2 Points,,,,,,,,,,,,,,,,,0,114,114,114,,,,,,,,,,,k,7.8071507080458105,,,1,2024-06-28_11h38.37.528,EPIDM,2023.1.2,59.82457937508952,
9830.jpg,8480.jpg,4 Points,1 Point,,,,,,,,,,,,,,,,,0,115,115,115,,,,,,,,,,,d,4.9197666249237955,,,1,2024-06-28_11h38.37.528,EPIDM,2023.1.2,59.82457937508952,
1640.jpg,1720.jpg,3 Points,4 Points,,,,,,,,,,,,,,,,,0,116,116,116,,,,,,,,,,,s,6.162657083012164,,,1,2024-06-28_11h38.37.528,EPIDM,2023.1.2,59.82457937508952,
1590.jpg,7140.jpg,5 Points,0 Points,,,,,,,,,,,,,,,,,0,117,117,117,,,,,,,,,,,a,2.7389603330520913,space,13.455226292018779,1,2024-06-28_11h38.37.528,EPIDM,2023.1.2,59.82457937508952,
1947.jpg,1811.jpg,5 Points,1 Point,,,,,,,,,,,,,,,,,0,118,118,118,,,,,,,,,,,k,7.575812166091055,,,1,2024-06-28_11h38.37.528,EPIDM,2023.1.2,59.82457937508952,
7705.jpg,6250.1.jpg,5 Points,0 Points,,,,,,,,,,,,,,,,,0,119,119,119,,,,,,,,,,,d,3.6948893329827115,,,1,2024-06-28_11h38.37.528,EPIDM,2023.1.2,59.82457937508952,
9042.jpg,1090.jpg,0 Points,5 Points,,,,,,,,,,,,,,,,,0,120,120,120,,,,,,,,,,,k,5.681879083043896,,,1,2024-06-28_11h38.37.528,EPIDM,2023.1.2,59.82457937508952,
5533.jpg,5626.jpg,3 Points,2 Points,,,,,,,,,,,,,,,,,0,121,121,121,,,,,,,,,,,k,3.256045124027878,,,1,2024-06-28_11h38.37.528,EPIDM,2023.1.2,59.82457937508952,
7260.jpg,8280.jpg,5 Points,3 Points,,,,,,,,,,,,,,,,,0,122,122,122,,,,,,,,,,,k,4.852734916028567,,,1,2024-06-28_11h38.37.528,EPIDM,2023.1.2,59.82457937508952,
5950.jpg,9920.jpg,0 Points,5 Points,,,,,,,,,,,,,,,,,0,123,123,123,,,,,,,,,,,s,3.2872159990947694,,,1,2024-06-28_11h38.37.528,EPIDM,2023.1.2,59.82457937508952,
2840.jpg,8040.jpg,2 Points,1 Point,,,,,,,,,,,,,,,,,0,124,124,124,,,,,,,,,,,l,2.9069027910009027,,,1,2024-06-28_11h38.37.528,EPIDM,2023.1.2,59.82457937508952,
9360.jpg,7090.jpg,1 Point,4 Points,,,,,,,,,,,,,,,,,0,125,125,125,,,,,,,,,,,s,3.80729033309035,,,1,2024-06-28_11h38.37.528,EPIDM,2023.1.2,59.82457937508952,
2276.jpg,1930.jpg,3 Points,1 Point,,,,,,,,,,,,,,,,,0,126,126,126,,,,,,,,,,,s,4.262491290923208,,,1,2024-06-28_11h38.37.528,EPIDM,2023.1.2,59.82457937508952,
9911.jpg,6610.jpg,5 Points,0 Points,,,,,,,,,,,,,,,,,0,127,127,127,,,,,,,,,,,d,3.673228833009489,,,1,2024-06-28_11h38.37.528,EPIDM,2023.1.2,59.82457937508952,
4250.jpg,7830.jpg,5 Points,3 Points,,,,,,,,,,,,,,,,,0,128,128,128,,,,,,,,,,,s,5.809653708012775,,,1,2024-06-28_11h38.37.528,EPIDM,2023.1.2,59.82457937508952,
1120.jpg,7010.jpg,3 Points,2 Points,,,,,,,,,,,,,,,,,0,129,129,129,,,,,,,,,,,s,2.900251290993765,,,1,2024-06-28_11h38.37.528,EPIDM,2023.1.2,59.82457937508952,
4621.jpg,3280.jpg,2 Points,0 Points,,,,,,,,,,,,,,,,,0,130,130,130,,,,,,,,,,,k,5.016560500022024,,,1,2024-06-28_11h38.37.528,EPIDM,2023.1.2,59.82457937508952,
7281.jpg,2880.jpg,0 Points,5 Points,,,,,,,,,,,,,,,,,0,131,131,131,,,,,,,,,,,l,2.2399101660121232,,,1,2024-06-28_11h38.37.528,EPIDM,2023.1.2,59.82457937508952,
9592.jpg,6200.jpg,2 Points,5 Points,,,,,,,,,,,,,,,,,0,132,132,132,,,,,,,,,,,d,2.559104665997438,,,1,2024-06-28_11h38.37.528,EPIDM,2023.1.2,59.82457937508952,
O022.jpg,3069.jpg,2 Points,3 Points,,,,,,,,,,,,,,,,,0,133,133,133,,,,,,,,,,,j,5.987762873992324,space,14.452543082996272,1,2024-06-28_11h38.37.528,EPIDM,2023.1.2,59.82457937508952,
2270.jpg,2000.jpg,2 Points,0 Points,,,,,,,,,,,,,,,,,0,134,134,134,,,,,,,,,,,s,3.4653080001007766,,,1,2024-06-28_11h38.37.528,EPIDM,2023.1.2,59.82457937508952,
7150.jpg,4532.jpg,2 Points,3 Points,,,,,,,,,,,,,,,,,0,135,135,135,,,,,,,,,,,s,1.8711594580672681,,,1,2024-06-28_11h38.37.528,EPIDM,2023.1.2,59.82457937508952,
1810.jpg,2616.jpg,3 Points,4 Points,,,,,,,,,,,,,,,,,0,136,136,136,,,,,,,,,,,s,3.6470975410193205,,,1,2024-06-28_11h38.37.528,EPIDM,2023.1.2,59.82457937508952,
9433.jpg,7183.jpg,1 Point,4 Points,,,,,,,,,,,,,,,,,0,137,137,137,,,,,,,,,,,k,3.5744565830100328,,,1,2024-06-28_11h38.37.528,EPIDM,2023.1.2,59.82457937508952,
9560.jpg,2700.jpg,1 Point,3 Points,,,,,,,,,,,,,,,,,0,138,138,138,,,,,,,,,,,s,3.5338062499649823,,,1,2024-06-28_11h38.37.528,EPIDM,2023.1.2,59.82457937508952,
6415.jpg,1112.jpg,2 Points,3 Points,,,,,,,,,,,,,,,,,0,139,139,139,,,,,,,,,,,k,7.5236980830086395,,,1,2024-06-28_11h38.37.528,EPIDM,2023.1.2,59.82457937508952,
1110.jpg,1275.jpg,2 Points,1 Point,,,,,,,,,,,,,,,,,0,140,140,140,,,,,,,,,,,s,2.1739613740937784,,,1,2024-06-28_11h38.37.528,EPIDM,2023.1.2,59.82457937508952,
1040.jpg,7096.jpg,0 Points,5 Points,,,,,,,,,,,,,,,,,0,141,141,141,,,,,,,,,,,j,3.3606225410476327,,,1,2024-06-28_11h38.37.528,EPIDM,2023.1.2,59.82457937508952,
7270.jpg,4534.jpg,3 Points,0 Points,,,,,,,,,,,,,,,,,0,142,142,142,,,,,,,,,,,l,4.7969450410455465,,,1,2024-06-28_11h38.37.528,EPIDM,2023.1.2,59.82457937508952,
7495.jpg,5622.jpg,1 Points,4 Points,,,,,,,,,,,,,,,,,0,143,143,143,,,,,,,,,,,k,3.1571885829325765,,,1,2024-06-28_11h38.37.528,EPIDM,2023.1.2,59.82457937508952,
7490.jpg,8021.jpg,2 Points,4 Points,,,,,,,,,,,,,,,,,0,144,144,144,,,,,,,,,,,l,2.8521357079735026,,,1,2024-06-28_11h38.37.528,EPIDM,2023.1.2,59.82457937508952,
9622.jpg,7006.jpg,2 Points,3 Points,,,,,,,,,,,,,,,,,0,145,145,145,,,,,,,,,,,a,4.943672291003168,,,1,2024-06-28_11h38.37.528,EPIDM,2023.1.2,59.82457937508952,
8230.jpg,2710.jpg,5 Points,1 Point,,,,,,,,,,,,,,,,,0,146,146,146,,,,,,,,,,,j,4.8153925410006195,,,1,2024-06-28_11h38.37.528,EPIDM,2023.1.2,59.82457937508952,
5450.jpg,9010.jpg,5 Points,0 Points,,,,,,,,,,,,,,,,,0,147,147,147,,,,,,,,,,,s,3.7005375829758123,,,1,2024-06-28_11h38.37.528,EPIDM,2023.1.2,59.82457937508952,
7351.jpg,7950.jpg,4 Points,1 Point,,,,,,,,,,,,,,,,,0,148,148,148,,,,,,,,,,,s,3.2539427500450984,,,1,2024-06-28_11h38.37.528,EPIDM,2023.1.2,59.82457937508952,
2053.jpg,1932.jpg,4 Points,1 Points,,,,,,,,,,,,,,,,,0,149,149,149,,,,,,,,,,,s,4.882196165970527,space,6.009713875013404,1,2024-06-28_11h38.37.528,EPIDM,2023.1.2,59.82457937508952,
9373.jpg,1280.jpg,0 Points,2 Points,,,,,,,,,,,,,,,,,0,150,150,150,,,,,,,,,,,k,3.842932998901233,,,1,2024-06-28_11h38.37.528,EPIDM,2023.1.2,59.82457937508952,
7560.jpg,9530.jpg,4 Points,1 Point,,,,,,,,,,,,,,,,,0,151,151,151,,,,,,,,,,,k,4.415770499967039,,,1,2024-06-28_11h38.37.528,EPIDM,2023.1.2,59.82457937508952,
1070.jpg,3220.jpg,2 Points,5 Points,,,,,,,,,,,,,,,,,0,152,152,152,,,,,,,,,,,k,3.1440884579205886,,,1,2024-06-28_11h38.37.528,EPIDM,2023.1.2,59.82457937508952,
2751.jpg,7500.jpg,3 Points,2 Points,,,,,,,,,,,,,,,,,0,153,153,153,,,,,,,,,,,a,7.462964792037383,,,1,2024-06-28_11h38.37.528,EPIDM,2023.1.2,59.82457937508952,
2720.jpg,1610.jpg,4 Points,0 Points,,,,,,,,,,,,,,,,,0,154,154,154,,,,,,,,,,,k,3.3996152490144596,,,1,2024-06-28_11h38.37.528,EPIDM,2023.1.2,59.82457937508952,
2515.jpg,1942.jpg,4 Points,1 Points,,,,,,,,,,,,,,,,,0,155,155,155,,,,,,,,,,,k,4.094144667033106,,,1,2024-06-28_11h38.37.528,EPIDM,2023.1.2,59.82457937508952,
9430.jpg,1931.jpg,5 Points,3 Points,,,,,,,,,,,,,,,,,0,156,156,156,,,,,,,,,,,s,3.5614970410242677,,,1,2024-06-28_11h38.37.528,EPIDM,2023.1.2,59.82457937508952,
1270.jpg,9921.jpg,4 Points,1 Points,,,,,,,,,,,,,,,,,0,157,157,157,,,,,,,,,,,d,6.957481874036603,,,1,2024-06-28_11h38.37.528,EPIDM,2023.1.2,59.82457937508952,
8500.jpg,1121.jpg,4 Points,0 Points,,,,,,,,,,,,,,,,,0,158,158,158,,,,,,,,,,,k,3.4478054160717875,,,1,2024-06-28_11h38.37.528,EPIDM,2023.1.2,59.82457937508952,
5532.jpg,2214.jpg,2 Points,3 Points,,,,,,,,,,,,,,,,,0,159,159,159,,,,,,,,,,,j,4.121836583013646,,,1,2024-06-28_11h38.37.528,EPIDM,2023.1.2,59.82457937508952,
