L_Scene,R_Scene,L_Pts,R_Pts,Instructions_Loop.thisRepN,Instructions_Loop.thisTrialN,Instructions_Loop.thisN,Instructions_Loop.thisIndex,Redo_Instructions_Loop.thisRepN,Redo_Instructions_Loop.thisTrialN,Redo_Instructions_Loop.thisN,Redo_Instructions_Loop.thisIndex,Practice_Recognition_Loop.thisRepN,Practice_Recognition_Loop.thisTrialN,Practice_Recognition_Loop.thisN,Practice_Recognition_Loop.thisIndex,Practice_FB_Loop.thisRepN,Practice_FB_Loop.thisTrialN,Practice_FB_Loop.thisN,Practice_FB_Loop.thisIndex,RecStim_Loop.thisRepN,RecStim_Loop.thisTrialN,RecStim_Loop.thisN,RecStim_Loop.thisIndex,FB_Loop.thisRepN,FB_Loop.thisTrialN,FB_Loop.thisN,FB_Loop.thisIndex,RecBrk_Loop.thisRepN,RecBrk_Loop.thisTrialN,RecBrk_Loop.thisN,RecBrk_Loop.thisIndex,Transition_Enc.keys,Transition_Enc.rt,Encoding_Resp.keys,Encoding_Resp.rt,EncBrk_Resp.keys,EncBrk_Resp.rt,participant,date,expName,psychopyVersion,frameRate,
,,,,,,,,,,,,,,,,,,,,,,,,,,,,,,,,space,3.76558241690509,,,,,20,2024-08-30_16h11.55.251,EPIDM,2023.1.2,None,
F078.jpg,L130.jpg,,,,,,,,,,,0,0,0,0,,,,,,,,,,,,,,,,,,,k,5.664983208058402,,,20,2024-08-30_16h11.55.251,EPIDM,2023.1.2,None,
P036.jpg,P217.jpg,,,,,,,,,,,0,1,1,1,,,,,,,,,,,,,,,,,,,d,6.895982541842386,,,20,2024-08-30_16h11.55.251,EPIDM,2023.1.2,None,
O161.jpg,F218.jpg,,,,,,,,,,,0,2,2,2,,,,,,,,,,,,,,,,,,,j,6.301905165892094,,,20,2024-08-30_16h11.55.251,EPIDM,2023.1.2,None,
F279.jpg,A001.jpg,,,,,,,,,,,0,3,3,3,,,,,,,,,,,,,,,,,,,s,4.481683874968439,,,20,2024-08-30_16h11.55.251,EPIDM,2023.1.2,None,
F273.jpg,A060.jpg,,,,,,,,,,,0,4,4,4,,,,,,,,,,,,,,,,,,,d,4.7282749998848885,,,20,2024-08-30_16h11.55.251,EPIDM,2023.1.2,None,
2393.jpg,L055.jpg,,,,,,,,,,,0,5,5,5,,,,,,,,,,,,,,,,,,,a,6.016814916860312,,,20,2024-08-30_16h11.55.251,EPIDM,2023.1.2,None,
1812.jpg,2593.jpg,,,,,,,,,,,0,6,6,6,,,,,,,,,,,,,,,,,,,d,3.089576791971922,,,20,2024-08-30_16h11.55.251,EPIDM,2023.1.2,None,
O013.jpg,A067.jpg,,,,,,,,,,,0,7,7,7,,,,,,,,,,,,,,,,,,,a,5.365139584057033,,,20,2024-08-30_16h11.55.251,EPIDM,2023.1.2,None,
P033.jpg,P034.jpg,,,,,,,,,,,0,8,8,8,,,,,,,,,,,,,,,,,,,a,5.455755542032421,,,20,2024-08-30_16h11.55.251,EPIDM,2023.1.2,None,
A104.jpg,8186.jpg,,,,,,,,,,,0,9,9,9,,,,,,,,,,,,,,,,,,,s,3.8543530837632716,,,20,2024-08-30_16h11.55.251,EPIDM,2023.1.2,None,
,,,,,,,,,,,,,,,,,,,,,,,,,,,,,,,,space,1.5601959999185055,,,,,20,2024-08-30_16h11.55.251,EPIDM,2023.1.2,None,
8041.jpg,6250.2.jpg,2 Points,3 Points,,,,,,,,,,,,,,,,,0,0,0,0,,,,,,,,,,,d,4.137576207984239,,,20,2024-08-30_16h11.55.251,EPIDM,2023.1.2,None,
2214.jpg,5532.jpg,3 Points,2 Points,,,,,,,,,,,,,,,,,0,1,1,1,,,,,,,,,,,j,3.0527179159689695,,,20,2024-08-30_16h11.55.251,EPIDM,2023.1.2,None,
9500.jpg,6834.jpg,1 Point,5 Points,,,,,,,,,,,,,,,,,0,2,2,2,,,,,,,,,,,d,1.4758744589053094,,,20,2024-08-30_16h11.55.251,EPIDM,2023.1.2,None,
9921.jpg,1270.jpg,1 Points,4 Points,,,,,,,,,,,,,,,,,0,3,3,3,,,,,,,,,,,j,1.9498059579636902,,,20,2024-08-30_16h11.55.251,EPIDM,2023.1.2,None,
5220.jpg,7230.jpg,0 Points,5 Points,,,,,,,,,,,,,,,,,0,4,4,4,,,,,,,,,,,j,1.6462830838281661,,,20,2024-08-30_16h11.55.251,EPIDM,2023.1.2,None,
1942.jpg,2515.jpg,1 Points,4 Points,,,,,,,,,,,,,,,,,0,5,5,5,,,,,,,,,,,d,0.07331179175525904,space,3.040789792081341,20,2024-08-30_16h11.55.251,EPIDM,2023.1.2,None,
5971.jpg,2750.jpg,5 Points,4 Points,,,,,,,,,,,,,,,,,0,6,6,6,,,,,,,,,,,d,3.6496606667060405,,,20,2024-08-30_16h11.55.251,EPIDM,2023.1.2,None,
7500.jpg,2751.jpg,2 Points,3 Points,,,,,,,,,,,,,,,,,0,7,7,7,,,,,,,,,,,j,0.044657957972958684,,,20,2024-08-30_16h11.55.251,EPIDM,2023.1.2,None,
9250.jpg,6840.jpg,0 Points,1 Points,,,,,,,,,,,,,,,,,0,8,8,8,,,,,,,,,,,d,1.2272283327765763,,,20,2024-08-30_16h11.55.251,EPIDM,2023.1.2,None,
9220.jpg,7560.jpg,1 Point,4 Points,,,,,,,,,,,,,,,,,0,9,9,9,,,,,,,,,,,j,0.23835104191675782,,,20,2024-08-30_16h11.55.251,EPIDM,2023.1.2,None,
2381.jpg,8250.jpg,1 Point,4 Points,,,,,,,,,,,,,,,,,0,10,10,10,,,,,,,,,,,k,0.2258834580425173,,,20,2024-08-30_16h11.55.251,EPIDM,2023.1.2,None,
1932.jpg,9415.jpg,1 Points,4 Points,,,,,,,,,,,,,,,,,0,11,11,11,,,,,,,,,,,s,1.778198832878843,,,20,2024-08-30_16h11.55.251,EPIDM,2023.1.2,None,
6000.jpg,9411.jpg,4 Points,0 Points,,,,,,,,,,,,,,,,,0,12,12,12,,,,,,,,,,,k,0.8225666247308254,,,20,2024-08-30_16h11.55.251,EPIDM,2023.1.2,None,
9010.jpg,5450.jpg,0 Points,5 Points,,,,,,,,,,,,,,,,,0,13,13,13,,,,,,,,,,,j,0.12445149989798665,,,20,2024-08-30_16h11.55.251,EPIDM,2023.1.2,None,
1540.jpg,1560.jpg,1 Point,0 Points,,,,,,,,,,,,,,,,,0,14,14,14,,,,,,,,,,,d,1.079397666733712,,,20,2024-08-30_16h11.55.251,EPIDM,2023.1.2,None,
7006.jpg,6821.jpg,3 Points,2 Points,,,,,,,,,,,,,,,,,0,15,15,15,,,,,,,,,,,s,0.9971787920221686,,,20,2024-08-30_16h11.55.251,EPIDM,2023.1.2,None,
5030.jpg,8160.jpg,3 Points,2 Points,,,,,,,,,,,,,,,,,0,16,16,16,,,,,,,,,,,k,1.7128223748877645,,,20,2024-08-30_16h11.55.251,EPIDM,2023.1.2,None,
5622.jpg,7495.jpg,4 Points,1 Points,,,,,,,,,,,,,,,,,0,17,17,17,,,,,,,,,,,s,0.025279374793171883,,,20,2024-08-30_16h11.55.251,EPIDM,2023.1.2,None,
9340.jpg,1200.jpg,0 Points,4 Points,,,,,,,,,,,,,,,,,0,18,18,18,,,,,,,,,,,k,0.7028032499365509,,,20,2024-08-30_16h11.55.251,EPIDM,2023.1.2,None,
7096.jpg,1111.jpg,5 Points,0 Points,,,,,,,,,,,,,,,,,0,19,19,19,,,,,,,,,,,j,1.1113428340759128,,,20,2024-08-30_16h11.55.251,EPIDM,2023.1.2,None,
9910.jpg,9561.jpg,2 Points,3 Points,,,,,,,,,,,,,,,,,0,20,20,20,,,,,,,,,,,s,0.051708457758650184,,,20,2024-08-30_16h11.55.251,EPIDM,2023.1.2,None,
1112.jpg,6415.jpg,3 Points,2 Points,,,,,,,,,,,,,,,,,0,21,21,21,,,,,,,,,,,d,0.6376952920109034,space,1.2782291248440742,20,2024-08-30_16h11.55.251,EPIDM,2023.1.2,None,
7480.jpg,4533.jpg,0 Points,3 Points,,,,,,,,,,,,,,,,,0,22,22,22,,,,,,,,,,,k,0.9090334579814225,,,20,2024-08-30_16h11.55.251,EPIDM,2023.1.2,None,
7183.jpg,9433.jpg,4 Points,1 Point,,,,,,,,,,,,,,,,,0,23,23,23,,,,,,,,,,,l,6.1017026249319315,,,20,2024-08-30_16h11.55.251,EPIDM,2023.1.2,None,
9210.jpg,9290.jpg,1 Point,2 Points,,,,,,,,,,,,,,,,,0,24,24,24,,,,,,,,,,,k,1.2870703330263495,,,20,2024-08-30_16h11.55.251,EPIDM,2023.1.2,None,
2850.jpg,7150.jpg,3 Points,2 Points,,,,,,,,,,,,,,,,,0,25,25,25,,,,,,,,,,,s,0.5561152501031756,,,20,2024-08-30_16h11.55.251,EPIDM,2023.1.2,None,
3022.jpg,9417.jpg,0 Points,1 Point,,,,,,,,,,,,,,,,,0,26,26,26,,,,,,,,,,,k,3.379278040723875,,,20,2024-08-30_16h11.55.251,EPIDM,2023.1.2,None,
3069.jpg,6314.jpg,3 Points,2 Points,,,,,,,,,,,,,,,,,0,27,27,27,,,,,,,,,,,d,5.791591291781515,,,20,2024-08-30_16h11.55.251,EPIDM,2023.1.2,None,
8465.jpg,2590.jpg,1 Point,4 Points,,,,,,,,,,,,,,,,,0,28,28,28,,,,,,,,,,,k,2.6330092079006135,,,20,2024-08-30_16h11.55.251,EPIDM,2023.1.2,None,
2880.jpg,7281.jpg,5 Points,0 Points,,,,,,,,,,,,,,,,,0,29,29,29,,,,,,,,,,,a,3.068405124824494,,,20,2024-08-30_16h11.55.251,EPIDM,2023.1.2,None,
4609.jpg,1900.jpg,2 Points,4 Points,,,,,,,,,,,,,,,,,0,30,30,30,,,,,,,,,,,s,2.639733290998265,,,20,2024-08-30_16h11.55.251,EPIDM,2023.1.2,None,
7010.jpg,1120.jpg,2 Points,3 Points,,,,,,,,,,,,,,,,,0,31,31,31,,,,,,,,,,,k,4.054528665961698,,,20,2024-08-30_16h11.55.251,EPIDM,2023.1.2,None,
5970.jpg,9000.jpg,0 Points,4 Points,,,,,,,,,,,,,,,,,0,32,32,32,,,,,,,,,,,j,2.0908785827923566,,,20,2024-08-30_16h11.55.251,EPIDM,2023.1.2,None,
6610.jpg,9911.jpg,0 Points,5 Points,,,,,,,,,,,,,,,,,0,33,33,33,,,,,,,,,,,d,3.0179166668094695,,,20,2024-08-30_16h11.55.251,EPIDM,2023.1.2,None,
2752.jpg,7360.jpg,2 Points,1 Point,,,,,,,,,,,,,,,,,0,34,34,34,,,,,,,,,,,s,4.448131124954671,,,20,2024-08-30_16h11.55.251,EPIDM,2023.1.2,None,
7090.jpg,9360.jpg,4 Points,1 Point,,,,,,,,,,,,,,,,,0,35,35,35,,,,,,,,,,,k,1.0665759579278529,,,20,2024-08-30_16h11.55.251,EPIDM,2023.1.2,None,
4279.jpg,2030.jpg,5 Points,0 Points,,,,,,,,,,,,,,,,,0,36,36,36,,,,,,,,,,,d,3.391604291740805,,,20,2024-08-30_16h11.55.251,EPIDM,2023.1.2,None,
9920.jpg,5950.jpg,5 Points,0 Points,,,,,,,,,,,,,,,,,0,37,37,37,,,,,,,,,,,s,0.6157073329668492,space,1.1835852079093456,20,2024-08-30_16h11.55.251,EPIDM,2023.1.2,None,
9101.jpg,1945.jpg,2 Points,4 Points,,,,,,,,,,,,,,,,,0,38,38,38,,,,,,,,,,,a,6.190309666097164,,,20,2024-08-30_16h11.55.251,EPIDM,2023.1.2,None,
5626.jpg,5533.jpg,2 Points,3 Points,,,,,,,,,,,,,,,,,0,39,39,39,,,,,,,,,,,k,3.5984102918300778,,,20,2024-08-30_16h11.55.251,EPIDM,2023.1.2,None,
6244.jpg,9041.jpg,0 Points,4 Points,,,,,,,,,,,,,,,,,0,40,40,40,,,,,,,,,,,k,1.8144202081020921,,,20,2024-08-30_16h11.55.251,EPIDM,2023.1.2,None,
6250.1.jpg,7705.jpg,0 Points,5 Points,,,,,,,,,,,,,,,,,0,41,41,41,,,,,,,,,,,s,2.224784707883373,,,20,2024-08-30_16h11.55.251,EPIDM,2023.1.2,None,
4536.jpg,2170.jpg,4 Points,2 Points,,,,,,,,,,,,,,,,,0,42,42,42,,,,,,,,,,,s,3.041070291772485,,,20,2024-08-30_16h11.55.251,EPIDM,2023.1.2,None,
7140.jpg,2702.jpg,0 Points,5 Points,,,,,,,,,,,,,,,,,0,43,43,43,,,,,,,,,,,j,2.0093041248619556,,,20,2024-08-30_16h11.55.251,EPIDM,2023.1.2,None,
2870.jpg,8503.jpg,5 Points,2 Points,,,,,,,,,,,,,,,,,0,44,44,44,,,,,,,,,,,s,0.2997817499563098,,,20,2024-08-30_16h11.55.251,EPIDM,2023.1.2,None,
6410.jpg,9830.jpg,1 Point,4 Points,,,,,,,,,,,,,,,,,0,45,45,45,,,,,,,,,,,s,1.8518732090014964,,,20,2024-08-30_16h11.55.251,EPIDM,2023.1.2,None,
3030.jpg,6571.jpg,0 Points,2 Points,,,,,,,,,,,,,,,,,0,46,46,46,,,,,,,,,,,s,2.9461158749181777,,,20,2024-08-30_16h11.55.251,EPIDM,2023.1.2,None,
9621.jpg,6838.jpg,0 Points,5 Points,,,,,,,,,,,,,,,,,0,47,47,47,,,,,,,,,,,j,2.4001284160185605,,,20,2024-08-30_16h11.55.251,EPIDM,2023.1.2,None,
9401.jpg,9110.jpg,2 Points,1 Point,,,,,,,,,,,,,,,,,0,48,48,48,,,,,,,,,,,s,2.358691625064239,,,20,2024-08-30_16h11.55.251,EPIDM,2023.1.2,None,
6930.jpg,7031.jpg,1 Point,4 Points,,,,,,,,,,,,,,,,,0,49,49,49,,,,,,,,,,,k,0.10441758297383785,,,20,2024-08-30_16h11.55.251,EPIDM,2023.1.2,None,
8200.jpg,2312.jpg,4 Points,1 Points,,,,,,,,,,,,,,,,,0,50,50,50,,,,,,,,,,,j,2.0606298339553177,,,20,2024-08-30_16h11.55.251,EPIDM,2023.1.2,None,
7025.jpg,9584.jpg,3 Points,2 Points,,,,,,,,,,,,,,,,,0,51,51,51,,,,,,,,,,,l,2.756120332982391,,,20,2024-08-30_16h11.55.251,EPIDM,2023.1.2,None,
1201.jpg,3180.jpg,3 Points,5 Points,,,,,,,,,,,,,,,,,0,52,52,52,,,,,,,,,,,j,1.8082693328615278,,,20,2024-08-30_16h11.55.251,EPIDM,2023.1.2,None,
3210.jpg,7130.jpg,1 Point,4 Points,,,,,,,,,,,,,,,,,0,53,53,53,,,,,,,,,,,s,2.5396719169802964,space,0.9055324997752905,20,2024-08-30_16h11.55.251,EPIDM,2023.1.2,None,
2487.jpg,2200.jpg,2 Points,1 Point,,,,,,,,,,,,,,,,,0,54,54,54,,,,,,,,,,,s,4.0045272500719875,,,20,2024-08-30_16h11.55.251,EPIDM,2023.1.2,None,
7224.jpg,7920.jpg,2 Points,3 Points,,,,,,,,,,,,,,,,,0,55,55,55,,,,,,,,,,,a,2.5932962910737842,,,20,2024-08-30_16h11.55.251,EPIDM,2023.1.2,None,
F369.jpg,6260.jpg,2 Points,3 Points,,,,,,,,,,,,,,,,,0,56,56,56,,,,,,,,,,,d,2.348402541829273,,,20,2024-08-30_16h11.55.251,EPIDM,2023.1.2,None,
8180.jpg,1603.jpg,4 Points,1 Points,,,,,,,,,,,,,,,,,0,57,57,57,,,,,,,,,,,s,3.1934113330207765,,,20,2024-08-30_16h11.55.251,EPIDM,2023.1.2,None,
5982.jpg,5760.jpg,5 Points,1 Point,,,,,,,,,,,,,,,,,0,58,58,58,,,,,,,,,,,d,2.228942417073995,,,20,2024-08-30_16h11.55.251,EPIDM,2023.1.2,None,
5890.jpg,5990.jpg,2 Points,3 Points,,,,,,,,,,,,,,,,,0,59,59,59,,,,,,,,,,,j,1.403019290883094,,,20,2024-08-30_16h11.55.251,EPIDM,2023.1.2,None,
F158.jpg,9582.jpg,3 Points,5 Points,,,,,,,,,,,,,,,,,0,60,60,60,,,,,,,,,,,k,1.7194412080571055,,,20,2024-08-30_16h11.55.251,EPIDM,2023.1.2,None,
9440.jpg,1274.jpg,4 Points,1 Points,,,,,,,,,,,,,,,,,0,61,61,61,,,,,,,,,,,d,3.585238332860172,,,20,2024-08-30_16h11.55.251,EPIDM,2023.1.2,None,
F032.jpg,9594.jpg,1 Point,4 Points,,,,,,,,,,,,,,,,,0,62,62,62,,,,,,,,,,,s,1.1306639169342816,,,20,2024-08-30_16h11.55.251,EPIDM,2023.1.2,None,
7233.jpg,5623.jpg,0 Points,5 Points,,,,,,,,,,,,,,,,,0,63,63,63,,,,,,,,,,,d,2.7877688750158995,,,20,2024-08-30_16h11.55.251,EPIDM,2023.1.2,None,
7580.jpg,7546.jpg,3 Points,2 Points,,,,,,,,,,,,,,,,,0,64,64,64,,,,,,,,,,,j,0.3497117089573294,,,20,2024-08-30_16h11.55.251,EPIDM,2023.1.2,None,
5200.jpg,5820.jpg,0 Points,5 Points,,,,,,,,,,,,,,,,,0,65,65,65,,,,,,,,,,,s,0.2704610840883106,,,20,2024-08-30_16h11.55.251,EPIDM,2023.1.2,None,
7280.jpg,5270.jpg,0 Points,4 Points,,,,,,,,,,,,,,,,,0,66,66,66,,,,,,,,,,,j,0.07098491583019495,,,20,2024-08-30_16h11.55.251,EPIDM,2023.1.2,None,
5593.jpg,5600.jpg,0 Points,5 Points,,,,,,,,,,,,,,,,,0,67,67,67,,,,,,,,,,,s,0.9730102079920471,,,20,2024-08-30_16h11.55.251,EPIDM,2023.1.2,None,
2141.jpg,9611.jpg,5 Points,3 Points,,,,,,,,,,,,,,,,,0,68,68,68,,,,,,,,,,,j,0.23315816698595881,,,20,2024-08-30_16h11.55.251,EPIDM,2023.1.2,None,
6800.jpg,7110.jpg,0 Points,5 Points,,,,,,,,,,,,,,,,,0,69,69,69,,,,,,,,,,,s,0.04534283303655684,space,1.4465958750806749,20,2024-08-30_16h11.55.251,EPIDM,2023.1.2,None,
1240.jpg,6300.jpg,3 Points,2 Points,,,,,,,,,,,,,,,,,0,70,70,70,,,,,,,,,,,k,1.201368749840185,,,20,2024-08-30_16h11.55.251,EPIDM,2023.1.2,None,
5900.jpg,7503.jpg,3 Points,2 Points,,,,,,,,,,,,,,,,,0,71,71,71,,,,,,,,,,,d,0.0025737497489899397,,,20,2024-08-30_16h11.55.251,EPIDM,2023.1.2,None,
2580.jpg,1910.jpg,3 Points,2 Points,,,,,,,,,,,,,,,,,0,72,72,72,,,,,,,,,,,k,0.16881579183973372,,,20,2024-08-30_16h11.55.251,EPIDM,2023.1.2,None,
7282.jpg,5849.jpg,3 Points,2 Points,,,,,,,,,,,,,,,,,0,73,73,73,,,,,,,,,,,d,0.7122542499564588,,,20,2024-08-30_16h11.55.251,EPIDM,2023.1.2,None,
2260.jpg,2681.jpg,5 Points,3 Points,,,,,,,,,,,,,,,,,0,74,74,74,,,,,,,,,,,k,0.15792683279141784,,,20,2024-08-30_16h11.55.251,EPIDM,2023.1.2,None,
5629.jpg,5870.jpg,0 Points,5 Points,,,,,,,,,,,,,,,,,0,75,75,75,,,,,,,,,,,d,0.03815054101869464,,,20,2024-08-30_16h11.55.251,EPIDM,2023.1.2,None,
3061.jpg,9330.jpg,4 Points,5 Points,,,,,,,,,,,,,,,,,0,76,76,76,,,,,,,,,,,j,3.63356183283031,,,20,2024-08-30_16h11.55.251,EPIDM,2023.1.2,None,
7350.jpg,7286.jpg,0 Points,5 Points,,,,,,,,,,,,,,,,,0,77,77,77,,,,,,,,,,,s,2.7310782079584897,,,20,2024-08-30_16h11.55.251,EPIDM,2023.1.2,None,
4100.jpg,1510.jpg,3 Points,4 Points,,,,,,,,,,,,,,,,,0,78,78,78,,,,,,,,,,,a,4.277985041961074,,,20,2024-08-30_16h11.55.251,EPIDM,2023.1.2,None,
7035.jpg,4660.jpg,1 Points,4 Points,,,,,,,,,,,,,,,,,0,79,79,79,,,,,,,,,,,k,5.327879375079647,,,20,2024-08-30_16h11.55.251,EPIDM,2023.1.2,None,
8210.jpg,8330.jpg,3 Points,0 Points,,,,,,,,,,,,,,,,,0,80,80,80,,,,,,,,,,,d,1.3276200839318335,,,20,2024-08-30_16h11.55.251,EPIDM,2023.1.2,None,
4510.jpg,F252.jpg,5 Points,0 Points,,,,,,,,,,,,,,,,,0,81,81,81,,,,,,,,,,,a,3.1639765829313546,,,20,2024-08-30_16h11.55.251,EPIDM,2023.1.2,None,
1220.jpg,8231.jpg,1 Point,4 Points,,,,,,,,,,,,,,,,,0,82,82,82,,,,,,,,,,,d,3.4521789997816086,,,20,2024-08-30_16h11.55.251,EPIDM,2023.1.2,None,
5720.jpg,2383.jpg,3 Points,2 Points,,,,,,,,,,,,,,,,,0,83,83,83,,,,,,,,,,,a,0.8376364167779684,,,20,2024-08-30_16h11.55.251,EPIDM,2023.1.2,None,
3170.jpg,9432.jpg,2 Points,5 Points,,,,,,,,,,,,,,,,,0,84,84,84,,,,,,,,,,,s,4.407253249781206,,,20,2024-08-30_16h11.55.251,EPIDM,2023.1.2,None,
1310.jpg,9913.jpg,4 Points,1 Points,,,,,,,,,,,,,,,,,0,85,85,85,,,,,,,,,,,d,1.2021722497884184,space,0.9608367078471929,20,2024-08-30_16h11.55.251,EPIDM,2023.1.2,None,
7352.jpg,5010.jpg,2 Points,5 Points,,,,,,,,,,,,,,,,,0,86,86,86,,,,,,,,,,,k,3.765110374893993,,,20,2024-08-30_16h11.55.251,EPIDM,2023.1.2,None,
2683.jpg,6010.jpg,3 Points,2 Points,,,,,,,,,,,,,,,,,0,87,87,87,,,,,,,,,,,d,4.710730874910951,,,20,2024-08-30_16h11.55.251,EPIDM,2023.1.2,None,
2650.jpg,5621.jpg,5 Points,3 Points,,,,,,,,,,,,,,,,,0,88,88,88,,,,,,,,,,,d,2.1230919999070466,,,20,2024-08-30_16h11.55.251,EPIDM,2023.1.2,None,
8090.jpg,5831.jpg,2 Points,3 Points,,,,,,,,,,,,,,,,,0,89,89,89,,,,,,,,,,,a,1.3657626248896122,,,20,2024-08-30_16h11.55.251,EPIDM,2023.1.2,None,
9007.jpg,1101.jpg,0 Points,3 Points,,,,,,,,,,,,,,,,,0,90,90,90,,,,,,,,,,,j,5.268923749914393,,,20,2024-08-30_16h11.55.251,EPIDM,2023.1.2,None,
7034.jpg,2810.jpg,2 Points,3 Points,,,,,,,,,,,,,,,,,0,91,91,91,,,,,,,,,,,j,1.63824895885773,,,20,2024-08-30_16h11.55.251,EPIDM,2023.1.2,None,
3500.jpg,3230.jpg,4 Points,2 Points,,,,,,,,,,,,,,,,,0,92,92,92,,,,,,,,,,,s,2.915414416929707,,,20,2024-08-30_16h11.55.251,EPIDM,2023.1.2,None,
1525.jpg,7211.jpg,2 Points,3 Points,,,,,,,,,,,,,,,,,0,93,93,93,,,,,,,,,,,j,2.548691499978304,,,20,2024-08-30_16h11.55.251,EPIDM,2023.1.2,None,
8350.jpg,5300.jpg,5 Points,1 Point,,,,,,,,,,,,,,,,,0,94,94,94,,,,,,,,,,,s,1.5155866250861436,,,20,2024-08-30_16h11.55.251,EPIDM,2023.1.2,None,
2500.jpg,8010.jpg,5 Points,0 Points,,,,,,,,,,,,,,,,,0,95,95,95,,,,,,,,,,,l,2.556329125072807,,,20,2024-08-30_16h11.55.251,EPIDM,2023.1.2,None,
F174.jpg,6830.jpg,5 Points,4 Points,,,,,,,,,,,,,,,,,0,96,96,96,,,,,,,,,,,j,2.085843041772023,,,20,2024-08-30_16h11.55.251,EPIDM,2023.1.2,None,
5994.jpg,5700.jpg,0 Points,5 Points,,,,,,,,,,,,,,,,,0,97,97,97,,,,,,,,,,,s,0.7740637080278248,,,20,2024-08-30_16h11.55.251,EPIDM,2023.1.2,None,
5500.jpg,5520.jpg,3 Points,2 Points,,,,,,,,,,,,,,,,,0,98,98,98,,,,,,,,,,,k,1.0614702499005944,,,20,2024-08-30_16h11.55.251,EPIDM,2023.1.2,None,
7545.jpg,7320.jpg,5 Points,0 Points,,,,,,,,,,,,,,,,,0,99,99,99,,,,,,,,,,,s,1.5466704578138888,,,20,2024-08-30_16h11.55.251,EPIDM,2023.1.2,None,
2010.jpg,2092.jpg,5 Points,0 Points,,,,,,,,,,,,,,,,,0,100,100,100,,,,,,,,,,,s,5.045897915959358,,,20,2024-08-30_16h11.55.251,EPIDM,2023.1.2,None,
9452.jpg,9700.jpg,4 Points,1 Points,,,,,,,,,,,,,,,,,0,101,101,101,,,,,,,,,,,s,3.876592416781932,space,1.065368999959901,20,2024-08-30_16h11.55.251,EPIDM,2023.1.2,None,
1390.jpg,A025.jpg,2 Points,0 Points,,,,,,,,,,,,,,,,,0,102,102,102,,,,,,,,,,,s,3.5582850000355393,,,20,2024-08-30_16h11.55.251,EPIDM,2023.1.2,None,
7182.jpg,7620.jpg,4 Points,1 Point,,,,,,,,,,,,,,,,,0,103,103,103,,,,,,,,,,,k,2.1640681670978665,,,20,2024-08-30_16h11.55.251,EPIDM,2023.1.2,None,
4608.jpg,5510.jpg,1 Point,5 Points,,,,,,,,,,,,,,,,,0,104,104,104,,,,,,,,,,,l,1.375769332749769,,,20,2024-08-30_16h11.55.251,EPIDM,2023.1.2,None,
2620.jpg,5470.jpg,0 Points,5 Points,,,,,,,,,,,,,,,,,0,105,105,105,,,,,,,,,,,s,4.778477707877755,,,20,2024-08-30_16h11.55.251,EPIDM,2023.1.2,None,
F034.jpg,6213.jpg,4 Points,1 Point,,,,,,,,,,,,,,,,,0,106,106,106,,,,,,,,,,,d,3.4805732499808073,,,20,2024-08-30_16h11.55.251,EPIDM,2023.1.2,None,
5731.jpg,2606.jpg,4 Points,1 Point,,,,,,,,,,,,,,,,,0,107,107,107,,,,,,,,,,,s,2.4506142497994006,,,20,2024-08-30_16h11.55.251,EPIDM,2023.1.2,None,
1650.jpg,7237.jpg,1 Points,4 Points,,,,,,,,,,,,,,,,,0,108,108,108,,,,,,,,,,,d,2.430949832778424,,,20,2024-08-30_16h11.55.251,EPIDM,2023.1.2,None,
4275.jpg,5920.jpg,3 Points,2 Points,,,,,,,,,,,,,,,,,0,109,109,109,,,,,,,,,,,a,4.4035879170987755,,,20,2024-08-30_16h11.55.251,EPIDM,2023.1.2,None,
8220.jpg,4689.jpg,4 Points,5 Points,,,,,,,,,,,,,,,,,0,110,110,110,,,,,,,,,,,k,3.631757500115782,,,20,2024-08-30_16h11.55.251,EPIDM,2023.1.2,None,
7040.jpg,A041.jpg,4 Points,1 Point,,,,,,,,,,,,,,,,,0,111,111,111,,,,,,,,,,,j,1.9905689167790115,,,20,2024-08-30_16h11.55.251,EPIDM,2023.1.2,None,
6510.jpg,6190.jpg,2 Points,5 Points,,,,,,,,,,,,,,,,,0,112,112,112,,,,,,,,,,,d,4.204174332786351,,,20,2024-08-30_16h11.55.251,EPIDM,2023.1.2,None,
P233.jpg,7217.jpg,1 Point,4 Points,,,,,,,,,,,,,,,,,0,113,113,113,,,,,,,,,,,a,2.6797034579794854,,,20,2024-08-30_16h11.55.251,EPIDM,2023.1.2,None,
3168.jpg,9070.jpg,4 Points,2 Points,,,,,,,,,,,,,,,,,0,114,114,114,,,,,,,,,,,d,1.7353246249258518,,,20,2024-08-30_16h11.55.251,EPIDM,2023.1.2,None,
7207.jpg,2320.jpg,1 Points,4 Points,,,,,,,,,,,,,,,,,0,115,115,115,,,,,,,,,,,s,2.5976897918153554,,,20,2024-08-30_16h11.55.251,EPIDM,2023.1.2,None,
5531.jpg,1720.jpg,3 Points,4 Points,,,,,,,,,,,,,,,,,0,116,116,116,,,,,,,,,,,a,1.8042074998375028,,,20,2024-08-30_16h11.55.251,EPIDM,2023.1.2,None,
1050.jpg,7030.jpg,4 Points,1 Points,,,,,,,,,,,,,,,,,0,117,117,117,,,,,,,,,,,d,3.691414040978998,space,1.284410165855661,20,2024-08-30_16h11.55.251,EPIDM,2023.1.2,None,
1947.jpg,1811.jpg,5 Points,1 Point,,,,,,,,,,,,,,,,,0,118,118,118,,,,,,,,,,,d,2.442282290896401,,,20,2024-08-30_16h11.55.251,EPIDM,2023.1.2,None,
7020.jpg,6150.jpg,5 Points,0 Points,,,,,,,,,,,,,,,,,0,119,119,119,,,,,,,,,,,k,2.2330653751268983,,,20,2024-08-30_16h11.55.251,EPIDM,2023.1.2,None,
9042.jpg,P217.jpg,0 Points,5 Points,,,,,,,,,,,,,,,,,0,120,120,120,,,,,,,,,,,k,1.4979822908062488,,,20,2024-08-30_16h11.55.251,EPIDM,2023.1.2,None,
6210.jpg,7080.jpg,1 Point,4 Points,,,,,,,,,,,,,,,,,0,121,121,121,,,,,,,,,,,d,1.4957017078995705,,,20,2024-08-30_16h11.55.251,EPIDM,2023.1.2,None,
7260.jpg,8280.jpg,5 Points,3 Points,,,,,,,,,,,,,,,,,0,122,122,122,,,,,,,,,,,k,1.232962624868378,,,20,2024-08-30_16h11.55.251,EPIDM,2023.1.2,None,
5740.jpg,7205.jpg,0 Points,5 Points,,,,,,,,,,,,,,,,,0,123,123,123,,,,,,,,,,,j,1.3154971250332892,,,20,2024-08-30_16h11.55.251,EPIDM,2023.1.2,None,
2840.jpg,8040.jpg,2 Points,1 Point,,,,,,,,,,,,,,,,,0,124,124,124,,,,,,,,,,,s,1.99375154171139,,,20,2024-08-30_16h11.55.251,EPIDM,2023.1.2,None,
1450.jpg,5530.jpg,5 Points,0 Points,,,,,,,,,,,,,,,,,0,125,125,125,,,,,,,,,,,k,1.3967333328910172,,,20,2024-08-30_16h11.55.251,EPIDM,2023.1.2,None,
2276.jpg,1930.jpg,3 Points,1 Point,,,,,,,,,,,,,,,,,0,126,126,126,,,,,,,,,,,s,1.839914666954428,,,20,2024-08-30_16h11.55.251,EPIDM,2023.1.2,None,
5628.jpg,5660.jpg,5 Points,0 Points,,,,,,,,,,,,,,,,,0,127,127,127,,,,,,,,,,,s,2.048314082901925,,,20,2024-08-30_16h11.55.251,EPIDM,2023.1.2,None,
4250.jpg,7830.jpg,5 Points,3 Points,,,,,,,,,,,,,,,,,0,128,128,128,,,,,,,,,,,a,3.755112915765494,,,20,2024-08-30_16h11.55.251,EPIDM,2023.1.2,None,
2512.jpg,7050.jpg,1 Point,4 Points,,,,,,,,,,,,,,,,,0,129,129,129,,,,,,,,,,,a,1.790847958996892,,,20,2024-08-30_16h11.55.251,EPIDM,2023.1.2,None,
4621.jpg,9270.jpg,2 Points,0 Points,,,,,,,,,,,,,,,,,0,130,130,130,,,,,,,,,,,d,2.7875293330289423,,,20,2024-08-30_16h11.55.251,EPIDM,2023.1.2,None,
5910.jpg,5460.jpg,5 Points,0 Points,,,,,,,,,,,,,,,,,0,131,131,131,,,,,,,,,,,k,3.3173247089143842,,,20,2024-08-30_16h11.55.251,EPIDM,2023.1.2,None,
1300.jpg,3000.jpg,2 Points,5 Points,,,,,,,,,,,,,,,,,0,132,132,132,,,,,,,,,,,d,2.5337333329953253,,,20,2024-08-30_16h11.55.251,EPIDM,2023.1.2,None,
4233.jpg,5875.jpg,5 Points,0 Points,,,,,,,,,,,,,,,,,0,133,133,133,,,,,,,,,,,a,3.092954541789368,space,1.0213378337211907,20,2024-08-30_16h11.55.251,EPIDM,2023.1.2,None,
2270.jpg,2000.jpg,2 Points,0 Points,,,,,,,,,,,,,,,,,0,134,134,134,,,,,,,,,,,s,4.402916416758671,,,20,2024-08-30_16h11.55.251,EPIDM,2023.1.2,None,
9600.jpg,7640.jpg,5 Points,0 Points,,,,,,,,,,,,,,,,,0,135,135,135,,,,,,,,,,,s,1.42691395804286,,,20,2024-08-30_16h11.55.251,EPIDM,2023.1.2,None,
1810.jpg,2616.jpg,3 Points,4 Points,,,,,,,,,,,,,,,,,0,136,136,136,,,,,,,,,,,k,3.485485666897148,,,20,2024-08-30_16h11.55.251,EPIDM,2023.1.2,None,
9046.jpg,9630.jpg,3 Points,2 Points,,,,,,,,,,,,,,,,,0,137,137,137,,,,,,,,,,,s,1.229767750017345,,,20,2024-08-30_16h11.55.251,EPIDM,2023.1.2,None,
9560.jpg,1302.jpg,1 Point,3 Points,,,,,,,,,,,,,,,,,0,138,138,138,,,,,,,,,,,j,1.5522001658100635,,,20,2024-08-30_16h11.55.251,EPIDM,2023.1.2,None,
7000.jpg,1321.jpg,2 Points,3 Points,,,,,,,,,,,,,,,,,0,139,139,139,,,,,,,,,,,j,1.2583462079055607,,,20,2024-08-30_16h11.55.251,EPIDM,2023.1.2,None,
1110.jpg,1275.jpg,2 Points,1 Point,,,,,,,,,,,,,,,,,0,140,140,140,,,,,,,,,,,k,1.9846196249127388,,,20,2024-08-30_16h11.55.251,EPIDM,2023.1.2,None,
9470.jpg,9810.jpg,3 Points,2 Points,,,,,,,,,,,,,,,,,0,141,141,141,,,,,,,,,,,s,1.5783587920013815,,,20,2024-08-30_16h11.55.251,EPIDM,2023.1.2,None,
8033.jpg,7289.jpg,3 Points,0 Points,,,,,,,,,,,,,,,,,0,142,142,142,,,,,,,,,,,a,1.5077099578920752,,,20,2024-08-30_16h11.55.251,EPIDM,2023.1.2,None,
7502.jpg,9230.jpg,5 Points,0 Points,,,,,,,,,,,,,,,,,0,143,143,143,,,,,,,,,,,s,1.3559560410212725,,,20,2024-08-30_16h11.55.251,EPIDM,2023.1.2,None,
7490.jpg,8021.jpg,2 Points,4 Points,,,,,,,,,,,,,,,,,0,144,144,144,,,,,,,,,,,s,0.6615822087042034,,,20,2024-08-30_16h11.55.251,EPIDM,2023.1.2,None,
9280.jpg,9424.jpg,1 Point,4 Points,,,,,,,,,,,,,,,,,0,145,145,145,,,,,,,,,,,s,2.227444249903783,,,20,2024-08-30_16h11.55.251,EPIDM,2023.1.2,None,
2682.jpg,9252.jpg,5 Points,1 Point,,,,,,,,,,,,,,,,,0,146,146,146,,,,,,,,,,,l,2.7813219579402357,,,20,2024-08-30_16h11.55.251,EPIDM,2023.1.2,None,
7235.jpg,7186.jpg,3 Points,2 Points,,,,,,,,,,,,,,,,,0,147,147,147,,,,,,,,,,,s,1.1017231249716133,,,20,2024-08-30_16h11.55.251,EPIDM,2023.1.2,None,
7351.jpg,7187.jpg,4 Points,1 Point,,,,,,,,,,,,,,,,,0,148,148,148,,,,,,,,,,,a,2.7032322080340236,,,20,2024-08-30_16h11.55.251,EPIDM,2023.1.2,None,
9620.jpg,1230.jpg,1 Point,4 Points,,,,,,,,,,,,,,,,,0,149,149,149,,,,,,,,,,,d,1.6726825840305537,space,1.1581561248749495,20,2024-08-30_16h11.55.251,EPIDM,2023.1.2,None,
9373.jpg,1280.jpg,0 Points,2 Points,,,,,,,,,,,,,,,,,0,150,150,150,,,,,,,,,,,s,2.611562374746427,,,20,2024-08-30_16h11.55.251,EPIDM,2023.1.2,None,
2716.jpg,A053.jpg,2 Points,3 Points,,,,,,,,,,,,,,,,,0,151,151,151,,,,,,,,,,,k,1.5464853749144822,,,20,2024-08-30_16h11.55.251,EPIDM,2023.1.2,None,
1301.jpg,3220.jpg,2 Points,5 Points,,,,,,,,,,,,,,,,,0,152,152,152,,,,,,,,,,,s,2.8754980419762433,,,20,2024-08-30_16h11.55.251,EPIDM,2023.1.2,None,
3053.jpg,7550.jpg,4 Points,1 Points,,,,,,,,,,,,,,,,,0,153,153,153,,,,,,,,,,,s,1.5120309998746961,,,20,2024-08-30_16h11.55.251,EPIDM,2023.1.2,None,
4613.jpg,1610.jpg,4 Points,0 Points,,,,,,,,,,,,,,,,,0,154,154,154,,,,,,,,,,,j,2.1857336659450084,,,20,2024-08-30_16h11.55.251,EPIDM,2023.1.2,None,
5991.jpg,5750.jpg,0 Points,5 Points,,,,,,,,,,,,,,,,,0,155,155,155,,,,,,,,,,,s,1.4907007080037147,,,20,2024-08-30_16h11.55.251,EPIDM,2023.1.2,None,
9430.jpg,1931.jpg,5 Points,3 Points,,,,,,,,,,,,,,,,,0,156,156,156,,,,,,,,,,,s,3.09869108395651,,,20,2024-08-30_16h11.55.251,EPIDM,2023.1.2,None,
6900.jpg,7095.jpg,4 Points,1 Points,,,,,,,,,,,,,,,,,0,157,157,157,,,,,,,,,,,d,3.113900792086497,,,20,2024-08-30_16h11.55.251,EPIDM,2023.1.2,None,
8500.jpg,1121.jpg,4 Points,0 Points,,,,,,,,,,,,,,,,,0,158,158,158,,,,,,,,,,,d,2.7505613749381155,,,20,2024-08-30_16h11.55.251,EPIDM,2023.1.2,None,
7004.jpg,2120.jpg,5 Points,0 Points,,,,,,,,,,,,,,,,,0,159,159,159,,,,,,,,,,,j,2.9574945408385247,,,20,2024-08-30_16h11.55.251,EPIDM,2023.1.2,None,
