L_Scene,R_Scene,L_Pts,R_Pts,Instructions_Loop.thisRepN,Instructions_Loop.thisTrialN,Instructions_Loop.thisN,Instructions_Loop.thisIndex,Redo_Instructions_Loop.thisRepN,Redo_Instructions_Loop.thisTrialN,Redo_Instructions_Loop.thisN,Redo_Instructions_Loop.thisIndex,Practice_Recognition_Loop.thisRepN,Practice_Recognition_Loop.thisTrialN,Practice_Recognition_Loop.thisN,Practice_Recognition_Loop.thisIndex,Practice_FB_Loop.thisRepN,Practice_FB_Loop.thisTrialN,Practice_FB_Loop.thisN,Practice_FB_Loop.thisIndex,RecStim_Loop.thisRepN,RecStim_Loop.thisTrialN,RecStim_Loop.thisN,RecStim_Loop.thisIndex,FB_Loop.thisRepN,FB_Loop.thisTrialN,FB_Loop.thisN,FB_Loop.thisIndex,RecBrk_Loop.thisRepN,RecBrk_Loop.thisTrialN,RecBrk_Loop.thisN,RecBrk_Loop.thisIndex,Transition_Enc.keys,Transition_Enc.rt,Encoding_Resp.keys,Encoding_Resp.rt,EncBrk_Resp.keys,EncBrk_Resp.rt,participant,date,expName,psychopyVersion,frameRate,
,,,,,,,,,,,,,,,,,,,,,,,,,,,,,,,,space,10.039119207998738,,,,,30,2024-11-14_08h04.30.003,EPIDM,2023.1.2,60.0482639132081,
F078.jpg,L130.jpg,,,,,,,,,,,0,0,0,0,,,,,,,,,,,,,,,,,,,s,2.6388484579947544,,,30,2024-11-14_08h04.30.003,EPIDM,2023.1.2,60.0482639132081,
P036.jpg,P217.jpg,,,,,,,,,,,0,1,1,1,,,,,,,,,,,,,,,,,,,k,3.216252665995853,,,30,2024-11-14_08h04.30.003,EPIDM,2023.1.2,60.0482639132081,
O161.jpg,F218.jpg,,,,,,,,,,,0,2,2,2,,,,,,,,,,,,,,,,,,,a,3.2418002920021536,,,30,2024-11-14_08h04.30.003,EPIDM,2023.1.2,60.0482639132081,
F279.jpg,A001.jpg,,,,,,,,,,,0,3,3,3,,,,,,,,,,,,,,,,,,,j,4.835475625004619,,,30,2024-11-14_08h04.30.003,EPIDM,2023.1.2,60.0482639132081,
F273.jpg,A060.jpg,,,,,,,,,,,0,4,4,4,,,,,,,,,,,,,,,,,,,d,2.587507333009853,,,30,2024-11-14_08h04.30.003,EPIDM,2023.1.2,60.0482639132081,
2393.jpg,L055.jpg,,,,,,,,,,,0,5,5,5,,,,,,,,,,,,,,,,,,,d,3.0166950420098146,,,30,2024-11-14_08h04.30.003,EPIDM,2023.1.2,60.0482639132081,
1812.jpg,2593.jpg,,,,,,,,,,,0,6,6,6,,,,,,,,,,,,,,,,,,,k,4.452141125002527,,,30,2024-11-14_08h04.30.003,EPIDM,2023.1.2,60.0482639132081,
O013.jpg,A067.jpg,,,,,,,,,,,0,7,7,7,,,,,,,,,,,,,,,,,,,j,3.713348125005723,,,30,2024-11-14_08h04.30.003,EPIDM,2023.1.2,60.0482639132081,
P033.jpg,P034.jpg,,,,,,,,,,,0,8,8,8,,,,,,,,,,,,,,,,,,,s,3.1685133749997476,,,30,2024-11-14_08h04.30.003,EPIDM,2023.1.2,60.0482639132081,
A104.jpg,8186.jpg,,,,,,,,,,,0,9,9,9,,,,,,,,,,,,,,,,,,,k,2.1869851669907803,,,30,2024-11-14_08h04.30.003,EPIDM,2023.1.2,60.0482639132081,
,,,,,,,,,,,,,,,,,,,,,,,,,,,,,,,,space,4.603741958999308,,,,,30,2024-11-14_08h04.30.003,EPIDM,2023.1.2,60.0482639132081,
8041.jpg,6250.2.jpg,2 Points,3 Points,,,,,,,,,,,,,,,,,0,0,0,0,,,,,,,,,,,s,2.460700707990327,,,30,2024-11-14_08h04.30.003,EPIDM,2023.1.2,60.0482639132081,
2214.jpg,5532.jpg,3 Points,2 Points,,,,,,,,,,,,,,,,,0,1,1,1,,,,,,,,,,,s,3.7214441670075757,,,30,2024-11-14_08h04.30.003,EPIDM,2023.1.2,60.0482639132081,
9500.jpg,9120.jpg,1 Point,5 Points,,,,,,,,,,,,,,,,,0,2,2,2,,,,,,,,,,,k,2.235828707998735,,,30,2024-11-14_08h04.30.003,EPIDM,2023.1.2,60.0482639132081,
9921.jpg,6370.jpg,1 Points,4 Points,,,,,,,,,,,,,,,,,0,3,3,3,,,,,,,,,,,s,2.529936416001874,,,30,2024-11-14_08h04.30.003,EPIDM,2023.1.2,60.0482639132081,
5220.jpg,7230.jpg,0 Points,5 Points,,,,,,,,,,,,,,,,,0,4,4,4,,,,,,,,,,,l,3.243491166998865,,,30,2024-11-14_08h04.30.003,EPIDM,2023.1.2,60.0482639132081,
1942.jpg,2515.jpg,1 Points,4 Points,,,,,,,,,,,,,,,,,0,5,5,5,,,,,,,,,,,k,2.576181666008779,space,3.203759625001112,30,2024-11-14_08h04.30.003,EPIDM,2023.1.2,60.0482639132081,
9912.jpg,9050.jpg,5 Points,4 Points,,,,,,,,,,,,,,,,,0,6,6,6,,,,,,,,,,,d,2.555716292001307,,,30,2024-11-14_08h04.30.003,EPIDM,2023.1.2,60.0482639132081,
7500.jpg,2751.jpg,2 Points,3 Points,,,,,,,,,,,,,,,,,0,7,7,7,,,,,,,,,,,k,1.5926911249989644,,,30,2024-11-14_08h04.30.003,EPIDM,2023.1.2,60.0482639132081,
9480.jpg,6840.jpg,0 Points,1 Points,,,,,,,,,,,,,,,,,0,8,8,8,,,,,,,,,,,d,2.4915279999986524,,,30,2024-11-14_08h04.30.003,EPIDM,2023.1.2,60.0482639132081,
9220.jpg,7560.jpg,1 Point,4 Points,,,,,,,,,,,,,,,,,0,9,9,9,,,,,,,,,,,j,2.6672309169953223,,,30,2024-11-14_08h04.30.003,EPIDM,2023.1.2,60.0482639132081,
2381.jpg,1313.jpg,1 Point,4 Points,,,,,,,,,,,,,,,,,0,10,10,10,,,,,,,,,,,s,3.4973102920048404,,,30,2024-11-14_08h04.30.003,EPIDM,2023.1.2,60.0482639132081,
1932.jpg,9415.jpg,1 Points,4 Points,,,,,,,,,,,,,,,,,0,11,11,11,,,,,,,,,,,j,3.2397968339937506,,,30,2024-11-14_08h04.30.003,EPIDM,2023.1.2,60.0482639132081,
6000.jpg,9411.jpg,4 Points,0 Points,,,,,,,,,,,,,,,,,0,12,12,12,,,,,,,,,,,a,1.8827129999990575,,,30,2024-11-14_08h04.30.003,EPIDM,2023.1.2,60.0482639132081,
9010.jpg,5450.jpg,0 Points,5 Points,,,,,,,,,,,,,,,,,0,13,13,13,,,,,,,,,,,d,1.8248141660005786,,,30,2024-11-14_08h04.30.003,EPIDM,2023.1.2,60.0482639132081,
1540.jpg,1560.jpg,1 Point,0 Points,,,,,,,,,,,,,,,,,0,14,14,14,,,,,,,,,,,d,2.620404041997972,,,30,2024-11-14_08h04.30.003,EPIDM,2023.1.2,60.0482639132081,
7006.jpg,9622.jpg,3 Points,2 Points,,,,,,,,,,,,,,,,,0,15,15,15,,,,,,,,,,,d,1.7634226660011336,,,30,2024-11-14_08h04.30.003,EPIDM,2023.1.2,60.0482639132081,
5030.jpg,4274.jpg,3 Points,2 Points,,,,,,,,,,,,,,,,,0,16,16,16,,,,,,,,,,,l,2.242114958993625,,,30,2024-11-14_08h04.30.003,EPIDM,2023.1.2,60.0482639132081,
5622.jpg,7495.jpg,4 Points,1 Points,,,,,,,,,,,,,,,,,0,17,17,17,,,,,,,,,,,s,2.661556292005116,,,30,2024-11-14_08h04.30.003,EPIDM,2023.1.2,60.0482639132081,
6910.jpg,9160.jpg,0 Points,4 Points,,,,,,,,,,,,,,,,,0,18,18,18,,,,,,,,,,,j,3.253385000003618,,,30,2024-11-14_08h04.30.003,EPIDM,2023.1.2,60.0482639132081,
7096.jpg,1040.jpg,5 Points,0 Points,,,,,,,,,,,,,,,,,0,19,19,19,,,,,,,,,,,d,2.1973329999891575,,,30,2024-11-14_08h04.30.003,EPIDM,2023.1.2,60.0482639132081,
6940.jpg,9561.jpg,2 Points,3 Points,,,,,,,,,,,,,,,,,0,20,20,20,,,,,,,,,,,k,1.7254606670030626,,,30,2024-11-14_08h04.30.003,EPIDM,2023.1.2,60.0482639132081,
1112.jpg,6415.jpg,3 Points,2 Points,,,,,,,,,,,,,,,,,0,21,21,21,,,,,,,,,,,d,1.5725602919992525,space,2.5549463749921415,30,2024-11-14_08h04.30.003,EPIDM,2023.1.2,60.0482639132081,
7480.jpg,4533.jpg,0 Points,3 Points,,,,,,,,,,,,,,,,,0,22,22,22,,,,,,,,,,,l,2.625884249995579,,,30,2024-11-14_08h04.30.003,EPIDM,2023.1.2,60.0482639132081,
7183.jpg,9800.jpg,4 Points,1 Point,,,,,,,,,,,,,,,,,0,23,23,23,,,,,,,,,,,s,2.7100386670063017,,,30,2024-11-14_08h04.30.003,EPIDM,2023.1.2,60.0482639132081,
9210.jpg,9290.jpg,1 Point,2 Points,,,,,,,,,,,,,,,,,0,24,24,24,,,,,,,,,,,d,2.1548259999981383,,,30,2024-11-14_08h04.30.003,EPIDM,2023.1.2,60.0482639132081,
4532.jpg,7150.jpg,3 Points,2 Points,,,,,,,,,,,,,,,,,0,25,25,25,,,,,,,,,,,s,3.329907000006642,,,30,2024-11-14_08h04.30.003,EPIDM,2023.1.2,60.0482639132081,
3022.jpg,9417.jpg,0 Points,1 Point,,,,,,,,,,,,,,,,,0,26,26,26,,,,,,,,,,,j,3.152269582991721,,,30,2024-11-14_08h04.30.003,EPIDM,2023.1.2,60.0482639132081,
3069.jpg,6314.jpg,3 Points,2 Points,,,,,,,,,,,,,,,,,0,27,27,27,,,,,,,,,,,j,2.420369416999165,,,30,2024-11-14_08h04.30.003,EPIDM,2023.1.2,60.0482639132081,
8400.jpg,2590.jpg,1 Point,4 Points,,,,,,,,,,,,,,,,,0,28,28,28,,,,,,,,,,,k,2.2689917919924483,,,30,2024-11-14_08h04.30.003,EPIDM,2023.1.2,60.0482639132081,
2880.jpg,7281.jpg,5 Points,0 Points,,,,,,,,,,,,,,,,,0,29,29,29,,,,,,,,,,,s,2.8008742920064833,,,30,2024-11-14_08h04.30.003,EPIDM,2023.1.2,60.0482639132081,
8311.jpg,1900.jpg,2 Points,4 Points,,,,,,,,,,,,,,,,,0,30,30,30,,,,,,,,,,,l,2.802572708998923,,,30,2024-11-14_08h04.30.003,EPIDM,2023.1.2,60.0482639132081,
7010.jpg,1120.jpg,2 Points,3 Points,,,,,,,,,,,,,,,,,0,31,31,31,,,,,,,,,,,a,1.8361128750111675,,,30,2024-11-14_08h04.30.003,EPIDM,2023.1.2,60.0482639132081,
5970.jpg,9000.jpg,0 Points,4 Points,,,,,,,,,,,,,,,,,0,32,32,32,,,,,,,,,,,s,2.506367334004608,,,30,2024-11-14_08h04.30.003,EPIDM,2023.1.2,60.0482639132081,
6610.jpg,9911.jpg,0 Points,5 Points,,,,,,,,,,,,,,,,,0,33,33,33,,,,,,,,,,,a,2.7748923749895766,,,30,2024-11-14_08h04.30.003,EPIDM,2023.1.2,60.0482639132081,
2752.jpg,7360.jpg,2 Points,1 Point,,,,,,,,,,,,,,,,,0,34,34,34,,,,,,,,,,,j,2.195942542006378,,,30,2024-11-14_08h04.30.003,EPIDM,2023.1.2,60.0482639132081,
7090.jpg,9360.jpg,4 Points,1 Point,,,,,,,,,,,,,,,,,0,35,35,35,,,,,,,,,,,s,3.423161499988055,,,30,2024-11-14_08h04.30.003,EPIDM,2023.1.2,60.0482639132081,
4279.jpg,2030.jpg,5 Points,0 Points,,,,,,,,,,,,,,,,,0,36,36,36,,,,,,,,,,,a,2.5374725840083556,,,30,2024-11-14_08h04.30.003,EPIDM,2023.1.2,60.0482639132081,
9920.jpg,5950.jpg,5 Points,0 Points,,,,,,,,,,,,,,,,,0,37,37,37,,,,,,,,,,,k,1.8158219169999938,space,4.971093957996345,30,2024-11-14_08h04.30.003,EPIDM,2023.1.2,60.0482639132081,
9101.jpg,2800.jpg,2 Points,4 Points,,,,,,,,,,,,,,,,,0,38,38,38,,,,,,,,,,,j,3.04787920799572,,,30,2024-11-14_08h04.30.003,EPIDM,2023.1.2,60.0482639132081,
5626.jpg,5533.jpg,2 Points,3 Points,,,,,,,,,,,,,,,,,0,39,39,39,,,,,,,,,,,k,1.7175022500014165,,,30,2024-11-14_08h04.30.003,EPIDM,2023.1.2,60.0482639132081,
6244.jpg,9041.jpg,0 Points,4 Points,,,,,,,,,,,,,,,,,0,40,40,40,,,,,,,,,,,d,2.9782943749887636,,,30,2024-11-14_08h04.30.003,EPIDM,2023.1.2,60.0482639132081,
6250.1.jpg,7705.jpg,0 Points,5 Points,,,,,,,,,,,,,,,,,0,41,41,41,,,,,,,,,,,s,2.2909941249963595,,,30,2024-11-14_08h04.30.003,EPIDM,2023.1.2,60.0482639132081,
4536.jpg,7170.jpg,4 Points,2 Points,,,,,,,,,,,,,,,,,0,42,42,42,,,,,,,,,,,s,2.5019807079952443,,,30,2024-11-14_08h04.30.003,EPIDM,2023.1.2,60.0482639132081,
7140.jpg,1590.jpg,0 Points,5 Points,,,,,,,,,,,,,,,,,0,43,43,43,,,,,,,,,,,j,2.3635262080060784,,,30,2024-11-14_08h04.30.003,EPIDM,2023.1.2,60.0482639132081,
2870.jpg,8503.jpg,5 Points,2 Points,,,,,,,,,,,,,,,,,0,44,44,44,,,,,,,,,,,k,4.1930772500054445,,,30,2024-11-14_08h04.30.003,EPIDM,2023.1.2,60.0482639132081,
8480.jpg,9830.jpg,1 Point,4 Points,,,,,,,,,,,,,,,,,0,45,45,45,,,,,,,,,,,k,2.3641062090027845,,,30,2024-11-14_08h04.30.003,EPIDM,2023.1.2,60.0482639132081,
F149.jpg,6571.jpg,0 Points,2 Points,,,,,,,,,,,,,,,,,0,46,46,46,,,,,,,,,,,j,2.423448665998876,,,30,2024-11-14_08h04.30.003,EPIDM,2023.1.2,60.0482639132081,
9621.jpg,5972.jpg,0 Points,5 Points,,,,,,,,,,,,,,,,,0,47,47,47,,,,,,,,,,,j,2.4874091249948833,,,30,2024-11-14_08h04.30.003,EPIDM,2023.1.2,60.0482639132081,
9401.jpg,9110.jpg,2 Points,1 Point,,,,,,,,,,,,,,,,,0,48,48,48,,,,,,,,,,,a,1.4980735830031335,,,30,2024-11-14_08h04.30.003,EPIDM,2023.1.2,60.0482639132081,
1022.jpg,7031.jpg,1 Point,4 Points,,,,,,,,,,,,,,,,,0,49,49,49,,,,,,,,,,,d,3.052652833008324,,,30,2024-11-14_08h04.30.003,EPIDM,2023.1.2,60.0482639132081,
5480.jpg,2312.jpg,4 Points,1 Points,,,,,,,,,,,,,,,,,0,50,50,50,,,,,,,,,,,s,2.2277350410004146,,,30,2024-11-14_08h04.30.003,EPIDM,2023.1.2,60.0482639132081,
7025.jpg,9584.jpg,3 Points,2 Points,,,,,,,,,,,,,,,,,0,51,51,51,,,,,,,,,,,s,1.99245916599466,,,30,2024-11-14_08h04.30.003,EPIDM,2023.1.2,60.0482639132081,
1201.jpg,3180.jpg,3 Points,5 Points,,,,,,,,,,,,,,,,,0,52,52,52,,,,,,,,,,,j,2.2654857500019716,,,30,2024-11-14_08h04.30.003,EPIDM,2023.1.2,60.0482639132081,
3210.jpg,7130.jpg,1 Point,4 Points,,,,,,,,,,,,,,,,,0,53,53,53,,,,,,,,,,,d,2.1024350410007173,space,4.913058374993852,30,2024-11-14_08h04.30.003,EPIDM,2023.1.2,60.0482639132081,
2487.jpg,4598.jpg,2 Points,1 Point,,,,,,,,,,,,,,,,,0,54,54,54,,,,,,,,,,,s,3.370370999997249,,,30,2024-11-14_08h04.30.003,EPIDM,2023.1.2,60.0482639132081,
7224.jpg,9102.jpg,2 Points,3 Points,,,,,,,,,,,,,,,,,0,55,55,55,,,,,,,,,,,d,2.5191457500040997,,,30,2024-11-14_08h04.30.003,EPIDM,2023.1.2,60.0482639132081,
F369.jpg,6260.jpg,2 Points,3 Points,,,,,,,,,,,,,,,,,0,56,56,56,,,,,,,,,,,k,1.3036457919952227,,,30,2024-11-14_08h04.30.003,EPIDM,2023.1.2,60.0482639132081,
5000.jpg,1603.jpg,4 Points,1 Points,,,,,,,,,,,,,,,,,0,57,57,57,,,,,,,,,,,s,1.1612384999898495,,,30,2024-11-14_08h04.30.003,EPIDM,2023.1.2,60.0482639132081,
5982.jpg,5760.jpg,5 Points,1 Point,,,,,,,,,,,,,,,,,0,58,58,58,,,,,,,,,,,s,2.854926333995536,,,30,2024-11-14_08h04.30.003,EPIDM,2023.1.2,60.0482639132081,
5890.jpg,5780.jpg,2 Points,3 Points,,,,,,,,,,,,,,,,,0,59,59,59,,,,,,,,,,,j,2.0998375409981236,,,30,2024-11-14_08h04.30.003,EPIDM,2023.1.2,60.0482639132081,
F158.jpg,9582.jpg,3 Points,5 Points,,,,,,,,,,,,,,,,,0,60,60,60,,,,,,,,,,,j,4.3072054170042975,,,30,2024-11-14_08h04.30.003,EPIDM,2023.1.2,60.0482639132081,
9440.jpg,1274.jpg,4 Points,1 Points,,,,,,,,,,,,,,,,,0,61,61,61,,,,,,,,,,,s,2.090456499994616,,,30,2024-11-14_08h04.30.003,EPIDM,2023.1.2,60.0482639132081,
F032.jpg,9594.jpg,1 Point,4 Points,,,,,,,,,,,,,,,,,0,62,62,62,,,,,,,,,,,k,2.591636249999283,,,30,2024-11-14_08h04.30.003,EPIDM,2023.1.2,60.0482639132081,
7233.jpg,1850.jpg,0 Points,5 Points,,,,,,,,,,,,,,,,,0,63,63,63,,,,,,,,,,,l,2.2377436670067254,,,30,2024-11-14_08h04.30.003,EPIDM,2023.1.2,60.0482639132081,
7580.jpg,7546.jpg,3 Points,2 Points,,,,,,,,,,,,,,,,,0,64,64,64,,,,,,,,,,,s,2.5713289580016863,,,30,2024-11-14_08h04.30.003,EPIDM,2023.1.2,60.0482639132081,
5200.jpg,5820.jpg,0 Points,5 Points,,,,,,,,,,,,,,,,,0,65,65,65,,,,,,,,,,,d,1.9317791250068694,,,30,2024-11-14_08h04.30.003,EPIDM,2023.1.2,60.0482639132081,
7280.jpg,2560.jpg,0 Points,4 Points,,,,,,,,,,,,,,,,,0,66,66,66,,,,,,,,,,,l,2.6462507079995703,,,30,2024-11-14_08h04.30.003,EPIDM,2023.1.2,60.0482639132081,
5593.jpg,5600.jpg,0 Points,5 Points,,,,,,,,,,,,,,,,,0,67,67,67,,,,,,,,,,,s,2.8286376670002937,,,30,2024-11-14_08h04.30.003,EPIDM,2023.1.2,60.0482639132081,
2141.jpg,9611.jpg,5 Points,3 Points,,,,,,,,,,,,,,,,,0,68,68,68,,,,,,,,,,,j,1.9272341670002788,,,30,2024-11-14_08h04.30.003,EPIDM,2023.1.2,60.0482639132081,
9190.jpg,7110.jpg,0 Points,5 Points,,,,,,,,,,,,,,,,,0,69,69,69,,,,,,,,,,,k,2.1306884579971666,space,7.807079959005932,30,2024-11-14_08h04.30.003,EPIDM,2023.1.2,60.0482639132081,
1240.jpg,6300.jpg,3 Points,2 Points,,,,,,,,,,,,,,,,,0,70,70,70,,,,,,,,,,,k,1.2681509170070058,,,30,2024-11-14_08h04.30.003,EPIDM,2023.1.2,60.0482639132081,
5900.jpg,7503.jpg,3 Points,2 Points,,,,,,,,,,,,,,,,,0,71,71,71,,,,,,,,,,,s,1.3827643340046052,,,30,2024-11-14_08h04.30.003,EPIDM,2023.1.2,60.0482639132081,
2580.jpg,1910.jpg,3 Points,2 Points,,,,,,,,,,,,,,,,,0,72,72,72,,,,,,,,,,,j,2.9681511249946197,,,30,2024-11-14_08h04.30.003,EPIDM,2023.1.2,60.0482639132081,
7282.jpg,5849.jpg,3 Points,2 Points,,,,,,,,,,,,,,,,,0,73,73,73,,,,,,,,,,,s,2.8238171670091106,,,30,2024-11-14_08h04.30.003,EPIDM,2023.1.2,60.0482639132081,
2260.jpg,7100.jpg,5 Points,3 Points,,,,,,,,,,,,,,,,,0,74,74,74,,,,,,,,,,,k,2.3632139999972424,,,30,2024-11-14_08h04.30.003,EPIDM,2023.1.2,60.0482639132081,
5629.jpg,5870.jpg,0 Points,5 Points,,,,,,,,,,,,,,,,,0,75,75,75,,,,,,,,,,,k,1.2133404160122154,,,30,2024-11-14_08h04.30.003,EPIDM,2023.1.2,60.0482639132081,
2717.jpg,9330.jpg,4 Points,5 Points,,,,,,,,,,,,,,,,,0,76,76,76,,,,,,,,,,,k,1.079930207997677,,,30,2024-11-14_08h04.30.003,EPIDM,2023.1.2,60.0482639132081,
7350.jpg,7286.jpg,0 Points,5 Points,,,,,,,,,,,,,,,,,0,77,77,77,,,,,,,,,,,l,2.773044083005516,,,30,2024-11-14_08h04.30.003,EPIDM,2023.1.2,60.0482639132081,
4100.jpg,4605.jpg,3 Points,4 Points,,,,,,,,,,,,,,,,,0,78,78,78,,,,,,,,,,,d,3.294036832987331,,,30,2024-11-14_08h04.30.003,EPIDM,2023.1.2,60.0482639132081,
7035.jpg,7002.jpg,1 Points,4 Points,,,,,,,,,,,,,,,,,0,79,79,79,,,,,,,,,,,k,1.9405654579895781,,,30,2024-11-14_08h04.30.003,EPIDM,2023.1.2,60.0482639132081,
8210.jpg,8330.jpg,3 Points,0 Points,,,,,,,,,,,,,,,,,0,80,80,80,,,,,,,,,,,s,2.0750980419979896,,,30,2024-11-14_08h04.30.003,EPIDM,2023.1.2,60.0482639132081,
4510.jpg,F252.jpg,5 Points,0 Points,,,,,,,,,,,,,,,,,0,81,81,81,,,,,,,,,,,k,2.9910111659992253,,,30,2024-11-14_08h04.30.003,EPIDM,2023.1.2,60.0482639132081,
7380.jpg,8231.jpg,1 Point,4 Points,,,,,,,,,,,,,,,,,0,82,82,82,,,,,,,,,,,j,2.806590000007418,,,30,2024-11-14_08h04.30.003,EPIDM,2023.1.2,60.0482639132081,
5720.jpg,2383.jpg,3 Points,2 Points,,,,,,,,,,,,,,,,,0,83,83,83,,,,,,,,,,,d,2.4402618750027614,,,30,2024-11-14_08h04.30.003,EPIDM,2023.1.2,60.0482639132081,
6560.jpg,9432.jpg,2 Points,5 Points,,,,,,,,,,,,,,,,,0,84,84,84,,,,,,,,,,,d,3.562828416004777,,,30,2024-11-14_08h04.30.003,EPIDM,2023.1.2,60.0482639132081,
3181.jpg,9913.jpg,4 Points,1 Points,,,,,,,,,,,,,,,,,0,85,85,85,,,,,,,,,,,k,3.342827957996633,space,1.8807065840082942,30,2024-11-14_08h04.30.003,EPIDM,2023.1.2,60.0482639132081,
5471.jpg,5010.jpg,2 Points,5 Points,,,,,,,,,,,,,,,,,0,86,86,86,,,,,,,,,,,j,0.9657121670024935,,,30,2024-11-14_08h04.30.003,EPIDM,2023.1.2,60.0482639132081,
2683.jpg,6010.jpg,3 Points,2 Points,,,,,,,,,,,,,,,,,0,87,87,87,,,,,,,,,,,k,2.324752250002348,,,30,2024-11-14_08h04.30.003,EPIDM,2023.1.2,60.0482639132081,
2650.jpg,5534.jpg,5 Points,3 Points,,,,,,,,,,,,,,,,,0,88,88,88,,,,,,,,,,,d,1.5286572499899194,,,30,2024-11-14_08h04.30.003,EPIDM,2023.1.2,60.0482639132081,
8090.jpg,5831.jpg,2 Points,3 Points,,,,,,,,,,,,,,,,,0,89,89,89,,,,,,,,,,,j,1.9459727079956792,,,30,2024-11-14_08h04.30.003,EPIDM,2023.1.2,60.0482639132081,
9320.jpg,1101.jpg,0 Points,3 Points,,,,,,,,,,,,,,,,,0,90,90,90,,,,,,,,,,,k,2.844313665991649,,,30,2024-11-14_08h04.30.003,EPIDM,2023.1.2,60.0482639132081,
7034.jpg,2810.jpg,2 Points,3 Points,,,,,,,,,,,,,,,,,0,91,91,91,,,,,,,,,,,s,2.4595743749960093,,,30,2024-11-14_08h04.30.003,EPIDM,2023.1.2,60.0482639132081,
3500.jpg,3230.jpg,4 Points,2 Points,,,,,,,,,,,,,,,,,0,92,92,92,,,,,,,,,,,j,3.068417624992435,,,30,2024-11-14_08h04.30.003,EPIDM,2023.1.2,60.0482639132081,
6561.jpg,7211.jpg,2 Points,3 Points,,,,,,,,,,,,,,,,,0,93,93,93,,,,,,,,,,,s,2.0550696249993052,,,30,2024-11-14_08h04.30.003,EPIDM,2023.1.2,60.0482639132081,
8350.jpg,5300.jpg,5 Points,1 Point,,,,,,,,,,,,,,,,,0,94,94,94,,,,,,,,,,,k,1.5126787500048522,,,30,2024-11-14_08h04.30.003,EPIDM,2023.1.2,60.0482639132081,
2500.jpg,2630.jpg,5 Points,0 Points,,,,,,,,,,,,,,,,,0,95,95,95,,,,,,,,,,,s,1.9903278749989113,,,30,2024-11-14_08h04.30.003,EPIDM,2023.1.2,60.0482639132081,
9404.jpg,6212.jpg,5 Points,4 Points,,,,,,,,,,,,,,,,,0,96,96,96,,,,,,,,,,,j,2.5931285830010893,,,30,2024-11-14_08h04.30.003,EPIDM,2023.1.2,60.0482639132081,
5994.jpg,5700.jpg,0 Points,5 Points,,,,,,,,,,,,,,,,,0,97,97,97,,,,,,,,,,,k,1.7131897500075866,,,30,2024-11-14_08h04.30.003,EPIDM,2023.1.2,60.0482639132081,
5500.jpg,5520.jpg,3 Points,2 Points,,,,,,,,,,,,,,,,,0,98,98,98,,,,,,,,,,,j,1.2797609999979613,,,30,2024-11-14_08h04.30.003,EPIDM,2023.1.2,60.0482639132081,
7545.jpg,7320.jpg,5 Points,0 Points,,,,,,,,,,,,,,,,,0,99,99,99,,,,,,,,,,,d,2.6316510000033304,,,30,2024-11-14_08h04.30.003,EPIDM,2023.1.2,60.0482639132081,
2220.jpg,2210.jpg,5 Points,0 Points,,,,,,,,,,,,,,,,,0,100,100,100,,,,,,,,,,,a,1.378868917003274,,,30,2024-11-14_08h04.30.003,EPIDM,2023.1.2,60.0482639132081,
7184.jpg,9700.jpg,4 Points,1 Points,,,,,,,,,,,,,,,,,0,101,101,101,,,,,,,,,,,s,3.1902585000061663,space,2.1018300829891814,30,2024-11-14_08h04.30.003,EPIDM,2023.1.2,60.0482639132081,
1390.jpg,A025.jpg,2 Points,0 Points,,,,,,,,,,,,,,,,,0,102,102,102,,,,,,,,,,,j,2.7746593750052853,,,30,2024-11-14_08h04.30.003,EPIDM,2023.1.2,60.0482639132081,
7182.jpg,7620.jpg,4 Points,1 Point,,,,,,,,,,,,,,,,,0,103,103,103,,,,,,,,,,,s,4.823693415994057,,,30,2024-11-14_08h04.30.003,EPIDM,2023.1.2,60.0482639132081,
4608.jpg,2514.jpg,1 Point,5 Points,,,,,,,,,,,,,,,,,0,104,104,104,,,,,,,,,,,s,1.8697069579939125,,,30,2024-11-14_08h04.30.003,EPIDM,2023.1.2,60.0482639132081,
2620.jpg,5470.jpg,0 Points,5 Points,,,,,,,,,,,,,,,,,0,105,105,105,,,,,,,,,,,k,2.1889362500078278,,,30,2024-11-14_08h04.30.003,EPIDM,2023.1.2,60.0482639132081,
6242.jpg,6213.jpg,4 Points,1 Point,,,,,,,,,,,,,,,,,0,106,106,106,,,,,,,,,,,s,1.8780398340022657,,,30,2024-11-14_08h04.30.003,EPIDM,2023.1.2,60.0482639132081,
5731.jpg,2606.jpg,4 Points,1 Point,,,,,,,,,,,,,,,,,0,107,107,107,,,,,,,,,,,s,1.708078583003953,,,30,2024-11-14_08h04.30.003,EPIDM,2023.1.2,60.0482639132081,
1650.jpg,8510.jpg,1 Points,4 Points,,,,,,,,,,,,,,,,,0,108,108,108,,,,,,,,,,,j,1.8454870420100633,,,30,2024-11-14_08h04.30.003,EPIDM,2023.1.2,60.0482639132081,
4770.jpg,5920.jpg,3 Points,2 Points,,,,,,,,,,,,,,,,,0,109,109,109,,,,,,,,,,,j,2.0577859170007287,,,30,2024-11-14_08h04.30.003,EPIDM,2023.1.2,60.0482639132081,
8220.jpg,7009.jpg,4 Points,5 Points,,,,,,,,,,,,,,,,,0,110,110,110,,,,,,,,,,,k,3.1344656660076,,,30,2024-11-14_08h04.30.003,EPIDM,2023.1.2,60.0482639132081,
7040.jpg,P077.jpg,4 Points,1 Point,,,,,,,,,,,,,,,,,0,111,111,111,,,,,,,,,,,d,1.5817519169941079,,,30,2024-11-14_08h04.30.003,EPIDM,2023.1.2,60.0482639132081,
6510.jpg,6190.jpg,2 Points,5 Points,,,,,,,,,,,,,,,,,0,112,112,112,,,,,,,,,,,k,1.1610715410060948,,,30,2024-11-14_08h04.30.003,EPIDM,2023.1.2,60.0482639132081,
P233.jpg,7217.jpg,1 Point,4 Points,,,,,,,,,,,,,,,,,0,113,113,113,,,,,,,,,,,j,2.4882008749991655,,,30,2024-11-14_08h04.30.003,EPIDM,2023.1.2,60.0482639132081,
3064.jpg,9070.jpg,4 Points,2 Points,,,,,,,,,,,,,,,,,0,114,114,114,,,,,,,,,,,k,3.470640874991659,,,30,2024-11-14_08h04.30.003,EPIDM,2023.1.2,60.0482639132081,
7207.jpg,2320.jpg,1 Points,4 Points,,,,,,,,,,,,,,,,,0,115,115,115,,,,,,,,,,,k,2.8162686249997932,,,30,2024-11-14_08h04.30.003,EPIDM,2023.1.2,60.0482639132081,
1640.jpg,1720.jpg,3 Points,4 Points,,,,,,,,,,,,,,,,,0,116,116,116,,,,,,,,,,,j,2.0913967079977738,,,30,2024-11-14_08h04.30.003,EPIDM,2023.1.2,60.0482639132081,
1050.jpg,7030.jpg,4 Points,1 Points,,,,,,,,,,,,,,,,,0,117,117,117,,,,,,,,,,,l,1.3093991659989115,space,3.728462541999761,30,2024-11-14_08h04.30.003,EPIDM,2023.1.2,60.0482639132081,
1947.jpg,4535.jpg,5 Points,1 Point,,,,,,,,,,,,,,,,,0,118,118,118,,,,,,,,,,,d,2.052543041994795,,,30,2024-11-14_08h04.30.003,EPIDM,2023.1.2,60.0482639132081,
7020.jpg,6150.jpg,5 Points,0 Points,,,,,,,,,,,,,,,,,0,119,119,119,,,,,,,,,,,d,2.910292415996082,,,30,2024-11-14_08h04.30.003,EPIDM,2023.1.2,60.0482639132081,
2753.jpg,1090.jpg,0 Points,5 Points,,,,,,,,,,,,,,,,,0,120,120,120,,,,,,,,,,,d,2.5240417500026524,,,30,2024-11-14_08h04.30.003,EPIDM,2023.1.2,60.0482639132081,
6210.jpg,7080.jpg,1 Point,4 Points,,,,,,,,,,,,,,,,,0,121,121,121,,,,,,,,,,,k,2.2118458750046557,,,30,2024-11-14_08h04.30.003,EPIDM,2023.1.2,60.0482639132081,
7260.jpg,8280.jpg,5 Points,3 Points,,,,,,,,,,,,,,,,,0,122,122,122,,,,,,,,,,,s,3.1102444999996806,,,30,2024-11-14_08h04.30.003,EPIDM,2023.1.2,60.0482639132081,
5740.jpg,7205.jpg,0 Points,5 Points,,,,,,,,,,,,,,,,,0,123,123,123,,,,,,,,,,,j,2.98229495799751,,,30,2024-11-14_08h04.30.003,EPIDM,2023.1.2,60.0482639132081,
2840.jpg,7185.jpg,2 Points,1 Point,,,,,,,,,,,,,,,,,0,124,124,124,,,,,,,,,,,d,2.341623875006917,,,30,2024-11-14_08h04.30.003,EPIDM,2023.1.2,60.0482639132081,
5410.jpg,5530.jpg,5 Points,0 Points,,,,,,,,,,,,,,,,,0,125,125,125,,,,,,,,,,,s,1.385095875011757,,,30,2024-11-14_08h04.30.003,EPIDM,2023.1.2,60.0482639132081,
2276.jpg,1930.jpg,3 Points,1 Point,,,,,,,,,,,,,,,,,0,126,126,126,,,,,,,,,,,d,2.45117908300017,,,30,2024-11-14_08h04.30.003,EPIDM,2023.1.2,60.0482639132081,
5628.jpg,5660.jpg,5 Points,0 Points,,,,,,,,,,,,,,,,,0,127,127,127,,,,,,,,,,,j,1.3826667910034303,,,30,2024-11-14_08h04.30.003,EPIDM,2023.1.2,60.0482639132081,
4250.jpg,7830.jpg,5 Points,3 Points,,,,,,,,,,,,,,,,,0,128,128,128,,,,,,,,,,,k,2.5162376669904916,,,30,2024-11-14_08h04.30.003,EPIDM,2023.1.2,60.0482639132081,
2512.jpg,7050.jpg,1 Point,4 Points,,,,,,,,,,,,,,,,,0,129,129,129,,,,,,,,,,,l,1.8912136669969186,,,30,2024-11-14_08h04.30.003,EPIDM,2023.1.2,60.0482639132081,
4621.jpg,3280.jpg,2 Points,0 Points,,,,,,,,,,,,,,,,,0,130,130,130,,,,,,,,,,,j,2.596729167009471,,,30,2024-11-14_08h04.30.003,EPIDM,2023.1.2,60.0482639132081,
5910.jpg,5800.jpg,5 Points,0 Points,,,,,,,,,,,,,,,,,0,131,131,131,,,,,,,,,,,k,1.2311291250080103,,,30,2024-11-14_08h04.30.003,EPIDM,2023.1.2,60.0482639132081,
9592.jpg,6200.jpg,2 Points,5 Points,,,,,,,,,,,,,,,,,0,132,132,132,,,,,,,,,,,k,1.5934633750002831,,,30,2024-11-14_08h04.30.003,EPIDM,2023.1.2,60.0482639132081,
7285.jpg,5875.jpg,5 Points,0 Points,,,,,,,,,,,,,,,,,0,133,133,133,,,,,,,,,,,k,2.5972849159879843,space,6.983256749997963,30,2024-11-14_08h04.30.003,EPIDM,2023.1.2,60.0482639132081,
2221.jpg,2000.jpg,2 Points,0 Points,,,,,,,,,,,,,,,,,0,134,134,134,,,,,,,,,,,s,1.759492292010691,,,30,2024-11-14_08h04.30.003,EPIDM,2023.1.2,60.0482639132081,
9600.jpg,7640.jpg,5 Points,0 Points,,,,,,,,,,,,,,,,,0,135,135,135,,,,,,,,,,,s,1.5549825000052806,,,30,2024-11-14_08h04.30.003,EPIDM,2023.1.2,60.0482639132081,
1810.jpg,2616.jpg,3 Points,4 Points,,,,,,,,,,,,,,,,,0,136,136,136,,,,,,,,,,,d,2.7721008340013213,,,30,2024-11-14_08h04.30.003,EPIDM,2023.1.2,60.0482639132081,
9046.jpg,9630.jpg,3 Points,2 Points,,,,,,,,,,,,,,,,,0,137,137,137,,,,,,,,,,,s,1.8539654999913182,,,30,2024-11-14_08h04.30.003,EPIDM,2023.1.2,60.0482639132081,
9560.jpg,2700.jpg,1 Point,3 Points,,,,,,,,,,,,,,,,,0,138,138,138,,,,,,,,,,,k,2.872097333005513,,,30,2024-11-14_08h04.30.003,EPIDM,2023.1.2,60.0482639132081,
7000.jpg,1321.jpg,2 Points,3 Points,,,,,,,,,,,,,,,,,0,139,139,139,,,,,,,,,,,d,1.7915235410036985,,,30,2024-11-14_08h04.30.003,EPIDM,2023.1.2,60.0482639132081,
9331.jpg,1275.jpg,2 Points,1 Point,,,,,,,,,,,,,,,,,0,140,140,140,,,,,,,,,,,s,1.419378291000612,,,30,2024-11-14_08h04.30.003,EPIDM,2023.1.2,60.0482639132081,
9470.jpg,9810.jpg,3 Points,2 Points,,,,,,,,,,,,,,,,,0,141,141,141,,,,,,,,,,,d,3.0636523340072017,,,30,2024-11-14_08h04.30.003,EPIDM,2023.1.2,60.0482639132081,
8033.jpg,7289.jpg,3 Points,0 Points,,,,,,,,,,,,,,,,,0,142,142,142,,,,,,,,,,,k,3.9015594579977915,,,30,2024-11-14_08h04.30.003,EPIDM,2023.1.2,60.0482639132081,
7502.jpg,9181.jpg,5 Points,0 Points,,,,,,,,,,,,,,,,,0,143,143,143,,,,,,,,,,,d,2.4245556669920916,,,30,2024-11-14_08h04.30.003,EPIDM,2023.1.2,60.0482639132081,
7175.jpg,8021.jpg,2 Points,4 Points,,,,,,,,,,,,,,,,,0,144,144,144,,,,,,,,,,,s,2.6427646670053946,,,30,2024-11-14_08h04.30.003,EPIDM,2023.1.2,60.0482639132081,
9280.jpg,9424.jpg,1 Point,4 Points,,,,,,,,,,,,,,,,,0,145,145,145,,,,,,,,,,,s,1.3008155840070685,,,30,2024-11-14_08h04.30.003,EPIDM,2023.1.2,60.0482639132081,
2682.jpg,9252.jpg,5 Points,1 Point,,,,,,,,,,,,,,,,,0,146,146,146,,,,,,,,,,,d,1.5232692909921752,,,30,2024-11-14_08h04.30.003,EPIDM,2023.1.2,60.0482639132081,
7235.jpg,7186.jpg,3 Points,2 Points,,,,,,,,,,,,,,,,,0,147,147,147,,,,,,,,,,,l,1.6000237080006627,,,30,2024-11-14_08h04.30.003,EPIDM,2023.1.2,60.0482639132081,
2440.jpg,7187.jpg,4 Points,1 Point,,,,,,,,,,,,,,,,,0,148,148,148,,,,,,,,,,,s,1.8738617089984473,,,30,2024-11-14_08h04.30.003,EPIDM,2023.1.2,60.0482639132081,
9001.jpg,1230.jpg,1 Point,4 Points,,,,,,,,,,,,,,,,,0,149,149,149,,,,,,,,,,,j,1.5300335840001935,space,5.3191360409982735,30,2024-11-14_08h04.30.003,EPIDM,2023.1.2,60.0482639132081,
9373.jpg,1280.jpg,0 Points,2 Points,,,,,,,,,,,,,,,,,0,150,150,150,,,,,,,,,,,d,3.3285385419876548,,,30,2024-11-14_08h04.30.003,EPIDM,2023.1.2,60.0482639132081,
2716.jpg,A053.jpg,2 Points,3 Points,,,,,,,,,,,,,,,,,0,151,151,151,,,,,,,,,,,j,1.794944791996386,,,30,2024-11-14_08h04.30.003,EPIDM,2023.1.2,60.0482639132081,
1301.jpg,3220.jpg,2 Points,5 Points,,,,,,,,,,,,,,,,,0,152,152,152,,,,,,,,,,,s,1.89058845800173,,,30,2024-11-14_08h04.30.003,EPIDM,2023.1.2,60.0482639132081,
2205.jpg,7550.jpg,4 Points,1 Points,,,,,,,,,,,,,,,,,0,153,153,153,,,,,,,,,,,j,1.4713700419961242,,,30,2024-11-14_08h04.30.003,EPIDM,2023.1.2,60.0482639132081,
4613.jpg,1610.jpg,4 Points,0 Points,,,,,,,,,,,,,,,,,0,154,154,154,,,,,,,,,,,a,1.5177689169941004,,,30,2024-11-14_08h04.30.003,EPIDM,2023.1.2,60.0482639132081,
5991.jpg,5750.jpg,0 Points,5 Points,,,,,,,,,,,,,,,,,0,155,155,155,,,,,,,,,,,k,1.747513041991624,,,30,2024-11-14_08h04.30.003,EPIDM,2023.1.2,60.0482639132081,
9430.jpg,1931.jpg,5 Points,3 Points,,,,,,,,,,,,,,,,,0,156,156,156,,,,,,,,,,,j,1.089965375009342,,,30,2024-11-14_08h04.30.003,EPIDM,2023.1.2,60.0482639132081,
8531.jpg,7095.jpg,4 Points,1 Points,,,,,,,,,,,,,,,,,0,157,157,157,,,,,,,,,,,a,1.4199696249997942,,,30,2024-11-14_08h04.30.003,EPIDM,2023.1.2,60.0482639132081,
2516.jpg,1121.jpg,4 Points,0 Points,,,,,,,,,,,,,,,,,0,158,158,158,,,,,,,,,,,j,1.9228833750094054,,,30,2024-11-14_08h04.30.003,EPIDM,2023.1.2,60.0482639132081,
7004.jpg,1019.jpg,5 Points,0 Points,,,,,,,,,,,,,,,,,0,159,159,159,,,,,,,,,,,a,2.140778750006575,,,30,2024-11-14_08h04.30.003,EPIDM,2023.1.2,60.0482639132081,
