L_Scene,R_Scene,L_Pts,R_Pts,Instructions_Loop.thisRepN,Instructions_Loop.thisTrialN,Instructions_Loop.thisN,Instructions_Loop.thisIndex,Redo_Instructions_Loop.thisRepN,Redo_Instructions_Loop.thisTrialN,Redo_Instructions_Loop.thisN,Redo_Instructions_Loop.thisIndex,Practice_Recognition_Loop.thisRepN,Practice_Recognition_Loop.thisTrialN,Practice_Recognition_Loop.thisN,Practice_Recognition_Loop.thisIndex,Practice_FB_Loop.thisRepN,Practice_FB_Loop.thisTrialN,Practice_FB_Loop.thisN,Practice_FB_Loop.thisIndex,RecStim_Loop.thisRepN,RecStim_Loop.thisTrialN,RecStim_Loop.thisN,RecStim_Loop.thisIndex,FB_Loop.thisRepN,FB_Loop.thisTrialN,FB_Loop.thisN,FB_Loop.thisIndex,RecBrk_Loop.thisRepN,RecBrk_Loop.thisTrialN,RecBrk_Loop.thisN,RecBrk_Loop.thisIndex,Transition_Enc.keys,Transition_Enc.rt,Encoding_Resp.keys,Encoding_Resp.rt,EncBrk_Resp.keys,EncBrk_Resp.rt,participant,date,expName,psychopyVersion,frameRate,
,,,,,,,,,,,,,,,,,,,,,,,,,,,,,,,,space,3.6784804580092896,,,,,33,2024-11-26_16h04.08.101,EPIDM,2023.1.2,None,
F078.jpg,L130.jpg,,,,,,,,,,,0,0,0,0,,,,,,,,,,,,,,,,,,,s,0.10798320900357794,,,33,2024-11-26_16h04.08.101,EPIDM,2023.1.2,None,
P036.jpg,P217.jpg,,,,,,,,,,,0,1,1,1,,,,,,,,,,,,,,,,,,,s,21.961333459010348,,,33,2024-11-26_16h04.08.101,EPIDM,2023.1.2,None,
O161.jpg,F218.jpg,,,,,,,,,,,0,2,2,2,,,,,,,,,,,,,,,,,,,k,4.4621901250066,,,33,2024-11-26_16h04.08.101,EPIDM,2023.1.2,None,
F279.jpg,A001.jpg,,,,,,,,,,,0,3,3,3,,,,,,,,,,,,,,,,,,,a,2.847236499990686,,,33,2024-11-26_16h04.08.101,EPIDM,2023.1.2,None,
F273.jpg,A060.jpg,,,,,,,,,,,0,4,4,4,,,,,,,,,,,,,,,,,,,k,1.1016430000017863,,,33,2024-11-26_16h04.08.101,EPIDM,2023.1.2,None,
2393.jpg,L055.jpg,,,,,,,,,,,0,5,5,5,,,,,,,,,,,,,,,,,,,j,1.1367593750037486,,,33,2024-11-26_16h04.08.101,EPIDM,2023.1.2,None,
1812.jpg,2593.jpg,,,,,,,,,,,0,6,6,6,,,,,,,,,,,,,,,,,,,s,0.796394541990594,,,33,2024-11-26_16h04.08.101,EPIDM,2023.1.2,None,
O013.jpg,A067.jpg,,,,,,,,,,,0,7,7,7,,,,,,,,,,,,,,,,,,,s,0.90975733299274,,,33,2024-11-26_16h04.08.101,EPIDM,2023.1.2,None,
P033.jpg,P034.jpg,,,,,,,,,,,0,8,8,8,,,,,,,,,,,,,,,,,,,s,0.8049872499977937,,,33,2024-11-26_16h04.08.101,EPIDM,2023.1.2,None,
A104.jpg,8186.jpg,,,,,,,,,,,0,9,9,9,,,,,,,,,,,,,,,,,,,l,0.9381172499997774,,,33,2024-11-26_16h04.08.101,EPIDM,2023.1.2,None,
,,,,,,,,,,,,,,,,,,,,,,,,,,,,,,,,space,1.7327496250072727,,,,,33,2024-11-26_16h04.08.101,EPIDM,2023.1.2,None,
8041.jpg,9405.jpg,2 Points,3 Points,,,,,,,,,,,,,,,,,0,0,0,0,,,,,,,,,,,l,11.140407500002766,,,33,2024-11-26_16h04.08.101,EPIDM,2023.1.2,None,
1019.jpg,7004.jpg,0 Points,5 Points,,,,,,,,,,,,,,,,,0,1,1,1,,,,,,,,,,,a,2.459694250006578,,,33,2024-11-26_16h04.08.101,EPIDM,2023.1.2,None,
6360.jpg,6834.jpg,1 Point,5 Points,,,,,,,,,,,,,,,,,0,2,2,2,,,,,,,,,,,k,11.961984041990945,,,33,2024-11-26_16h04.08.101,EPIDM,2023.1.2,None,
7095.jpg,8531.jpg,1 Points,4 Points,,,,,,,,,,,,,,,,,0,3,3,3,,,,,,,,,,,a,6.940555000008317,,,33,2024-11-26_16h04.08.101,EPIDM,2023.1.2,None,
5455.jpg,7570.jpg,0 Points,5 Points,,,,,,,,,,,,,,,,,0,4,4,4,,,,,,,,,,,l,1.3896265830117045,,,33,2024-11-26_16h04.08.101,EPIDM,2023.1.2,None,
5594.jpg,5991.jpg,5 Points,0 Points,,,,,,,,,,,,,,,,,0,5,5,5,,,,,,,,,,,a,1.8318414579989621,space,15.951554790997761,33,2024-11-26_16h04.08.101,EPIDM,2023.1.2,None,
5971.jpg,9050.jpg,5 Points,4 Points,,,,,,,,,,,,,,,,,0,6,6,6,,,,,,,,,,,a,4.124191166003584,,,33,2024-11-26_16h04.08.101,EPIDM,2023.1.2,None,
7550.jpg,2205.jpg,1 Points,4 Points,,,,,,,,,,,,,,,,,0,7,7,7,,,,,,,,,,,k,4.961976833001245,,,33,2024-11-26_16h04.08.101,EPIDM,2023.1.2,None,
9250.jpg,6840.jpg,0 Points,1 Points,,,,,,,,,,,,,,,,,0,8,8,8,,,,,,,,,,,a,3.022859500008053,,,33,2024-11-26_16h04.08.101,EPIDM,2023.1.2,None,
A053.jpg,2716.jpg,3 Points,2 Points,,,,,,,,,,,,,,,,,0,9,9,9,,,,,,,,,,,a,2.2855042080045678,,,33,2024-11-26_16h04.08.101,EPIDM,2023.1.2,None,
2518.jpg,1313.jpg,1 Point,4 Points,,,,,,,,,,,,,,,,,0,10,10,10,,,,,,,,,,,l,6.029336625011638,,,33,2024-11-26_16h04.08.101,EPIDM,2023.1.2,None,
1230.jpg,9001.jpg,4 Points,1 Point,,,,,,,,,,,,,,,,,0,11,11,11,,,,,,,,,,,l,3.5040017910068855,,,33,2024-11-26_16h04.08.101,EPIDM,2023.1.2,None,
6836.jpg,9411.jpg,4 Points,0 Points,,,,,,,,,,,,,,,,,0,12,12,12,,,,,,,,,,,s,4.494397583010141,,,33,2024-11-26_16h04.08.101,EPIDM,2023.1.2,None,
7186.jpg,7235.jpg,2 Points,3 Points,,,,,,,,,,,,,,,,,0,13,13,13,,,,,,,,,,,a,1.5363082499970915,,,33,2024-11-26_16h04.08.101,EPIDM,2023.1.2,None,
2600.jpg,1560.jpg,1 Point,0 Points,,,,,,,,,,,,,,,,,0,14,14,14,,,,,,,,,,,a,8.952342167001916,,,33,2024-11-26_16h04.08.101,EPIDM,2023.1.2,None,
9424.jpg,9280.jpg,4 Points,1 Point,,,,,,,,,,,,,,,,,0,15,15,15,,,,,,,,,,,l,3.7947663750092033,,,33,2024-11-26_16h04.08.101,EPIDM,2023.1.2,None,
1670.jpg,8160.jpg,3 Points,2 Points,,,,,,,,,,,,,,,,,0,16,16,16,,,,,,,,,,,s,3.5327394579944666,,,33,2024-11-26_16h04.08.101,EPIDM,2023.1.2,None,
9230.jpg,7502.jpg,0 Points,5 Points,,,,,,,,,,,,,,,,,0,17,17,17,,,,,,,,,,,l,3.1196610830083955,,,33,2024-11-26_16h04.08.101,EPIDM,2023.1.2,None,
9340.jpg,9160.jpg,0 Points,4 Points,,,,,,,,,,,,,,,,,0,18,18,18,,,,,,,,,,,k,2.0905872079893015,,,33,2024-11-26_16h04.08.101,EPIDM,2023.1.2,None,
9810.jpg,9400.jpg,2 Points,3 Points,,,,,,,,,,,,,,,,,0,19,19,19,,,,,,,,,,,k,3.202788625014364,,,33,2024-11-26_16h04.08.101,EPIDM,2023.1.2,None,
9910.jpg,6241.jpg,2 Points,3 Points,,,,,,,,,,,,,,,,,0,20,20,20,,,,,,,,,,,s,3.76812650001375,,,33,2024-11-26_16h04.08.101,EPIDM,2023.1.2,None,
1661.jpg,7000.jpg,3 Points,2 Points,,,,,,,,,,,,,,,,,0,21,21,21,,,,,,,,,,,s,3.0866640000022016,space,1.735623749991646,33,2024-11-26_16h04.08.101,EPIDM,2023.1.2,None,
7480.jpg,2385.jpg,0 Points,3 Points,,,,,,,,,,,,,,,,,0,22,22,22,,,,,,,,,,,k,6.210295500000939,,,33,2024-11-26_16h04.08.101,EPIDM,2023.1.2,None,
9630.jpg,9046.jpg,2 Points,3 Points,,,,,,,,,,,,,,,,,0,23,23,23,,,,,,,,,,,s,4.465904249998857,,,33,2024-11-26_16h04.08.101,EPIDM,2023.1.2,None,
9210.jpg,9254.jpg,1 Point,2 Points,,,,,,,,,,,,,,,,,0,24,24,24,,,,,,,,,,,l,3.6652403749903897,,,33,2024-11-26_16h04.08.101,EPIDM,2023.1.2,None,
7640.jpg,9600.jpg,0 Points,5 Points,,,,,,,,,,,,,,,,,0,25,25,25,,,,,,,,,,,k,3.239847082993947,,,33,2024-11-26_16h04.08.101,EPIDM,2023.1.2,None,
2352.2.jpg,9417.jpg,0 Points,1 Point,,,,,,,,,,,,,,,,,0,26,26,26,,,,,,,,,,,s,6.163896124999155,,,33,2024-11-26_16h04.08.101,EPIDM,2023.1.2,None,
5875.jpg,4233.jpg,0 Points,5 Points,,,,,,,,,,,,,,,,,0,27,27,27,,,,,,,,,,,k,9.406242040990037,,,33,2024-11-26_16h04.08.101,EPIDM,2023.1.2,None,
8400.jpg,2490.jpg,1 Point,4 Points,,,,,,,,,,,,,,,,,0,28,28,28,,,,,,,,,,,l,2.7498729579965584,,,33,2024-11-26_16h04.08.101,EPIDM,2023.1.2,None,
5460.jpg,5910.jpg,0 Points,5 Points,,,,,,,,,,,,,,,,,0,29,29,29,,,,,,,,,,,l,5.649067249993095,,,33,2024-11-26_16h04.08.101,EPIDM,2023.1.2,None,
4609.jpg,1900.jpg,2 Points,4 Points,,,,,,,,,,,,,,,,,0,30,30,30,,,,,,,,,,,k,3.3900987499946496,,,33,2024-11-26_16h04.08.101,EPIDM,2023.1.2,None,
7050.jpg,2512.jpg,4 Points,1 Point,,,,,,,,,,,,,,,,,0,31,31,31,,,,,,,,,,,d,5.951922916996409,,,33,2024-11-26_16h04.08.101,EPIDM,2023.1.2,None,
3300.jpg,3110.jpg,0 Points,4 Points,,,,,,,,,,,,,,,,,0,32,32,32,,,,,,,,,,,l,2.7781873750063824,,,33,2024-11-26_16h04.08.101,EPIDM,2023.1.2,None,
5201.jpg,5628.jpg,0 Points,5 Points,,,,,,,,,,,,,,,,,0,33,33,33,,,,,,,,,,,d,4.03631808400678,,,33,2024-11-26_16h04.08.101,EPIDM,2023.1.2,None,
6243.jpg,7360.jpg,2 Points,1 Point,,,,,,,,,,,,,,,,,0,34,34,34,,,,,,,,,,,a,2.780015625001397,,,33,2024-11-26_16h04.08.101,EPIDM,2023.1.2,None,
5530.jpg,5410.jpg,0 Points,5 Points,,,,,,,,,,,,,,,,,0,35,35,35,,,,,,,,,,,s,1.8565234999987297,,,33,2024-11-26_16h04.08.101,EPIDM,2023.1.2,None,
4279.jpg,2495.jpg,5 Points,0 Points,,,,,,,,,,,,,,,,,0,36,36,36,,,,,,,,,,,s,2.7537352920044214,,,33,2024-11-26_16h04.08.101,EPIDM,2023.1.2,None,
2100.jpg,5740.jpg,5 Points,0 Points,,,,,,,,,,,,,,,,,0,37,37,37,,,,,,,,,,,a,3.3094825000007404,space,1.2458975420013303,33,2024-11-26_16h04.08.101,EPIDM,2023.1.2,None,
9571.jpg,2800.jpg,2 Points,4 Points,,,,,,,,,,,,,,,,,0,38,38,38,,,,,,,,,,,s,2.8413027499918826,,,33,2024-11-26_16h04.08.101,EPIDM,2023.1.2,None,
7080.jpg,6210.jpg,4 Points,1 Point,,,,,,,,,,,,,,,,,0,39,39,39,,,,,,,,,,,k,3.866583625000203,,,33,2024-11-26_16h04.08.101,EPIDM,2023.1.2,None,
9265.jpg,P211.jpg,0 Points,4 Points,,,,,,,,,,,,,,,,,0,40,40,40,,,,,,,,,,,l,2.924660415999824,,,33,2024-11-26_16h04.08.101,EPIDM,2023.1.2,None,
2206.jpg,7020.jpg,0 Points,5 Points,,,,,,,,,,,,,,,,,0,41,41,41,,,,,,,,,,,s,5.75726549999672,,,33,2024-11-26_16h04.08.101,EPIDM,2023.1.2,None,
2280.jpg,7170.jpg,4 Points,2 Points,,,,,,,,,,,,,,,,,0,42,42,42,,,,,,,,,,,k,2.175090541000827,,,33,2024-11-26_16h04.08.101,EPIDM,2023.1.2,None,
7030.jpg,1050.jpg,1 Points,4 Points,,,,,,,,,,,,,,,,,0,43,43,43,,,,,,,,,,,l,1.9918787089991383,,,33,2024-11-26_16h04.08.101,EPIDM,2023.1.2,None,
2661.jpg,2520.jpg,5 Points,2 Points,,,,,,,,,,,,,,,,,0,44,44,44,,,,,,,,,,,a,1.2499342080118367,,,33,2024-11-26_16h04.08.101,EPIDM,2023.1.2,None,
2320.jpg,7207.jpg,4 Points,1 Points,,,,,,,,,,,,,,,,,0,45,45,45,,,,,,,,,,,l,2.1967308329913067,,,33,2024-11-26_16h04.08.101,EPIDM,2023.1.2,None,
3030.jpg,6571.jpg,0 Points,2 Points,,,,,,,,,,,,,,,,,0,46,46,46,,,,,,,,,,,l,3.968093458999647,,,33,2024-11-26_16h04.08.101,EPIDM,2023.1.2,None,
7217.jpg,3060.jpg,4 Points,1 Point,,,,,,,,,,,,,,,,,0,47,47,47,,,,,,,,,,,l,1.514917583001079,,,33,2024-11-26_16h04.08.101,EPIDM,2023.1.2,None,
P222.jpg,3051.jpg,2 Points,1 Point,,,,,,,,,,,,,,,,,0,48,48,48,,,,,,,,,,,a,1.7059193750028498,,,33,2024-11-26_16h04.08.101,EPIDM,2023.1.2,None,
P077.jpg,7040.jpg,1 Point,4 Points,,,,,,,,,,,,,,,,,0,49,49,49,,,,,,,,,,,l,13.535589499995694,,,33,2024-11-26_16h04.08.101,EPIDM,2023.1.2,None,
5480.jpg,2722.jpg,4 Points,1 Points,,,,,,,,,,,,,,,,,0,50,50,50,,,,,,,,,,,a,1.8057420840050327,,,33,2024-11-26_16h04.08.101,EPIDM,2023.1.2,None,
5920.jpg,4770.jpg,2 Points,3 Points,,,,,,,,,,,,,,,,,0,51,51,51,,,,,,,,,,,a,7.9137886249955045,,,33,2024-11-26_16h04.08.101,EPIDM,2023.1.2,None,
1052.jpg,F365.jpg,3 Points,5 Points,,,,,,,,,,,,,,,,,0,52,52,52,,,,,,,,,,,a,2.2025918340077624,,,33,2024-11-26_16h04.08.101,EPIDM,2023.1.2,None,
2480.jpg,5731.jpg,1 Point,4 Points,,,,,,,,,,,,,,,,,0,53,53,53,,,,,,,,,,,k,3.8272542920021806,space,1.0427867919934215,33,2024-11-26_16h04.08.101,EPIDM,2023.1.2,None,
7195.jpg,4598.jpg,2 Points,1 Point,,,,,,,,,,,,,,,,,0,54,54,54,,,,,,,,,,,l,3.511264291999396,,,33,2024-11-26_16h04.08.101,EPIDM,2023.1.2,None,
5470.jpg,2620.jpg,5 Points,0 Points,,,,,,,,,,,,,,,,,0,55,55,55,,,,,,,,,,,a,7.229660084005445,,,33,2024-11-26_16h04.08.101,EPIDM,2023.1.2,None,
F369.jpg,6260.jpg,2 Points,3 Points,,,,,,,,,,,,,,,,,0,56,56,56,,,,,,,,,,,s,2.9842328329978045,,,33,2024-11-26_16h04.08.101,EPIDM,2023.1.2,None,
7620.jpg,7182.jpg,1 Point,4 Points,,,,,,,,,,,,,,,,,0,57,57,57,,,,,,,,,,,l,1.6332999159931205,,,33,2024-11-26_16h04.08.101,EPIDM,2023.1.2,None,
5982.jpg,1602.jpg,5 Points,1 Point,,,,,,,,,,,,,,,,,0,58,58,58,,,,,,,,,,,a,1.0776908339903457,,,33,2024-11-26_16h04.08.101,EPIDM,2023.1.2,None,
9700.jpg,9452.jpg,1 Points,4 Points,,,,,,,,,,,,,,,,,0,59,59,59,,,,,,,,,,,l,2.029341833011131,,,33,2024-11-26_16h04.08.101,EPIDM,2023.1.2,None,
P019.jpg,6550.jpg,3 Points,5 Points,,,,,,,,,,,,,,,,,0,60,60,60,,,,,,,,,,,l,1.657069708002382,,,33,2024-11-26_16h04.08.101,EPIDM,2023.1.2,None,
2389.jpg,7545.jpg,0 Points,5 Points,,,,,,,,,,,,,,,,,0,61,61,61,,,,,,,,,,,l,1.9272055000037653,,,33,2024-11-26_16h04.08.101,EPIDM,2023.1.2,None,
F032.jpg,9594.jpg,1 Point,4 Points,,,,,,,,,,,,,,,,,0,62,62,62,,,,,,,,,,,d,7.166718584005139,,,33,2024-11-26_16h04.08.101,EPIDM,2023.1.2,None,
5700.jpg,5390.jpg,5 Points,0 Points,,,,,,,,,,,,,,,,,0,63,63,63,,,,,,,,,,,a,3.099454083989258,,,33,2024-11-26_16h04.08.101,EPIDM,2023.1.2,None,
9090.jpg,7546.jpg,3 Points,2 Points,,,,,,,,,,,,,,,,,0,64,64,64,,,,,,,,,,,k,2.289868916996056,,,33,2024-11-26_16h04.08.101,EPIDM,2023.1.2,None,
8010.jpg,2500.jpg,0 Points,5 Points,,,,,,,,,,,,,,,,,0,65,65,65,,,,,,,,,,,k,2.9153405830002157,,,33,2024-11-26_16h04.08.101,EPIDM,2023.1.2,None,
7160.jpg,2560.jpg,0 Points,4 Points,,,,,,,,,,,,,,,,,0,66,66,66,,,,,,,,,,,k,4.066992583000683,,,33,2024-11-26_16h04.08.101,EPIDM,2023.1.2,None,
7211.jpg,6561.jpg,3 Points,2 Points,,,,,,,,,,,,,,,,,0,67,67,67,,,,,,,,,,,d,4.003567749998183,,,33,2024-11-26_16h04.08.101,EPIDM,2023.1.2,None,
2141.jpg,9611.jpg,5 Points,3 Points,,,,,,,,,,,,,,,,,0,68,68,68,,,,,,,,,,,s,2.2855838749965187,,,33,2024-11-26_16h04.08.101,EPIDM,2023.1.2,None,
9140.jpg,7034.jpg,3 Points,2 Points,,,,,,,,,,,,,,,,,0,69,69,69,,,,,,,,,,,s,1.6559305410046363,space,0.8957148750050692,33,2024-11-26_16h04.08.101,EPIDM,2023.1.2,None,
1240.jpg,6020.jpg,3 Points,2 Points,,,,,,,,,,,,,,,,,0,70,70,70,,,,,,,,,,,a,2.227211042001727,,,33,2024-11-26_16h04.08.101,EPIDM,2023.1.2,None,
5831.jpg,8090.jpg,3 Points,2 Points,,,,,,,,,,,,,,,,,0,71,71,71,,,,,,,,,,,d,3.0859132909972686,,,33,2024-11-26_16h04.08.101,EPIDM,2023.1.2,None,
2580.jpg,2575.jpg,3 Points,2 Points,,,,,,,,,,,,,,,,,0,72,72,72,,,,,,,,,,,a,1.816884707994177,,,33,2024-11-26_16h04.08.101,EPIDM,2023.1.2,None,
7361.jpg,2683.jpg,2 Points,3 Points,,,,,,,,,,,,,,,,,0,73,73,73,,,,,,,,,,,s,2.268459041006281,,,33,2024-11-26_16h04.08.101,EPIDM,2023.1.2,None,
2830.jpg,7100.jpg,5 Points,3 Points,,,,,,,,,,,,,,,,,0,74,74,74,,,,,,,,,,,d,2.9202944160060724,,,33,2024-11-26_16h04.08.101,EPIDM,2023.1.2,None,
9913.jpg,3181.jpg,1 Points,4 Points,,,,,,,,,,,,,,,,,0,75,75,75,,,,,,,,,,,j,4.2960334999952465,,,33,2024-11-26_16h04.08.101,EPIDM,2023.1.2,None,
2717.jpg,3015.jpg,4 Points,5 Points,,,,,,,,,,,,,,,,,0,76,76,76,,,,,,,,,,,a,1.377045207991614,,,33,2024-11-26_16h04.08.101,EPIDM,2023.1.2,None,
2383.jpg,5720.jpg,2 Points,3 Points,,,,,,,,,,,,,,,,,0,77,77,77,,,,,,,,,,,k,2.2896475000015926,,,33,2024-11-26_16h04.08.101,EPIDM,2023.1.2,None,
6570.2.jpg,4605.jpg,3 Points,4 Points,,,,,,,,,,,,,,,,,0,78,78,78,,,,,,,,,,,l,2.571498207995319,,,33,2024-11-26_16h04.08.101,EPIDM,2023.1.2,None,
F252.jpg,2230.jpg,0 Points,5 Points,,,,,,,,,,,,,,,,,0,79,79,79,,,,,,,,,,,k,3.8347414169984404,,,33,2024-11-26_16h04.08.101,EPIDM,2023.1.2,None,
8210.jpg,8460.jpg,3 Points,0 Points,,,,,,,,,,,,,,,,,0,80,80,80,,,,,,,,,,,s,2.8240681659954134,,,33,2024-11-26_16h04.08.101,EPIDM,2023.1.2,None,
4660.jpg,7035.jpg,4 Points,1 Points,,,,,,,,,,,,,,,,,0,81,81,81,,,,,,,,,,,s,1.106173125008354,,,33,2024-11-26_16h04.08.101,EPIDM,2023.1.2,None,
1220.jpg,2692.jpg,1 Point,4 Points,,,,,,,,,,,,,,,,,0,82,82,82,,,,,,,,,,,l,1.5217233750008745,,,33,2024-11-26_16h04.08.101,EPIDM,2023.1.2,None,
7286.jpg,2485.jpg,5 Points,0 Points,,,,,,,,,,,,,,,,,0,83,83,83,,,,,,,,,,,k,2.9696286660037003,,,33,2024-11-26_16h04.08.101,EPIDM,2023.1.2,None,
6560.jpg,6570.1.jpg,2 Points,5 Points,,,,,,,,,,,,,,,,,0,84,84,84,,,,,,,,,,,l,3.7775203750061337,,,33,2024-11-26_16h04.08.101,EPIDM,2023.1.2,None,
2597.jpg,5629.jpg,5 Points,0 Points,,,,,,,,,,,,,,,,,0,85,85,85,,,,,,,,,,,s,2.948463583001285,space,0.8883079160004854,33,2024-11-26_16h04.08.101,EPIDM,2023.1.2,None,
5471.jpg,2240.jpg,2 Points,5 Points,,,,,,,,,,,,,,,,,0,86,86,86,,,,,,,,,,,j,2.9840968750067987,,,33,2024-11-26_16h04.08.101,EPIDM,2023.1.2,None,
5849.jpg,7282.jpg,2 Points,3 Points,,,,,,,,,,,,,,,,,0,87,87,87,,,,,,,,,,,k,3.714638292003656,,,33,2024-11-26_16h04.08.101,EPIDM,2023.1.2,None,
4531.jpg,5534.jpg,5 Points,3 Points,,,,,,,,,,,,,,,,,0,88,88,88,,,,,,,,,,,l,1.1134890410030494,,,33,2024-11-26_16h04.08.101,EPIDM,2023.1.2,None,
7503.jpg,5900.jpg,2 Points,3 Points,,,,,,,,,,,,,,,,,0,89,89,89,,,,,,,,,,,k,3.437061792006716,,,33,2024-11-26_16h04.08.101,EPIDM,2023.1.2,None,
9007.jpg,2900.jpg,0 Points,3 Points,,,,,,,,,,,,,,,,,0,90,90,90,,,,,,,,,,,s,5.038727791994461,,,33,2024-11-26_16h04.08.101,EPIDM,2023.1.2,None,
7110.jpg,6800.jpg,5 Points,0 Points,,,,,,,,,,,,,,,,,0,91,91,91,,,,,,,,,,,a,2.934255874992232,,,33,2024-11-26_16h04.08.101,EPIDM,2023.1.2,None,
3500.jpg,6312.jpg,4 Points,2 Points,,,,,,,,,,,,,,,,,0,92,92,92,,,,,,,,,,,s,2.1870040420035366,,,33,2024-11-26_16h04.08.101,EPIDM,2023.1.2,None,
9080.jpg,5593.jpg,5 Points,0 Points,,,,,,,,,,,,,,,,,0,93,93,93,,,,,,,,,,,l,2.0843107500113547,,,33,2024-11-26_16h04.08.101,EPIDM,2023.1.2,None,
7190.jpg,2372.jpg,5 Points,1 Point,,,,,,,,,,,,,,,,,0,94,94,94,,,,,,,,,,,s,1.7448277920047985,,,33,2024-11-26_16h04.08.101,EPIDM,2023.1.2,None,
5820.jpg,5200.jpg,5 Points,0 Points,,,,,,,,,,,,,,,,,0,95,95,95,,,,,,,,,,,l,1.537373541999841,,,33,2024-11-26_16h04.08.101,EPIDM,2023.1.2,None,
9404.jpg,6212.jpg,5 Points,4 Points,,,,,,,,,,,,,,,,,0,96,96,96,,,,,,,,,,,s,0.8916729580087122,,,33,2024-11-26_16h04.08.101,EPIDM,2023.1.2,None,
5623.jpg,7233.jpg,5 Points,0 Points,,,,,,,,,,,,,,,,,0,97,97,97,,,,,,,,,,,s,1.7128643750038464,,,33,2024-11-26_16h04.08.101,EPIDM,2023.1.2,None,
5500.jpg,5120.jpg,3 Points,2 Points,,,,,,,,,,,,,,,,,0,98,98,98,,,,,,,,,,,a,1.1900436659925617,,,33,2024-11-26_16h04.08.101,EPIDM,2023.1.2,None,
1274.jpg,6350.jpg,1 Points,4 Points,,,,,,,,,,,,,,,,,0,99,99,99,,,,,,,,,,,k,3.1730485419975594,,,33,2024-11-26_16h04.08.101,EPIDM,2023.1.2,None,
2220.jpg,2092.jpg,5 Points,0 Points,,,,,,,,,,,,,,,,,0,100,100,100,,,,,,,,,,,a,1.3039935000124387,,,33,2024-11-26_16h04.08.101,EPIDM,2023.1.2,None,
5990.jpg,5890.jpg,3 Points,2 Points,,,,,,,,,,,,,,,,,0,101,101,101,,,,,,,,,,,a,1.2240354579989798,space,0.9972760420059785,33,2024-11-26_16h04.08.101,EPIDM,2023.1.2,None,
9421.jpg,A025.jpg,2 Points,0 Points,,,,,,,,,,,,,,,,,0,102,102,102,,,,,,,,,,,s,2.6495372089993907,,,33,2024-11-26_16h04.08.101,EPIDM,2023.1.2,None,
1603.jpg,8180.jpg,1 Points,4 Points,,,,,,,,,,,,,,,,,0,103,103,103,,,,,,,,,,,a,1.7440477499912959,,,33,2024-11-26_16h04.08.101,EPIDM,2023.1.2,None,
4608.jpg,2514.jpg,1 Point,5 Points,,,,,,,,,,,,,,,,,0,104,104,104,,,,,,,,,,,a,1.8449151669919956,,,33,2024-11-26_16h04.08.101,EPIDM,2023.1.2,None,
9102.jpg,7224.jpg,3 Points,2 Points,,,,,,,,,,,,,,,,,0,105,105,105,,,,,,,,,,,a,1.5504091250040801,,,33,2024-11-26_16h04.08.101,EPIDM,2023.1.2,None,
F034.jpg,3530.jpg,4 Points,1 Point,,,,,,,,,,,,,,,,,0,106,106,106,,,,,,,,,,,a,2.089601291998406,,,33,2024-11-26_16h04.08.101,EPIDM,2023.1.2,None,
7130.jpg,3350.jpg,4 Points,1 Point,,,,,,,,,,,,,,,,,0,107,107,107,,,,,,,,,,,k,1.7421917499887059,,,33,2024-11-26_16h04.08.101,EPIDM,2023.1.2,None,
2130.jpg,7237.jpg,1 Points,4 Points,,,,,,,,,,,,,,,,,0,108,108,108,,,,,,,,,,,k,1.4942713750060648,,,33,2024-11-26_16h04.08.101,EPIDM,2023.1.2,None,
3400.jpg,7025.jpg,2 Points,3 Points,,,,,,,,,,,,,,,,,0,109,109,109,,,,,,,,,,,s,1.7708201670029666,,,33,2024-11-26_16h04.08.101,EPIDM,2023.1.2,None,
2410.jpg,7009.jpg,4 Points,5 Points,,,,,,,,,,,,,,,,,0,110,110,110,,,,,,,,,,,l,1.812147874996299,,,33,2024-11-26_16h04.08.101,EPIDM,2023.1.2,None,
7031.jpg,1022.jpg,4 Points,1 Point,,,,,,,,,,,,,,,,,0,111,111,111,,,,,,,,,,,k,1.4383041660039453,,,33,2024-11-26_16h04.08.101,EPIDM,2023.1.2,None,
6510.jpg,3120.jpg,2 Points,5 Points,,,,,,,,,,,,,,,,,0,112,112,112,,,,,,,,,,,k,2.206604375009192,,,33,2024-11-26_16h04.08.101,EPIDM,2023.1.2,None,
5972.jpg,9621.jpg,5 Points,0 Points,,,,,,,,,,,,,,,,,0,113,113,113,,,,,,,,,,,a,1.2819622499955585,,,33,2024-11-26_16h04.08.101,EPIDM,2023.1.2,None,
3064.jpg,9420.jpg,4 Points,2 Points,,,,,,,,,,,,,,,,,0,114,114,114,,,,,,,,,,,s,7.874597625006572,,,33,2024-11-26_16h04.08.101,EPIDM,2023.1.2,None,
9830.jpg,8480.jpg,4 Points,1 Point,,,,,,,,,,,,,,,,,0,115,115,115,,,,,,,,,,,a,1.8600162499933504,,,33,2024-11-26_16h04.08.101,EPIDM,2023.1.2,None,
5531.jpg,1720.jpg,3 Points,4 Points,,,,,,,,,,,,,,,,,0,116,116,116,,,,,,,,,,,a,1.3074365840002429,,,33,2024-11-26_16h04.08.101,EPIDM,2023.1.2,None,
2702.jpg,7140.jpg,5 Points,0 Points,,,,,,,,,,,,,,,,,0,117,117,117,,,,,,,,,,,a,2.527469958004076,space,12.176400208001724,33,2024-11-26_16h04.08.101,EPIDM,2023.1.2,None,
2020.jpg,4535.jpg,5 Points,1 Point,,,,,,,,,,,,,,,,,0,118,118,118,,,,,,,,,,,a,3.380968750003376,,,33,2024-11-26_16h04.08.101,EPIDM,2023.1.2,None,
7705.jpg,6250.1.jpg,5 Points,0 Points,,,,,,,,,,,,,,,,,0,119,119,119,,,,,,,,,,,k,2.1151657919981517,,,33,2024-11-26_16h04.08.101,EPIDM,2023.1.2,None,
2753.jpg,P217.jpg,0 Points,5 Points,,,,,,,,,,,,,,,,,0,120,120,120,,,,,,,,,,,l,2.281126458008657,,,33,2024-11-26_16h04.08.101,EPIDM,2023.1.2,None,
5533.jpg,5626.jpg,3 Points,2 Points,,,,,,,,,,,,,,,,,0,121,121,121,,,,,,,,,,,a,1.9690490840002894,,,33,2024-11-26_16h04.08.101,EPIDM,2023.1.2,None,
7260.jpg,8260.jpg,5 Points,3 Points,,,,,,,,,,,,,,,,,0,122,122,122,,,,,,,,,,,s,2.3424497500091093,,,33,2024-11-26_16h04.08.101,EPIDM,2023.1.2,None,
5950.jpg,3068.jpg,0 Points,5 Points,,,,,,,,,,,,,,,,,0,123,123,123,,,,,,,,,,,k,3.7653408750047674,,,33,2024-11-26_16h04.08.101,EPIDM,2023.1.2,None,
2840.jpg,8040.jpg,2 Points,1 Point,,,,,,,,,,,,,,,,,0,124,124,124,,,,,,,,,,,s,5.711959541993565,,,33,2024-11-26_16h04.08.101,EPIDM,2023.1.2,None,
2690.jpg,7090.jpg,1 Point,4 Points,,,,,,,,,,,,,,,,,0,125,125,125,,,,,,,,,,,a,3.9174440000060713,,,33,2024-11-26_16h04.08.101,EPIDM,2023.1.2,None,
6540.jpg,9008.jpg,3 Points,1 Point,,,,,,,,,,,,,,,,,0,126,126,126,,,,,,,,,,,s,2.7482162499945844,,,33,2024-11-26_16h04.08.101,EPIDM,2023.1.2,None,
9911.jpg,9570.jpg,5 Points,0 Points,,,,,,,,,,,,,,,,,0,127,127,127,,,,,,,,,,,k,2.6390708330000052,,,33,2024-11-26_16h04.08.101,EPIDM,2023.1.2,None,
4250.jpg,3010.jpg,5 Points,5 Points,,,,,,,,,,,,,,,,,0,128,128,128,,,,,,,,,,,a,1.3760420000035083,,,33,2024-11-26_16h04.08.101,EPIDM,2023.1.2,None,
9040.jpg,7010.jpg,3 Points,2 Points,,,,,,,,,,,,,,,,,0,129,129,129,,,,,,,,,,,s,1.2889718329970492,,,33,2024-11-26_16h04.08.101,EPIDM,2023.1.2,None,
3550.jpg,3280.jpg,2 Points,0 Points,,,,,,,,,,,,,,,,,0,130,130,130,,,,,,,,,,,s,1.2967338750022464,,,33,2024-11-26_16h04.08.101,EPIDM,2023.1.2,None,
7281.jpg,2880.jpg,0 Points,5 Points,,,,,,,,,,,,,,,,,0,131,131,131,,,,,,,,,,,l,2.13189816600061,,,33,2024-11-26_16h04.08.101,EPIDM,2023.1.2,None,
9592.jpg,6200.jpg,2 Points,5 Points,,,,,,,,,,,,,,,,,0,132,132,132,,,,,,,,,,,k,1.7328450420027366,,,33,2024-11-26_16h04.08.101,EPIDM,2023.1.2,None,
O022.jpg,3069.jpg,2 Points,3 Points,,,,,,,,,,,,,,,,,0,133,133,133,,,,,,,,,,,l,2.580580583002302,space,0.9768238749966258,33,2024-11-26_16h04.08.101,EPIDM,2023.1.2,None,
2221.jpg,1303.jpg,2 Points,0 Points,,,,,,,,,,,,,,,,,0,134,134,134,,,,,,,,,,,a,1.9521041249972768,,,33,2024-11-26_16h04.08.101,EPIDM,2023.1.2,None,
7150.jpg,2850.jpg,2 Points,3 Points,,,,,,,,,,,,,,,,,0,135,135,135,,,,,,,,,,,l,2.1406414580123965,,,33,2024-11-26_16h04.08.101,EPIDM,2023.1.2,None,
5130.jpg,2616.jpg,3 Points,4 Points,,,,,,,,,,,,,,,,,0,136,136,136,,,,,,,,,,,l,1.890184957999736,,,33,2024-11-26_16h04.08.101,EPIDM,2023.1.2,None,
9433.jpg,7183.jpg,1 Point,4 Points,,,,,,,,,,,,,,,,,0,137,137,137,,,,,,,,,,,l,1.1297965419944376,,,33,2024-11-26_16h04.08.101,EPIDM,2023.1.2,None,
3071.jpg,2700.jpg,1 Point,3 Points,,,,,,,,,,,,,,,,,0,138,138,138,,,,,,,,,,,s,3.4610229170066305,,,33,2024-11-26_16h04.08.101,EPIDM,2023.1.2,None,
6415.jpg,1112.jpg,2 Points,3 Points,,,,,,,,,,,,,,,,,0,139,139,139,,,,,,,,,,,s,1.9698525830026483,,,33,2024-11-26_16h04.08.101,EPIDM,2023.1.2,None,
9331.jpg,3150.jpg,2 Points,1 Point,,,,,,,,,,,,,,,,,0,140,140,140,,,,,,,,,,,s,1.4065699170023436,,,33,2024-11-26_16h04.08.101,EPIDM,2023.1.2,None,
1111.jpg,7096.jpg,0 Points,5 Points,,,,,,,,,,,,,,,,,0,141,141,141,,,,,,,,,,,l,1.536347500004922,,,33,2024-11-26_16h04.08.101,EPIDM,2023.1.2,None,
7270.jpg,4534.jpg,3 Points,0 Points,,,,,,,,,,,,,,,,,0,142,142,142,,,,,,,,,,,d,6.708782665999024,,,33,2024-11-26_16h04.08.101,EPIDM,2023.1.2,None,
7495.jpg,9156.jpg,1 Points,4 Points,,,,,,,,,,,,,,,,,0,143,143,143,,,,,,,,,,,j,2.654552292005974,,,33,2024-11-26_16h04.08.101,EPIDM,2023.1.2,None,
7490.jpg,7284.jpg,2 Points,4 Points,,,,,,,,,,,,,,,,,0,144,144,144,,,,,,,,,,,k,1.7364938329992583,,,33,2024-11-26_16h04.08.101,EPIDM,2023.1.2,None,
9622.jpg,7006.jpg,2 Points,3 Points,,,,,,,,,,,,,,,,,0,145,145,145,,,,,,,,,,,s,1.51454679199378,,,33,2024-11-26_16h04.08.101,EPIDM,2023.1.2,None,
8230.jpg,9252.jpg,5 Points,1 Point,,,,,,,,,,,,,,,,,0,146,146,146,,,,,,,,,,,s,33.12768654199317,,,33,2024-11-26_16h04.08.101,EPIDM,2023.1.2,None,
5450.jpg,9253.jpg,5 Points,0 Points,,,,,,,,,,,,,,,,,0,147,147,147,,,,,,,,,,,d,4.366399041988188,,,33,2024-11-26_16h04.08.101,EPIDM,2023.1.2,None,
2440.jpg,7950.jpg,4 Points,1 Point,,,,,,,,,,,,,,,,,0,148,148,148,,,,,,,,,,,k,2.0199595000012778,,,33,2024-11-26_16h04.08.101,EPIDM,2023.1.2,None,
9415.jpg,1932.jpg,4 Points,1 Points,,,,,,,,,,,,,,,,,0,149,149,149,,,,,,,,,,,k,1.3345121250022203,space,1.4971142090071226,33,2024-11-26_16h04.08.101,EPIDM,2023.1.2,None,
9410.jpg,1280.jpg,0 Points,2 Points,,,,,,,,,,,,,,,,,0,150,150,150,,,,,,,,,,,a,1.8231510000041453,,,33,2024-11-26_16h04.08.101,EPIDM,2023.1.2,None,
7560.jpg,9530.jpg,4 Points,1 Point,,,,,,,,,,,,,,,,,0,151,151,151,,,,,,,,,,,k,1.5297844589949818,,,33,2024-11-26_16h04.08.101,EPIDM,2023.1.2,None,
1070.jpg,3063.jpg,2 Points,5 Points,,,,,,,,,,,,,,,,,0,152,152,152,,,,,,,,,,,j,1.7652970000053756,,,33,2024-11-26_16h04.08.101,EPIDM,2023.1.2,None,
6313.jpg,7500.jpg,3 Points,2 Points,,,,,,,,,,,,,,,,,0,153,153,153,,,,,,,,,,,k,2.568888750000042,,,33,2024-11-26_16h04.08.101,EPIDM,2023.1.2,None,
2720.jpg,F203.jpg,4 Points,0 Points,,,,,,,,,,,,,,,,,0,154,154,154,,,,,,,,,,,a,2.135514958004933,,,33,2024-11-26_16h04.08.101,EPIDM,2023.1.2,None,
2515.jpg,2890.jpg,4 Points,1 Points,,,,,,,,,,,,,,,,,0,155,155,155,,,,,,,,,,,d,3.4274739999964368,,,33,2024-11-26_16h04.08.101,EPIDM,2023.1.2,None,
9430.jpg,9520.jpg,5 Points,3 Points,,,,,,,,,,,,,,,,,0,156,156,156,,,,,,,,,,,a,1.7497791670029983,,,33,2024-11-26_16h04.08.101,EPIDM,2023.1.2,None,
6370.jpg,9921.jpg,4 Points,1 Points,,,,,,,,,,,,,,,,,0,157,157,157,,,,,,,,,,,l,3.9294652079988737,,,33,2024-11-26_16h04.08.101,EPIDM,2023.1.2,None,
2516.jpg,7820.jpg,4 Points,0 Points,,,,,,,,,,,,,,,,,0,158,158,158,,,,,,,,,,,k,2.343111125010182,,,33,2024-11-26_16h04.08.101,EPIDM,2023.1.2,None,
5532.jpg,4500.jpg,2 Points,3 Points,,,,,,,,,,,,,,,,,0,159,159,159,,,,,,,,,,,s,1.723678916998324,,,33,2024-11-26_16h04.08.101,EPIDM,2023.1.2,None,
