L_Scene,R_Scene,L_Pts,R_Pts,Instructions_Loop.thisRepN,Instructions_Loop.thisTrialN,Instructions_Loop.thisN,Instructions_Loop.thisIndex,Redo_Instructions_Loop.thisRepN,Redo_Instructions_Loop.thisTrialN,Redo_Instructions_Loop.thisN,Redo_Instructions_Loop.thisIndex,Practice_Recognition_Loop.thisRepN,Practice_Recognition_Loop.thisTrialN,Practice_Recognition_Loop.thisN,Practice_Recognition_Loop.thisIndex,Practice_FB_Loop.thisRepN,Practice_FB_Loop.thisTrialN,Practice_FB_Loop.thisN,Practice_FB_Loop.thisIndex,RecStim_Loop.thisRepN,RecStim_Loop.thisTrialN,RecStim_Loop.thisN,RecStim_Loop.thisIndex,FB_Loop.thisRepN,FB_Loop.thisTrialN,FB_Loop.thisN,FB_Loop.thisIndex,RecBrk_Loop.thisRepN,RecBrk_Loop.thisTrialN,RecBrk_Loop.thisN,RecBrk_Loop.thisIndex,Transition_Enc.keys,Transition_Enc.rt,Encoding_Resp.keys,Encoding_Resp.rt,EncBrk_Resp.keys,EncBrk_Resp.rt,participant,date,expName,psychopyVersion,frameRate,
,,,,,,,,,,,,,,,,,,,,,,,,,,,,,,,,space,34.344969166006194,,,,,34,2024-12-06_13h02.25.622,EPIDM,2023.1.2,None,
F078.jpg,L130.jpg,,,,,,,,,,,0,0,0,0,,,,,,,,,,,,,,,,,,,l,3.2106668740016175,,,34,2024-12-06_13h02.25.622,EPIDM,2023.1.2,None,
P036.jpg,P217.jpg,,,,,,,,,,,0,1,1,1,,,,,,,,,,,,,,,,,,,a,2.718282291010837,,,34,2024-12-06_13h02.25.622,EPIDM,2023.1.2,None,
O161.jpg,F218.jpg,,,,,,,,,,,0,2,2,2,,,,,,,,,,,,,,,,,,,s,22.959078874002444,,,34,2024-12-06_13h02.25.622,EPIDM,2023.1.2,None,
F279.jpg,A001.jpg,,,,,,,,,,,0,3,3,3,,,,,,,,,,,,,,,,,,,k,6.675955750004505,,,34,2024-12-06_13h02.25.622,EPIDM,2023.1.2,None,
F273.jpg,A060.jpg,,,,,,,,,,,0,4,4,4,,,,,,,,,,,,,,,,,,,l,6.139578791000531,,,34,2024-12-06_13h02.25.622,EPIDM,2023.1.2,None,
2393.jpg,L055.jpg,,,,,,,,,,,0,5,5,5,,,,,,,,,,,,,,,,,,,l,2.828446792002069,,,34,2024-12-06_13h02.25.622,EPIDM,2023.1.2,None,
1812.jpg,2593.jpg,,,,,,,,,,,0,6,6,6,,,,,,,,,,,,,,,,,,,a,1.411699165997561,,,34,2024-12-06_13h02.25.622,EPIDM,2023.1.2,None,
O013.jpg,A067.jpg,,,,,,,,,,,0,7,7,7,,,,,,,,,,,,,,,,,,,s,1.2653409160120646,,,34,2024-12-06_13h02.25.622,EPIDM,2023.1.2,None,
P033.jpg,P034.jpg,,,,,,,,,,,0,8,8,8,,,,,,,,,,,,,,,,,,,s,3.9361857500043698,,,34,2024-12-06_13h02.25.622,EPIDM,2023.1.2,None,
A104.jpg,8186.jpg,,,,,,,,,,,0,9,9,9,,,,,,,,,,,,,,,,,,,k,5.5490253750031115,,,34,2024-12-06_13h02.25.622,EPIDM,2023.1.2,None,
,,,,,,,,,,,,,,,,,,,,,,,,,,,,,,,,space,4.18525804199453,,,,,34,2024-12-06_13h02.25.622,EPIDM,2023.1.2,None,
8041.jpg,9405.jpg,2 Points,3 Points,,,,,,,,,,,,,,,,,0,0,0,0,,,,,,,,,,,k,2.7156255830050213,,,34,2024-12-06_13h02.25.622,EPIDM,2023.1.2,None,
4500.jpg,5532.jpg,3 Points,2 Points,,,,,,,,,,,,,,,,,0,1,1,1,,,,,,,,,,,a,3.2730161660001613,,,34,2024-12-06_13h02.25.622,EPIDM,2023.1.2,None,
9500.jpg,9120.jpg,1 Point,5 Points,,,,,,,,,,,,,,,,,0,2,2,2,,,,,,,,,,,l,3.4786596670019208,,,34,2024-12-06_13h02.25.622,EPIDM,2023.1.2,None,
9921.jpg,1270.jpg,1 Points,4 Points,,,,,,,,,,,,,,,,,0,3,3,3,,,,,,,,,,,j,2.1870386250084266,,,34,2024-12-06_13h02.25.622,EPIDM,2023.1.2,None,
5220.jpg,7230.jpg,0 Points,5 Points,,,,,,,,,,,,,,,,,0,4,4,4,,,,,,,,,,,d,2.857736541001941,,,34,2024-12-06_13h02.25.622,EPIDM,2023.1.2,None,
2890.jpg,2515.jpg,1 Points,4 Points,,,,,,,,,,,,,,,,,0,5,5,5,,,,,,,,,,,k,0.7364546669996344,space,2.1292715829913504,34,2024-12-06_13h02.25.622,EPIDM,2023.1.2,None,
9912.jpg,2750.jpg,5 Points,4 Points,,,,,,,,,,,,,,,,,0,6,6,6,,,,,,,,,,,s,0.6206236239959253,,,34,2024-12-06_13h02.25.622,EPIDM,2023.1.2,None,
7500.jpg,6313.jpg,2 Points,3 Points,,,,,,,,,,,,,,,,,0,7,7,7,,,,,,,,,,,l,2.457044916009181,,,34,2024-12-06_13h02.25.622,EPIDM,2023.1.2,None,
9480.jpg,3080.jpg,0 Points,1 Points,,,,,,,,,,,,,,,,,0,8,8,8,,,,,,,,,,,d,2.2102432910032803,,,34,2024-12-06_13h02.25.622,EPIDM,2023.1.2,None,
9220.jpg,7560.jpg,1 Point,4 Points,,,,,,,,,,,,,,,,,0,9,9,9,,,,,,,,,,,k,2.8391712500015274,,,34,2024-12-06_13h02.25.622,EPIDM,2023.1.2,None,
2381.jpg,1313.jpg,1 Point,4 Points,,,,,,,,,,,,,,,,,0,10,10,10,,,,,,,,,,,a,1.4299477079912322,,,34,2024-12-06_13h02.25.622,EPIDM,2023.1.2,None,
1932.jpg,2053.jpg,1 Points,4 Points,,,,,,,,,,,,,,,,,0,11,11,11,,,,,,,,,,,l,3.5594349580060225,,,34,2024-12-06_13h02.25.622,EPIDM,2023.1.2,None,
6836.jpg,9411.jpg,4 Points,0 Points,,,,,,,,,,,,,,,,,0,12,12,12,,,,,,,,,,,s,1.1786529579985654,,,34,2024-12-06_13h02.25.622,EPIDM,2023.1.2,None,
9253.jpg,5450.jpg,0 Points,5 Points,,,,,,,,,,,,,,,,,0,13,13,13,,,,,,,,,,,d,2.124281124997651,,,34,2024-12-06_13h02.25.622,EPIDM,2023.1.2,None,
2600.jpg,8185.jpg,1 Point,0 Points,,,,,,,,,,,,,,,,,0,14,14,14,,,,,,,,,,,a,3.6962517909996677,,,34,2024-12-06_13h02.25.622,EPIDM,2023.1.2,None,
7006.jpg,9622.jpg,3 Points,2 Points,,,,,,,,,,,,,,,,,0,15,15,15,,,,,,,,,,,d,4.079416417007451,,,34,2024-12-06_13h02.25.622,EPIDM,2023.1.2,None,
5030.jpg,4274.jpg,3 Points,2 Points,,,,,,,,,,,,,,,,,0,16,16,16,,,,,,,,,,,k,0.40565245800826233,,,34,2024-12-06_13h02.25.622,EPIDM,2023.1.2,None,
5622.jpg,7495.jpg,4 Points,1 Points,,,,,,,,,,,,,,,,,0,17,17,17,,,,,,,,,,,l,0.14145675000327174,,,34,2024-12-06_13h02.25.622,EPIDM,2023.1.2,None,
9340.jpg,1200.jpg,0 Points,4 Points,,,,,,,,,,,,,,,,,0,18,18,18,,,,,,,,,,,d,0.06638995801040437,,,34,2024-12-06_13h02.25.622,EPIDM,2023.1.2,None,
7096.jpg,1040.jpg,5 Points,0 Points,,,,,,,,,,,,,,,,,0,19,19,19,,,,,,,,,,,k,0.21038304100511596,,,34,2024-12-06_13h02.25.622,EPIDM,2023.1.2,None,
9910.jpg,9561.jpg,2 Points,3 Points,,,,,,,,,,,,,,,,,0,20,20,20,,,,,,,,,,,a,0.13142295800207648,,,34,2024-12-06_13h02.25.622,EPIDM,2023.1.2,None,
1112.jpg,6415.jpg,3 Points,2 Points,,,,,,,,,,,,,,,,,0,21,21,21,,,,,,,,,,,l,0.0140705829981016,space,0.8251228750013979,34,2024-12-06_13h02.25.622,EPIDM,2023.1.2,None,
1740.jpg,4533.jpg,0 Points,3 Points,,,,,,,,,,,,,,,,,0,22,22,22,,,,,,,,,,,d,0.36619137501111254,,,34,2024-12-06_13h02.25.622,EPIDM,2023.1.2,None,
7183.jpg,9433.jpg,4 Points,1 Point,,,,,,,,,,,,,,,,,0,23,23,23,,,,,,,,,,,s,0.5382352489978075,,,34,2024-12-06_13h02.25.622,EPIDM,2023.1.2,None,
9490.jpg,9290.jpg,1 Point,2 Points,,,,,,,,,,,,,,,,,0,24,24,24,,,,,,,,,,,k,0.16313254200213123,,,34,2024-12-06_13h02.25.622,EPIDM,2023.1.2,None,
4532.jpg,7150.jpg,3 Points,2 Points,,,,,,,,,,,,,,,,,0,25,25,25,,,,,,,,,,,d,0.3813689160015201,,,34,2024-12-06_13h02.25.622,EPIDM,2023.1.2,None,
3022.jpg,9417.jpg,0 Points,1 Point,,,,,,,,,,,,,,,,,0,26,26,26,,,,,,,,,,,l,0.23140100001182873,,,34,2024-12-06_13h02.25.622,EPIDM,2023.1.2,None,
3069.jpg,O022.jpg,3 Points,2 Points,,,,,,,,,,,,,,,,,0,27,27,27,,,,,,,,,,,a,0.4715464159962721,,,34,2024-12-06_13h02.25.622,EPIDM,2023.1.2,None,
8465.jpg,2490.jpg,1 Point,4 Points,,,,,,,,,,,,,,,,,0,28,28,28,,,,,,,,,,,s,0.34019337499921676,,,34,2024-12-06_13h02.25.622,EPIDM,2023.1.2,None,
8117.jpg,7281.jpg,5 Points,0 Points,,,,,,,,,,,,,,,,,0,29,29,29,,,,,,,,,,,a,0.9838130830030423,,,34,2024-12-06_13h02.25.622,EPIDM,2023.1.2,None,
4609.jpg,1900.jpg,2 Points,4 Points,,,,,,,,,,,,,,,,,0,30,30,30,,,,,,,,,,,s,1.1787793330004206,,,34,2024-12-06_13h02.25.622,EPIDM,2023.1.2,None,
7010.jpg,1120.jpg,2 Points,3 Points,,,,,,,,,,,,,,,,,0,31,31,31,,,,,,,,,,,l,1.8687206670001615,,,34,2024-12-06_13h02.25.622,EPIDM,2023.1.2,None,
3300.jpg,3110.jpg,0 Points,4 Points,,,,,,,,,,,,,,,,,0,32,32,32,,,,,,,,,,,k,2.296709041998838,,,34,2024-12-06_13h02.25.622,EPIDM,2023.1.2,None,
4532.jpg,9911.jpg,3 Points,2 Points,,,,,,,,,,,,,,,,,0,33,33,33,,,,,,,,,,,l,2.080464373997529,,,34,2024-12-06_13h02.25.622,EPIDM,2023.1.2,None,
2752.jpg,3266.jpg,2 Points,1 Point,,,,,,,,,,,,,,,,,0,34,34,34,,,,,,,,,,,a,1.3528116249945015,,,34,2024-12-06_13h02.25.622,EPIDM,2023.1.2,None,
7090.jpg,9360.jpg,4 Points,1 Point,,,,,,,,,,,,,,,,,0,35,35,35,,,,,,,,,,,d,0.11838912499661092,,,34,2024-12-06_13h02.25.622,EPIDM,2023.1.2,None,
4279.jpg,2030.jpg,5 Points,0 Points,,,,,,,,,,,,,,,,,0,36,36,36,,,,,,,,,,,k,0.30040462501347065,,,34,2024-12-06_13h02.25.622,EPIDM,2023.1.2,None,
9920.jpg,5950.jpg,5 Points,0 Points,,,,,,,,,,,,,,,,,0,37,37,37,,,,,,,,,,,a,0.1868824580014916,space,1.0826377910125302,34,2024-12-06_13h02.25.622,EPIDM,2023.1.2,None,
9571.jpg,2800.jpg,2 Points,4 Points,,,,,,,,,,,,,,,,,0,38,38,38,,,,,,,,,,,j,0.3300439160084352,,,34,2024-12-06_13h02.25.622,EPIDM,2023.1.2,None,
5626.jpg,5533.jpg,2 Points,3 Points,,,,,,,,,,,,,,,,,0,39,39,39,,,,,,,,,,,d,0.20740799899795093,,,34,2024-12-06_13h02.25.622,EPIDM,2023.1.2,None,
9265.jpg,P211.jpg,0 Points,4 Points,,,,,,,,,,,,,,,,,0,40,40,40,,,,,,,,,,,l,0.1567892919993028,,,34,2024-12-06_13h02.25.622,EPIDM,2023.1.2,None,
9040.jpg,7705.jpg,3 Points,2 Points,,,,,,,,,,,,,,,,,0,41,41,41,,,,,,,,,,,d,1.0017932079936145,,,34,2024-12-06_13h02.25.622,EPIDM,2023.1.2,None,
4536.jpg,2170.jpg,4 Points,2 Points,,,,,,,,,,,,,,,,,0,42,42,42,,,,,,,,,,,l,0.3832905419985764,,,34,2024-12-06_13h02.25.622,EPIDM,2023.1.2,None,
7140.jpg,2702.jpg,0 Points,5 Points,,,,,,,,,,,,,,,,,0,43,43,43,,,,,,,,,,,j,0.1945571660035057,,,34,2024-12-06_13h02.25.622,EPIDM,2023.1.2,None,
2661.jpg,2520.jpg,5 Points,2 Points,,,,,,,,,,,,,,,,,0,44,44,44,,,,,,,,,,,d,0.07552412500081118,,,34,2024-12-06_13h02.25.622,EPIDM,2023.1.2,None,
8480.jpg,9830.jpg,1 Point,4 Points,,,,,,,,,,,,,,,,,0,45,45,45,,,,,,,,,,,j,0.021609290997730568,,,34,2024-12-06_13h02.25.622,EPIDM,2023.1.2,None,
F149.jpg,6571.jpg,0 Points,2 Points,,,,,,,,,,,,,,,,,0,46,46,46,,,,,,,,,,,k,0.0791454580030404,,,34,2024-12-06_13h02.25.622,EPIDM,2023.1.2,None,
9621.jpg,6838.jpg,0 Points,5 Points,,,,,,,,,,,,,,,,,0,47,47,47,,,,,,,,,,,k,0.06849424900428858,,,34,2024-12-06_13h02.25.622,EPIDM,2023.1.2,None,
9401.jpg,3051.jpg,2 Points,1 Point,,,,,,,,,,,,,,,,,0,48,48,48,,,,,,,,,,,a,0.1602791250043083,,,34,2024-12-06_13h02.25.622,EPIDM,2023.1.2,None,
1022.jpg,7031.jpg,1 Point,4 Points,,,,,,,,,,,,,,,,,0,49,49,49,,,,,,,,,,,a,0.17469950001395773,,,34,2024-12-06_13h02.25.622,EPIDM,2023.1.2,None,
8200.jpg,2722.jpg,4 Points,1 Points,,,,,,,,,,,,,,,,,0,50,50,50,,,,,,,,,,,j,0.05615754201426171,,,34,2024-12-06_13h02.25.622,EPIDM,2023.1.2,None,
7025.jpg,3400.jpg,3 Points,2 Points,,,,,,,,,,,,,,,,,0,51,51,51,,,,,,,,,,,a,0.2271297489933204,,,34,2024-12-06_13h02.25.622,EPIDM,2023.1.2,None,
1201.jpg,F365.jpg,3 Points,5 Points,,,,,,,,,,,,,,,,,0,52,52,52,,,,,,,,,,,j,0.4504413749964442,,,34,2024-12-06_13h02.25.622,EPIDM,2023.1.2,None,
3350.jpg,7130.jpg,1 Point,4 Points,,,,,,,,,,,,,,,,,0,53,53,53,,,,,,,,,,,d,1.0361675000021933,space,0.9302606660057791,34,2024-12-06_13h02.25.622,EPIDM,2023.1.2,None,
7195.jpg,2200.jpg,2 Points,1 Point,,,,,,,,,,,,,,,,,0,54,54,54,,,,,,,,,,,l,0.5654766660009045,,,34,2024-12-06_13h02.25.622,EPIDM,2023.1.2,None,
7224.jpg,9102.jpg,2 Points,3 Points,,,,,,,,,,,,,,,,,0,55,55,55,,,,,,,,,,,d,0.1538805830059573,,,34,2024-12-06_13h02.25.622,EPIDM,2023.1.2,None,
F369.jpg,3062.jpg,2 Points,3 Points,,,,,,,,,,,,,,,,,0,56,56,56,,,,,,,,,,,d,0.14328975000535138,,,34,2024-12-06_13h02.25.622,EPIDM,2023.1.2,None,
8180.jpg,1603.jpg,4 Points,1 Points,,,,,,,,,,,,,,,,,0,57,57,57,,,,,,,,,,,d,0.23957020799571183,,,34,2024-12-06_13h02.25.622,EPIDM,2023.1.2,None,
5260.jpg,1602.jpg,5 Points,1 Point,,,,,,,,,,,,,,,,,0,58,58,58,,,,,,,,,,,s,0.04823187500005588,,,34,2024-12-06_13h02.25.622,EPIDM,2023.1.2,None,
5890.jpg,5990.jpg,2 Points,3 Points,,,,,,,,,,,,,,,,,0,59,59,59,,,,,,,,,,,a,0.202103999996325,,,34,2024-12-06_13h02.25.622,EPIDM,2023.1.2,None,
P019.jpg,6550.jpg,3 Points,5 Points,,,,,,,,,,,,,,,,,0,60,60,60,,,,,,,,,,,s,0.24792733301001135,,,34,2024-12-06_13h02.25.622,EPIDM,2023.1.2,None,
9440.jpg,1274.jpg,4 Points,1 Points,,,,,,,,,,,,,,,,,0,61,61,61,,,,,,,,,,,l,0.2187664999946719,,,34,2024-12-06_13h02.25.622,EPIDM,2023.1.2,None,
3102.jpg,9594.jpg,1 Point,4 Points,,,,,,,,,,,,,,,,,0,62,62,62,,,,,,,,,,,l,0.3373062910104636,,,34,2024-12-06_13h02.25.622,EPIDM,2023.1.2,None,
7233.jpg,5623.jpg,0 Points,5 Points,,,,,,,,,,,,,,,,,0,63,63,63,,,,,,,,,,,d,0.2549368330073776,,,34,2024-12-06_13h02.25.622,EPIDM,2023.1.2,None,
9090.jpg,8340.jpg,3 Points,2 Points,,,,,,,,,,,,,,,,,0,64,64,64,,,,,,,,,,,d,0.1975365830003284,,,34,2024-12-06_13h02.25.622,EPIDM,2023.1.2,None,
5020.jpg,5820.jpg,0 Points,5 Points,,,,,,,,,,,,,,,,,0,65,65,65,,,,,,,,,,,d,0.13845012499950826,,,34,2024-12-06_13h02.25.622,EPIDM,2023.1.2,None,
7160.jpg,2560.jpg,0 Points,4 Points,,,,,,,,,,,,,,,,,0,66,66,66,,,,,,,,,,,d,0.09340008300205227,,,34,2024-12-06_13h02.25.622,EPIDM,2023.1.2,None,
5593.jpg,9080.jpg,0 Points,5 Points,,,,,,,,,,,,,,,,,0,67,67,67,,,,,,,,,,,l,0.04495458300516475,,,34,2024-12-06_13h02.25.622,EPIDM,2023.1.2,None,
6831.jpg,9611.jpg,5 Points,3 Points,,,,,,,,,,,,,,,,,0,68,68,68,,,,,,,,,,,a,0.02751866600010544,,,34,2024-12-06_13h02.25.622,EPIDM,2023.1.2,None,
6800.jpg,7110.jpg,0 Points,5 Points,,,,,,,,,,,,,,,,,0,69,69,69,,,,,,,,,,,j,0.07960508301039226,space,1.1780690409941599,34,2024-12-06_13h02.25.622,EPIDM,2023.1.2,None,
1113.jpg,6020.jpg,3 Points,2 Points,,,,,,,,,,,,,,,,,0,70,70,70,,,,,,,,,,,j,0.6561317489977228,,,34,2024-12-06_13h02.25.622,EPIDM,2023.1.2,None,
5900.jpg,7503.jpg,3 Points,2 Points,,,,,,,,,,,,,,,,,0,71,71,71,,,,,,,,,,,d,0.42191008299414534,,,34,2024-12-06_13h02.25.622,EPIDM,2023.1.2,None,
8300.jpg,2575.jpg,3 Points,2 Points,,,,,,,,,,,,,,,,,0,72,72,72,,,,,,,,,,,k,0.149935583001934,,,34,2024-12-06_13h02.25.622,EPIDM,2023.1.2,None,
2749.jpg,5849.jpg,3 Points,2 Points,,,,,,,,,,,,,,,,,0,73,73,73,,,,,,,,,,,k,0.6640233329962939,,,34,2024-12-06_13h02.25.622,EPIDM,2023.1.2,None,
2260.jpg,7100.jpg,5 Points,3 Points,,,,,,,,,,,,,,,,,0,74,74,74,,,,,,,,,,,s,0.836004374010372,,,34,2024-12-06_13h02.25.622,EPIDM,2023.1.2,None,
5629.jpg,2597.jpg,0 Points,5 Points,,,,,,,,,,,,,,,,,0,75,75,75,,,,,,,,,,,a,0.18365370800893288,,,34,2024-12-06_13h02.25.622,EPIDM,2023.1.2,None,
2717.jpg,9330.jpg,4 Points,5 Points,,,,,,,,,,,,,,,,,0,76,76,76,,,,,,,,,,,k,0.27072108299762476,,,34,2024-12-06_13h02.25.622,EPIDM,2023.1.2,None,
7350.jpg,7286.jpg,0 Points,5 Points,,,,,,,,,,,,,,,,,0,77,77,77,,,,,,,,,,,l,0.27720862500427756,,,34,2024-12-06_13h02.25.622,EPIDM,2023.1.2,None,
6570.2.jpg,4605.jpg,3 Points,4 Points,,,,,,,,,,,,,,,,,0,78,78,78,,,,,,,,,,,a,0.0960514990001684,,,34,2024-12-06_13h02.25.622,EPIDM,2023.1.2,None,
7035.jpg,4660.jpg,1 Points,4 Points,,,,,,,,,,,,,,,,,0,79,79,79,,,,,,,,,,,d,0.6015904579980997,,,34,2024-12-06_13h02.25.622,EPIDM,2023.1.2,None,
8210.jpg,8330.jpg,3 Points,0 Points,,,,,,,,,,,,,,,,,0,80,80,80,,,,,,,,,,,l,0.42971125000622123,,,34,2024-12-06_13h02.25.622,EPIDM,2023.1.2,None,
4510.jpg,F252.jpg,5 Points,0 Points,,,,,,,,,,,,,,,,,0,81,81,81,,,,,,,,,,,j,0.6020335829962278,,,34,2024-12-06_13h02.25.622,EPIDM,2023.1.2,None,
1220.jpg,8231.jpg,1 Point,4 Points,,,,,,,,,,,,,,,,,0,82,82,82,,,,,,,,,,,k,0.5314211250079097,,,34,2024-12-06_13h02.25.622,EPIDM,2023.1.2,None,
5720.jpg,1616.jpg,3 Points,2 Points,,,,,,,,,,,,,,,,,0,83,83,83,,,,,,,,,,,a,0.4099599990004208,,,34,2024-12-06_13h02.25.622,EPIDM,2023.1.2,None,
3170.jpg,9432.jpg,2 Points,5 Points,,,,,,,,,,,,,,,,,0,84,84,84,,,,,,,,,,,j,0.16685645800316706,,,34,2024-12-06_13h02.25.622,EPIDM,2023.1.2,None,
3181.jpg,9913.jpg,4 Points,1 Points,,,,,,,,,,,,,,,,,0,85,85,85,,,,,,,,,,,d,0.4259482080087764,space,0.8720456669980194,34,2024-12-06_13h02.25.622,EPIDM,2023.1.2,None,
5471.jpg,2240.jpg,2 Points,5 Points,,,,,,,,,,,,,,,,,0,86,86,86,,,,,,,,,,,l,0.3146607079979731,,,34,2024-12-06_13h02.25.622,EPIDM,2023.1.2,None,
2683.jpg,6010.jpg,3 Points,2 Points,,,,,,,,,,,,,,,,,0,87,87,87,,,,,,,,,,,j,0.2574257500091335,,,34,2024-12-06_13h02.25.622,EPIDM,2023.1.2,None,
2650.jpg,5621.jpg,5 Points,3 Points,,,,,,,,,,,,,,,,,0,88,88,88,,,,,,,,,,,j,0.3292673740070313,,,34,2024-12-06_13h02.25.622,EPIDM,2023.1.2,None,
8090.jpg,5831.jpg,2 Points,3 Points,,,,,,,,,,,,,,,,,0,89,89,89,,,,,,,,,,,l,0.5227794580132468,,,34,2024-12-06_13h02.25.622,EPIDM,2023.1.2,None,
9320.jpg,1101.jpg,0 Points,3 Points,,,,,,,,,,,,,,,,,0,90,90,90,,,,,,,,,,,a,0.561252625004272,,,34,2024-12-06_13h02.25.622,EPIDM,2023.1.2,None,
7034.jpg,9140.jpg,2 Points,3 Points,,,,,,,,,,,,,,,,,0,91,91,91,,,,,,,,,,,s,0.6961181660008151,,,34,2024-12-06_13h02.25.622,EPIDM,2023.1.2,None,
3130.jpg,6312.jpg,4 Points,2 Points,,,,,,,,,,,,,,,,,0,92,92,92,,,,,,,,,,,j,1.3183017489936901,,,34,2024-12-06_13h02.25.622,EPIDM,2023.1.2,None,
6561.jpg,7211.jpg,2 Points,3 Points,,,,,,,,,,,,,,,,,0,93,93,93,,,,,,,,,,,l,1.3255162499990547,,,34,2024-12-06_13h02.25.622,EPIDM,2023.1.2,None,
7190.jpg,2372.jpg,5 Points,1 Point,,,,,,,,,,,,,,,,,0,94,94,94,,,,,,,,,,,d,0.5710925409948686,,,34,2024-12-06_13h02.25.622,EPIDM,2023.1.2,None,
2500.jpg,2630.jpg,5 Points,0 Points,,,,,,,,,,,,,,,,,0,95,95,95,,,,,,,,,,,l,0.7041342080046888,,,34,2024-12-06_13h02.25.622,EPIDM,2023.1.2,None,
F174.jpg,6830.jpg,5 Points,4 Points,,,,,,,,,,,,,,,,,0,96,96,96,,,,,,,,,,,k,0.4968358329933835,,,34,2024-12-06_13h02.25.622,EPIDM,2023.1.2,None,
5390.jpg,5700.jpg,0 Points,5 Points,,,,,,,,,,,,,,,,,0,97,97,97,,,,,,,,,,,k,0.024754458005190827,,,34,2024-12-06_13h02.25.622,EPIDM,2023.1.2,None,
5500.jpg,5520.jpg,3 Points,2 Points,,,,,,,,,,,,,,,,,0,98,98,98,,,,,,,,,,,a,0.43260229100997094,,,34,2024-12-06_13h02.25.622,EPIDM,2023.1.2,None,
7545.jpg,2389.jpg,5 Points,0 Points,,,,,,,,,,,,,,,,,0,99,99,99,,,,,,,,,,,k,0.8966181670111837,,,34,2024-12-06_13h02.25.622,EPIDM,2023.1.2,None,
2010.jpg,2092.jpg,5 Points,0 Points,,,,,,,,,,,,,,,,,0,100,100,100,,,,,,,,,,,j,0.3174485000054119,,,34,2024-12-06_13h02.25.622,EPIDM,2023.1.2,None,
9452.jpg,9700.jpg,4 Points,1 Points,,,,,,,,,,,,,,,,,0,101,101,101,,,,,,,,,,,s,1.7739413329982199,space,0.8388380410033278,34,2024-12-06_13h02.25.622,EPIDM,2023.1.2,None,
9421.jpg,A025.jpg,2 Points,0 Points,,,,,,,,,,,,,,,,,0,102,102,102,,,,,,,,,,,s,0.3064401250012452,,,34,2024-12-06_13h02.25.622,EPIDM,2023.1.2,None,
7182.jpg,7620.jpg,4 Points,1 Point,,,,,,,,,,,,,,,,,0,103,103,103,,,,,,,,,,,j,0.7710481240064837,,,34,2024-12-06_13h02.25.622,EPIDM,2023.1.2,None,
4608.jpg,5510.jpg,1 Point,5 Points,,,,,,,,,,,,,,,,,0,104,104,104,,,,,,,,,,,d,1.363302375000785,,,34,2024-12-06_13h02.25.622,EPIDM,2023.1.2,None,
2620.jpg,5470.jpg,0 Points,5 Points,,,,,,,,,,,,,,,,,0,105,105,105,,,,,,,,,,,k,0.10655737499473616,,,34,2024-12-06_13h02.25.622,EPIDM,2023.1.2,None,
6242.jpg,3530.jpg,4 Points,1 Point,,,,,,,,,,,,,,,,,0,106,106,106,,,,,,,,,,,a,0.3789013749919832,,,34,2024-12-06_13h02.25.622,EPIDM,2023.1.2,None,
5731.jpg,2606.jpg,4 Points,1 Point,,,,,,,,,,,,,,,,,0,107,107,107,,,,,,,,,,,k,0.18913012399571016,,,34,2024-12-06_13h02.25.622,EPIDM,2023.1.2,None,
1650.jpg,7237.jpg,1 Points,4 Points,,,,,,,,,,,,,,,,,0,108,108,108,,,,,,,,,,,k,0.6676777499960735,,,34,2024-12-06_13h02.25.622,EPIDM,2023.1.2,None,
4275.jpg,5920.jpg,3 Points,2 Points,,,,,,,,,,,,,,,,,0,109,109,109,,,,,,,,,,,d,0.6768244580016471,,,34,2024-12-06_13h02.25.622,EPIDM,2023.1.2,None,
8220.jpg,4689.jpg,4 Points,5 Points,,,,,,,,,,,,,,,,,0,110,110,110,,,,,,,,,,,a,0.5470967489964096,,,34,2024-12-06_13h02.25.622,EPIDM,2023.1.2,None,
7040.jpg,P077.jpg,4 Points,1 Point,,,,,,,,,,,,,,,,,0,111,111,111,,,,,,,,,,,l,0.9378965829964727,,,34,2024-12-06_13h02.25.622,EPIDM,2023.1.2,None,
6510.jpg,3120.jpg,2 Points,5 Points,,,,,,,,,,,,,,,,,0,112,112,112,,,,,,,,,,,a,1.1125443329947302,,,34,2024-12-06_13h02.25.622,EPIDM,2023.1.2,None,
P233.jpg,7217.jpg,1 Point,4 Points,,,,,,,,,,,,,,,,,0,113,113,113,,,,,,,,,,,d,0.688262208015658,,,34,2024-12-06_13h02.25.622,EPIDM,2023.1.2,None,
3064.jpg,9070.jpg,4 Points,2 Points,,,,,,,,,,,,,,,,,0,114,114,114,,,,,,,,,,,k,0.13423195799987298,,,34,2024-12-06_13h02.25.622,EPIDM,2023.1.2,None,
7207.jpg,2320.jpg,1 Points,4 Points,,,,,,,,,,,,,,,,,0,115,115,115,,,,,,,,,,,a,0.5141318739915732,,,34,2024-12-06_13h02.25.622,EPIDM,2023.1.2,None,
5531.jpg,1720.jpg,3 Points,4 Points,,,,,,,,,,,,,,,,,0,116,116,116,,,,,,,,,,,l,0.5909346249973169,,,34,2024-12-06_13h02.25.622,EPIDM,2023.1.2,None,
9300.jpg,7030.jpg,4 Points,1 Points,,,,,,,,,,,,,,,,,0,117,117,117,,,,,,,,,,,a,0.24919295801373664,space,2.1893995000136783,34,2024-12-06_13h02.25.622,EPIDM,2023.1.2,None,
2020.jpg,1811.jpg,5 Points,1 Point,,,,,,,,,,,,,,,,,0,118,118,118,,,,,,,,,,,k,0.6546299159963382,,,34,2024-12-06_13h02.25.622,EPIDM,2023.1.2,None,
7020.jpg,6150.jpg,5 Points,0 Points,,,,,,,,,,,,,,,,,0,119,119,119,,,,,,,,,,,d,0.10061783299897797,,,34,2024-12-06_13h02.25.622,EPIDM,2023.1.2,None,
9042.jpg,P217.jpg,0 Points,5 Points,,,,,,,,,,,,,,,,,0,120,120,120,,,,,,,,,,,j,0.3946760830003768,,,34,2024-12-06_13h02.25.622,EPIDM,2023.1.2,None,
3160.jpg,7080.jpg,1 Point,4 Points,,,,,,,,,,,,,,,,,0,121,121,121,,,,,,,,,,,a,0.1334372080018511,,,34,2024-12-06_13h02.25.622,EPIDM,2023.1.2,None,
7260.jpg,8260.jpg,5 Points,3 Points,,,,,,,,,,,,,,,,,0,122,122,122,,,,,,,,,,,k,0.004211833002045751,,,34,2024-12-06_13h02.25.622,EPIDM,2023.1.2,None,
5740.jpg,7205.jpg,0 Points,5 Points,,,,,,,,,,,,,,,,,0,123,123,123,,,,,,,,,,,j,0.03072404100385029,,,34,2024-12-06_13h02.25.622,EPIDM,2023.1.2,None,
1660.jpg,8040.jpg,2 Points,1 Point,,,,,,,,,,,,,,,,,0,124,124,124,,,,,,,,,,,d,0.12360345799243078,,,34,2024-12-06_13h02.25.622,EPIDM,2023.1.2,None,
5410.jpg,5530.jpg,5 Points,0 Points,,,,,,,,,,,,,,,,,0,125,125,125,,,,,,,,,,,d,0.08505712500482332,,,34,2024-12-06_13h02.25.622,EPIDM,2023.1.2,None,
2276.jpg,9008.jpg,3 Points,1 Point,,,,,,,,,,,,,,,,,0,126,126,126,,,,,,,,,,,s,0.47820241600857116,,,34,2024-12-06_13h02.25.622,EPIDM,2023.1.2,None,
5628.jpg,5201.jpg,5 Points,0 Points,,,,,,,,,,,,,,,,,0,127,127,127,,,,,,,,,,,d,0.004739749012514949,,,34,2024-12-06_13h02.25.622,EPIDM,2023.1.2,None,
4250.jpg,7830.jpg,5 Points,3 Points,,,,,,,,,,,,,,,,,0,128,128,128,,,,,,,,,,,s,1.227460667010746,,,34,2024-12-06_13h02.25.622,EPIDM,2023.1.2,None,
2215.jpg,7050.jpg,1 Point,4 Points,,,,,,,,,,,,,,,,,0,129,129,129,,,,,,,,,,,d,0.40525604199501686,,,34,2024-12-06_13h02.25.622,EPIDM,2023.1.2,None,
3550.jpg,3280.jpg,2 Points,0 Points,,,,,,,,,,,,,,,,,0,130,130,130,,,,,,,,,,,j,0.5724705420143437,,,34,2024-12-06_13h02.25.622,EPIDM,2023.1.2,None,
5910.jpg,5800.jpg,5 Points,0 Points,,,,,,,,,,,,,,,,,0,131,131,131,,,,,,,,,,,d,0.24574699900404084,,,34,2024-12-06_13h02.25.622,EPIDM,2023.1.2,None,
1300.jpg,3000.jpg,2 Points,5 Points,,,,,,,,,,,,,,,,,0,132,132,132,,,,,,,,,,,d,0.3418920830008574,,,34,2024-12-06_13h02.25.622,EPIDM,2023.1.2,None,
4233.jpg,5875.jpg,5 Points,0 Points,,,,,,,,,,,,,,,,,0,133,133,133,,,,,,,,,,,d,0.09552058299595956,space,1.1413002500048606,34,2024-12-06_13h02.25.622,EPIDM,2023.1.2,None,
2221.jpg,1303.jpg,2 Points,0 Points,,,,,,,,,,,,,,,,,0,134,134,134,,,,,,,,,,,s,0.5218997910124017,,,34,2024-12-06_13h02.25.622,EPIDM,2023.1.2,None,
9600.jpg,7640.jpg,5 Points,0 Points,,,,,,,,,,,,,,,,,0,135,135,135,,,,,,,,,,,j,0.23609499899612274,,,34,2024-12-06_13h02.25.622,EPIDM,2023.1.2,None,
1810.jpg,2616.jpg,3 Points,4 Points,,,,,,,,,,,,,,,,,0,136,136,136,,,,,,,,,,,d,0.40213429200230166,,,34,2024-12-06_13h02.25.622,EPIDM,2023.1.2,None,
9180.jpg,9630.jpg,3 Points,2 Points,,,,,,,,,,,,,,,,,0,137,137,137,,,,,,,,,,,j,0.49860845801595133,,,34,2024-12-06_13h02.25.622,EPIDM,2023.1.2,None,
3071.jpg,1302.jpg,1 Point,3 Points,,,,,,,,,,,,,,,,,0,138,138,138,,,,,,,,,,,d,0.1971366660000058,,,34,2024-12-06_13h02.25.622,EPIDM,2023.1.2,None,
7000.jpg,1661.jpg,2 Points,3 Points,,,,,,,,,,,,,,,,,0,139,139,139,,,,,,,,,,,d,0.034517874009907246,,,34,2024-12-06_13h02.25.622,EPIDM,2023.1.2,None,
1110.jpg,3150.jpg,2 Points,1 Point,,,,,,,,,,,,,,,,,0,140,140,140,,,,,,,,,,,d,0.5885216250026133,,,34,2024-12-06_13h02.25.622,EPIDM,2023.1.2,None,
9400.jpg,9810.jpg,3 Points,2 Points,,,,,,,,,,,,,,,,,0,141,141,141,,,,,,,,,,,j,0.2597610410011839,,,34,2024-12-06_13h02.25.622,EPIDM,2023.1.2,None,
8033.jpg,4534.jpg,3 Points,0 Points,,,,,,,,,,,,,,,,,0,142,142,142,,,,,,,,,,,s,0.41586908299359493,,,34,2024-12-06_13h02.25.622,EPIDM,2023.1.2,None,
7502.jpg,9181.jpg,5 Points,0 Points,,,,,,,,,,,,,,,,,0,143,143,143,,,,,,,,,,,a,0.19384825001179706,,,34,2024-12-06_13h02.25.622,EPIDM,2023.1.2,None,
7175.jpg,8021.jpg,2 Points,4 Points,,,,,,,,,,,,,,,,,0,144,144,144,,,,,,,,,,,a,0.05098941700998694,,,34,2024-12-06_13h02.25.622,EPIDM,2023.1.2,None,
9280.jpg,9424.jpg,1 Point,4 Points,,,,,,,,,,,,,,,,,0,145,145,145,,,,,,,,,,,d,0.1265461240109289,,,34,2024-12-06_13h02.25.622,EPIDM,2023.1.2,None,
8230.jpg,2710.jpg,5 Points,1 Point,,,,,,,,,,,,,,,,,0,146,146,146,,,,,,,,,,,d,0.019827083000564016,,,34,2024-12-06_13h02.25.622,EPIDM,2023.1.2,None,
7235.jpg,7186.jpg,3 Points,2 Points,,,,,,,,,,,,,,,,,0,147,147,147,,,,,,,,,,,l,0.3441310829948634,,,34,2024-12-06_13h02.25.622,EPIDM,2023.1.2,None,
7351.jpg,7187.jpg,4 Points,1 Point,,,,,,,,,,,,,,,,,0,148,148,148,,,,,,,,,,,d,0.06853649899130687,,,34,2024-12-06_13h02.25.622,EPIDM,2023.1.2,None,
9001.jpg,1230.jpg,1 Point,4 Points,,,,,,,,,,,,,,,,,0,149,149,149,,,,,,,,,,,d,0.0348647499922663,space,1.3689084990037372,34,2024-12-06_13h02.25.622,EPIDM,2023.1.2,None,
9410.jpg,1280.jpg,0 Points,2 Points,,,,,,,,,,,,,,,,,0,150,150,150,,,,,,,,,,,a,0.19545741600450128,,,34,2024-12-06_13h02.25.622,EPIDM,2023.1.2,None,
2716.jpg,A053.jpg,2 Points,3 Points,,,,,,,,,,,,,,,,,0,151,151,151,,,,,,,,,,,l,0.04635045799659565,,,34,2024-12-06_13h02.25.622,EPIDM,2023.1.2,None,
1070.jpg,3220.jpg,2 Points,5 Points,,,,,,,,,,,,,,,,,0,152,152,152,,,,,,,,,,,s,0.0022030410036677495,,,34,2024-12-06_13h02.25.622,EPIDM,2023.1.2,None,
2205.jpg,7550.jpg,4 Points,1 Points,,,,,,,,,,,,,,,,,0,153,153,153,,,,,,,,,,,a,0.04480208300810773,,,34,2024-12-06_13h02.25.622,EPIDM,2023.1.2,None,
2720.jpg,1610.jpg,4 Points,0 Points,,,,,,,,,,,,,,,,,0,154,154,154,,,,,,,,,,,a,0.1425319580012001,,,34,2024-12-06_13h02.25.622,EPIDM,2023.1.2,None,
5991.jpg,5750.jpg,0 Points,5 Points,,,,,,,,,,,,,,,,,0,155,155,155,,,,,,,,,,,j,0.2380410000041593,,,34,2024-12-06_13h02.25.622,EPIDM,2023.1.2,None,
3010.jpg,9520.jpg,5 Points,3 Points,,,,,,,,,,,,,,,,,0,156,156,156,,,,,,,,,,,j,0.2075556250056252,,,34,2024-12-06_13h02.25.622,EPIDM,2023.1.2,None,
6900.jpg,7095.jpg,4 Points,1 Points,,,,,,,,,,,,,,,,,0,157,157,157,,,,,,,,,,,a,0.029184291008277796,,,34,2024-12-06_13h02.25.622,EPIDM,2023.1.2,None,
8500.jpg,7820.jpg,4 Points,0 Points,,,,,,,,,,,,,,,,,0,158,158,158,,,,,,,,,,,l,0.266711791002308,,,34,2024-12-06_13h02.25.622,EPIDM,2023.1.2,None,
7004.jpg,2120.jpg,5 Points,0 Points,,,,,,,,,,,,,,,,,0,159,159,159,,,,,,,,,,,d,0.2153992080129683,,,34,2024-12-06_13h02.25.622,EPIDM,2023.1.2,None,
