L_Scene,R_Scene,L_Pts,R_Pts,Instructions_Loop.thisRepN,Instructions_Loop.thisTrialN,Instructions_Loop.thisN,Instructions_Loop.thisIndex,Redo_Instructions_Loop.thisRepN,Redo_Instructions_Loop.thisTrialN,Redo_Instructions_Loop.thisN,Redo_Instructions_Loop.thisIndex,Practice_Recognition_Loop.thisRepN,Practice_Recognition_Loop.thisTrialN,Practice_Recognition_Loop.thisN,Practice_Recognition_Loop.thisIndex,Practice_FB_Loop.thisRepN,Practice_FB_Loop.thisTrialN,Practice_FB_Loop.thisN,Practice_FB_Loop.thisIndex,RecStim_Loop.thisRepN,RecStim_Loop.thisTrialN,RecStim_Loop.thisN,RecStim_Loop.thisIndex,FB_Loop.thisRepN,FB_Loop.thisTrialN,FB_Loop.thisN,FB_Loop.thisIndex,RecBrk_Loop.thisRepN,RecBrk_Loop.thisTrialN,RecBrk_Loop.thisN,RecBrk_Loop.thisIndex,Transition_Enc.keys,Transition_Enc.rt,Encoding_Resp.keys,Encoding_Resp.rt,EncBrk_Resp.keys,EncBrk_Resp.rt,participant,date,expName,psychopyVersion,frameRate,
,,,,,,,,,,,,,,,,,,,,,,,,,,,,,,,,space,19.086447501002112,,,,,36,2024-12-08_12h04.11.785,EPIDM,2023.1.2,None,
F078.jpg,L130.jpg,,,,,,,,,,,0,0,0,0,,,,,,,,,,,,,,,,,,,k,7.825237208016915,,,36,2024-12-08_12h04.11.785,EPIDM,2023.1.2,None,
P036.jpg,P217.jpg,,,,,,,,,,,0,1,1,1,,,,,,,,,,,,,,,,,,,a,20.474587458971655,,,36,2024-12-08_12h04.11.785,EPIDM,2023.1.2,None,
O161.jpg,F218.jpg,,,,,,,,,,,0,2,2,2,,,,,,,,,,,,,,,,,,,s,9.0008911670011,,,36,2024-12-08_12h04.11.785,EPIDM,2023.1.2,None,
F279.jpg,A001.jpg,,,,,,,,,,,0,3,3,3,,,,,,,,,,,,,,,,,,,d,12.513705333985854,,,36,2024-12-08_12h04.11.785,EPIDM,2023.1.2,None,
F273.jpg,A060.jpg,,,,,,,,,,,0,4,4,4,,,,,,,,,,,,,,,,,,,k,6.928186000994174,,,36,2024-12-08_12h04.11.785,EPIDM,2023.1.2,None,
2393.jpg,L055.jpg,,,,,,,,,,,0,5,5,5,,,,,,,,,,,,,,,,,,,k,11.974764708982548,,,36,2024-12-08_12h04.11.785,EPIDM,2023.1.2,None,
1812.jpg,2593.jpg,,,,,,,,,,,0,6,6,6,,,,,,,,,,,,,,,,,,,j,6.928221833979478,,,36,2024-12-08_12h04.11.785,EPIDM,2023.1.2,None,
O013.jpg,A067.jpg,,,,,,,,,,,0,7,7,7,,,,,,,,,,,,,,,,,,,j,6.369907499989495,,,36,2024-12-08_12h04.11.785,EPIDM,2023.1.2,None,
P033.jpg,P034.jpg,,,,,,,,,,,0,8,8,8,,,,,,,,,,,,,,,,,,,s,9.52707112499047,,,36,2024-12-08_12h04.11.785,EPIDM,2023.1.2,None,
A104.jpg,8186.jpg,,,,,,,,,,,0,9,9,9,,,,,,,,,,,,,,,,,,,k,8.427392334007891,,,36,2024-12-08_12h04.11.785,EPIDM,2023.1.2,None,
,,,,,,,,,,,,,,,,,,,,,,,,,,,,,,,,space,10.567106417001924,,,,,36,2024-12-08_12h04.11.785,EPIDM,2023.1.2,None,
2271.jpg,9405.jpg,2 Points,3 Points,,,,,,,,,,,,,,,,,0,0,0,0,,,,,,,,,,,s,6.589003375003813,,,36,2024-12-08_12h04.11.785,EPIDM,2023.1.2,None,
2214.jpg,5532.jpg,3 Points,2 Points,,,,,,,,,,,,,,,,,0,1,1,1,,,,,,,,,,,a,5.285036042012507,,,36,2024-12-08_12h04.11.785,EPIDM,2023.1.2,None,
6360.jpg,6834.jpg,1 Point,5 Points,,,,,,,,,,,,,,,,,0,2,2,2,,,,,,,,,,,k,5.626653333980357,,,36,2024-12-08_12h04.11.785,EPIDM,2023.1.2,None,
9921.jpg,6370.jpg,1 Points,4 Points,,,,,,,,,,,,,,,,,0,3,3,3,,,,,,,,,,,l,8.857583500008332,,,36,2024-12-08_12h04.11.785,EPIDM,2023.1.2,None,
5455.jpg,7570.jpg,0 Points,5 Points,,,,,,,,,,,,,,,,,0,4,4,4,,,,,,,,,,,j,7.848303541977657,,,36,2024-12-08_12h04.11.785,EPIDM,2023.1.2,None,
1942.jpg,2515.jpg,1 Points,4 Points,,,,,,,,,,,,,,,,,0,5,5,5,,,,,,,,,,,k,12.059457666997332,space,25.438692374998936,36,2024-12-08_12h04.11.785,EPIDM,2023.1.2,None,
9912.jpg,9050.jpg,5 Points,4 Points,,,,,,,,,,,,,,,,,0,6,6,6,,,,,,,,,,,j,9.552426959009608,,,36,2024-12-08_12h04.11.785,EPIDM,2023.1.2,None,
7500.jpg,6313.jpg,2 Points,3 Points,,,,,,,,,,,,,,,,,0,7,7,7,,,,,,,,,,,s,4.33544225001242,,,36,2024-12-08_12h04.11.785,EPIDM,2023.1.2,None,
9250.jpg,3080.jpg,0 Points,1 Points,,,,,,,,,,,,,,,,,0,8,8,8,,,,,,,,,,,d,6.276240791979944,,,36,2024-12-08_12h04.11.785,EPIDM,2023.1.2,None,
9220.jpg,7560.jpg,1 Point,4 Points,,,,,,,,,,,,,,,,,0,9,9,9,,,,,,,,,,,k,10.444580084003974,,,36,2024-12-08_12h04.11.785,EPIDM,2023.1.2,None,
2518.jpg,8250.jpg,1 Point,4 Points,,,,,,,,,,,,,,,,,0,10,10,10,,,,,,,,,,,d,8.739350125018973,,,36,2024-12-08_12h04.11.785,EPIDM,2023.1.2,None,
1932.jpg,2053.jpg,1 Points,4 Points,,,,,,,,,,,,,,,,,0,11,11,11,,,,,,,,,,,k,6.911068001005333,,,36,2024-12-08_12h04.11.785,EPIDM,2023.1.2,None,
6836.jpg,5940.jpg,4 Points,0 Points,,,,,,,,,,,,,,,,,0,12,12,12,,,,,,,,,,,d,10.040199000010034,,,36,2024-12-08_12h04.11.785,EPIDM,2023.1.2,None,
9010.jpg,5450.jpg,0 Points,5 Points,,,,,,,,,,,,,,,,,0,13,13,13,,,,,,,,,,,l,7.7599463340011425,,,36,2024-12-08_12h04.11.785,EPIDM,2023.1.2,None,
1540.jpg,1560.jpg,1 Point,0 Points,,,,,,,,,,,,,,,,,0,14,14,14,,,,,,,,,,,a,7.024460167012876,,,36,2024-12-08_12h04.11.785,EPIDM,2023.1.2,None,
7006.jpg,9622.jpg,3 Points,2 Points,,,,,,,,,,,,,,,,,0,15,15,15,,,,,,,,,,,k,4.878839458979201,,,36,2024-12-08_12h04.11.785,EPIDM,2023.1.2,None,
1670.jpg,4274.jpg,3 Points,2 Points,,,,,,,,,,,,,,,,,0,16,16,16,,,,,,,,,,,s,7.835168249992421,,,36,2024-12-08_12h04.11.785,EPIDM,2023.1.2,None,
9156.jpg,7495.jpg,4 Points,1 Points,,,,,,,,,,,,,,,,,0,17,17,17,,,,,,,,,,,d,17.814696167013608,,,36,2024-12-08_12h04.11.785,EPIDM,2023.1.2,None,
6910.jpg,9160.jpg,0 Points,4 Points,,,,,,,,,,,,,,,,,0,18,18,18,,,,,,,,,,,l,7.983004792011343,,,36,2024-12-08_12h04.11.785,EPIDM,2023.1.2,None,
7096.jpg,1111.jpg,5 Points,0 Points,,,,,,,,,,,,,,,,,0,19,19,19,,,,,,,,,,,a,8.54299383299076,,,36,2024-12-08_12h04.11.785,EPIDM,2023.1.2,None,
9910.jpg,7060.jpg,2 Points,5 Points,,,,,,,,,,,,,,,,,0,20,20,20,,,,,,,,,,,s,5.350552833988331,,,36,2024-12-08_12h04.11.785,EPIDM,2023.1.2,None,
1112.jpg,6415.jpg,3 Points,2 Points,,,,,,,,,,,,,,,,,0,21,21,21,,,,,,,,,,,s,5.541050708008697,space,29.913795957982074,36,2024-12-08_12h04.11.785,EPIDM,2023.1.2,None,
1740.jpg,2385.jpg,0 Points,3 Points,,,,,,,,,,,,,,,,,0,22,22,22,,,,,,,,,,,k,4.014329458994325,,,36,2024-12-08_12h04.11.785,EPIDM,2023.1.2,None,
7183.jpg,9433.jpg,4 Points,1 Point,,,,,,,,,,,,,,,,,0,23,23,23,,,,,,,,,,,s,10.489905666996492,,,36,2024-12-08_12h04.11.785,EPIDM,2023.1.2,None,
9490.jpg,9254.jpg,1 Point,2 Points,,,,,,,,,,,,,,,,,0,24,24,24,,,,,,,,,,,j,6.32054133299971,,,36,2024-12-08_12h04.11.785,EPIDM,2023.1.2,None,
2850.jpg,7150.jpg,3 Points,2 Points,,,,,,,,,,,,,,,,,0,25,25,25,,,,,,,,,,,d,4.383280917012598,,,36,2024-12-08_12h04.11.785,EPIDM,2023.1.2,None,
3022.jpg,9417.jpg,0 Points,1 Point,,,,,,,,,,,,,,,,,0,26,26,26,,,,,,,,,,,k,8.321916708024219,,,36,2024-12-08_12h04.11.785,EPIDM,2023.1.2,None,
3069.jpg,O022.jpg,3 Points,2 Points,,,,,,,,,,,,,,,,,0,27,27,27,,,,,,,,,,,d,8.372800541983452,,,36,2024-12-08_12h04.11.785,EPIDM,2023.1.2,None,
8400.jpg,2490.jpg,1 Point,4 Points,,,,,,,,,,,,,,,,,0,28,28,28,,,,,,,,,,,j,8.128025000012713,,,36,2024-12-08_12h04.11.785,EPIDM,2023.1.2,None,
8117.jpg,7281.jpg,5 Points,0 Points,,,,,,,,,,,,,,,,,0,29,29,29,,,,,,,,,,,k,6.046311917016283,,,36,2024-12-08_12h04.11.785,EPIDM,2023.1.2,None,
8311.jpg,8161.jpg,2 Points,4 Points,,,,,,,,,,,,,,,,,0,30,30,30,,,,,,,,,,,j,9.19021362598869,,,36,2024-12-08_12h04.11.785,EPIDM,2023.1.2,None,
7010.jpg,9040.jpg,2 Points,3 Points,,,,,,,,,,,,,,,,,0,31,31,31,,,,,,,,,,,k,6.076528292003786,,,36,2024-12-08_12h04.11.785,EPIDM,2023.1.2,None,
5970.jpg,3110.jpg,0 Points,4 Points,,,,,,,,,,,,,,,,,0,32,32,32,,,,,,,,,,,s,16.825391959020635,,,36,2024-12-08_12h04.11.785,EPIDM,2023.1.2,None,
9570.jpg,9911.jpg,0 Points,5 Points,,,,,,,,,,,,,,,,,0,33,33,33,,,,,,,,,,,j,4.2468878329964355,,,36,2024-12-08_12h04.11.785,EPIDM,2023.1.2,None,
2752.jpg,3266.jpg,2 Points,1 Point,,,,,,,,,,,,,,,,,0,34,34,34,,,,,,,,,,,k,5.543983876006678,,,36,2024-12-08_12h04.11.785,EPIDM,2023.1.2,None,
7090.jpg,2690.jpg,4 Points,1 Point,,,,,,,,,,,,,,,,,0,35,35,35,,,,,,,,,,,j,4.90622262499528,,,36,2024-12-08_12h04.11.785,EPIDM,2023.1.2,None,
8232.jpg,2030.jpg,5 Points,0 Points,,,,,,,,,,,,,,,,,0,36,36,36,,,,,,,,,,,a,5.042718916985905,,,36,2024-12-08_12h04.11.785,EPIDM,2023.1.2,None,
9920.jpg,5950.jpg,5 Points,0 Points,,,,,,,,,,,,,,,,,0,37,37,37,,,,,,,,,,,d,4.841884416993707,space,32.30912062502466,36,2024-12-08_12h04.11.785,EPIDM,2023.1.2,None,
9571.jpg,1945.jpg,2 Points,4 Points,,,,,,,,,,,,,,,,,0,38,38,38,,,,,,,,,,,d,8.177872749976814,,,36,2024-12-08_12h04.11.785,EPIDM,2023.1.2,None,
5626.jpg,7234.jpg,2 Points,3 Points,,,,,,,,,,,,,,,,,0,39,39,39,,,,,,,,,,,s,7.030922834004741,,,36,2024-12-08_12h04.11.785,EPIDM,2023.1.2,None,
6244.jpg,9041.jpg,0 Points,4 Points,,,,,,,,,,,,,,,,,0,40,40,40,,,,,,,,,,,k,5.249089624994667,,,36,2024-12-08_12h04.11.785,EPIDM,2023.1.2,None,
6250.1.jpg,7705.jpg,0 Points,5 Points,,,,,,,,,,,,,,,,,0,41,41,41,,,,,,,,,,,s,5.811057999992045,,,36,2024-12-08_12h04.11.785,EPIDM,2023.1.2,None,
2280.jpg,2170.jpg,4 Points,2 Points,,,,,,,,,,,,,,,,,0,42,42,42,,,,,,,,,,,a,4.099838499998441,,,36,2024-12-08_12h04.11.785,EPIDM,2023.1.2,None,
7140.jpg,1590.jpg,0 Points,5 Points,,,,,,,,,,,,,,,,,0,43,43,43,,,,,,,,,,,s,6.0003862919984385,,,36,2024-12-08_12h04.11.785,EPIDM,2023.1.2,None,
2661.jpg,2520.jpg,5 Points,2 Points,,,,,,,,,,,,,,,,,0,44,44,44,,,,,,,,,,,d,7.424120458977995,,,36,2024-12-08_12h04.11.785,EPIDM,2023.1.2,None,
8480.jpg,9830.jpg,1 Point,4 Points,,,,,,,,,,,,,,,,,0,45,45,45,,,,,,,,,,,j,5.9885317090083845,,,36,2024-12-08_12h04.11.785,EPIDM,2023.1.2,None,
F149.jpg,6571.jpg,0 Points,2 Points,,,,,,,,,,,,,,,,,0,46,46,46,,,,,,,,,,,s,6.453242083982332,,,36,2024-12-08_12h04.11.785,EPIDM,2023.1.2,None,
9621.jpg,6838.jpg,0 Points,5 Points,,,,,,,,,,,,,,,,,0,47,47,47,,,,,,,,,,,l,3.314508959010709,,,36,2024-12-08_12h04.11.785,EPIDM,2023.1.2,None,
9401.jpg,9110.jpg,2 Points,1 Point,,,,,,,,,,,,,,,,,0,48,48,48,,,,,,,,,,,k,6.198518958990462,,,36,2024-12-08_12h04.11.785,EPIDM,2023.1.2,None,
1022.jpg,7031.jpg,1 Point,4 Points,,,,,,,,,,,,,,,,,0,49,49,49,,,,,,,,,,,a,2.832990125985816,,,36,2024-12-08_12h04.11.785,EPIDM,2023.1.2,None,
5480.jpg,2312.jpg,4 Points,1 Points,,,,,,,,,,,,,,,,,0,50,50,50,,,,,,,,,,,k,4.3394450419873465,,,36,2024-12-08_12h04.11.785,EPIDM,2023.1.2,None,
7025.jpg,9584.jpg,3 Points,2 Points,,,,,,,,,,,,,,,,,0,51,51,51,,,,,,,,,,,d,6.2824316670012195,,,36,2024-12-08_12h04.11.785,EPIDM,2023.1.2,None,
1201.jpg,3180.jpg,3 Points,5 Points,,,,,,,,,,,,,,,,,0,52,52,52,,,,,,,,,,,d,5.43145358399488,,,36,2024-12-08_12h04.11.785,EPIDM,2023.1.2,None,
3350.jpg,7130.jpg,1 Point,4 Points,,,,,,,,,,,,,,,,,0,53,53,53,,,,,,,,,,,s,5.653992375009693,space,27.914613959001144,36,2024-12-08_12h04.11.785,EPIDM,2023.1.2,None,
7195.jpg,2200.jpg,2 Points,1 Point,,,,,,,,,,,,,,,,,0,54,54,54,,,,,,,,,,,l,2.944960541994078,,,36,2024-12-08_12h04.11.785,EPIDM,2023.1.2,None,
7224.jpg,9102.jpg,2 Points,3 Points,,,,,,,,,,,,,,,,,0,55,55,55,,,,,,,,,,,k,3.007383875985397,,,36,2024-12-08_12h04.11.785,EPIDM,2023.1.2,None,
F369.jpg,3062.jpg,2 Points,3 Points,,,,,,,,,,,,,,,,,0,56,56,56,,,,,,,,,,,d,3.9496870419825427,,,36,2024-12-08_12h04.11.785,EPIDM,2023.1.2,None,
8180.jpg,1603.jpg,4 Points,1 Points,,,,,,,,,,,,,,,,,0,57,57,57,,,,,,,,,,,j,6.140545041998848,,,36,2024-12-08_12h04.11.785,EPIDM,2023.1.2,None,
5982.jpg,1602.jpg,5 Points,1 Point,,,,,,,,,,,,,,,,,0,58,58,58,,,,,,,,,,,a,2.4855940009874757,,,36,2024-12-08_12h04.11.785,EPIDM,2023.1.2,None,
5890.jpg,5780.jpg,2 Points,3 Points,,,,,,,,,,,,,,,,,0,59,59,59,,,,,,,,,,,j,5.50255304199527,,,36,2024-12-08_12h04.11.785,EPIDM,2023.1.2,None,
F158.jpg,6550.jpg,3 Points,5 Points,,,,,,,,,,,,,,,,,0,60,60,60,,,,,,,,,,,a,3.346850125992205,,,36,2024-12-08_12h04.11.785,EPIDM,2023.1.2,None,
6350.jpg,1274.jpg,4 Points,1 Points,,,,,,,,,,,,,,,,,0,61,61,61,,,,,,,,,,,d,5.278160791989649,,,36,2024-12-08_12h04.11.785,EPIDM,2023.1.2,None,
3102.jpg,9594.jpg,1 Point,4 Points,,,,,,,,,,,,,,,,,0,62,62,62,,,,,,,,,,,k,3.6979345839936286,,,36,2024-12-08_12h04.11.785,EPIDM,2023.1.2,None,
7233.jpg,1850.jpg,0 Points,5 Points,,,,,,,,,,,,,,,,,0,63,63,63,,,,,,,,,,,d,4.301729125989368,,,36,2024-12-08_12h04.11.785,EPIDM,2023.1.2,None,
9090.jpg,8340.jpg,3 Points,2 Points,,,,,,,,,,,,,,,,,0,64,64,64,,,,,,,,,,,j,4.378372916980879,,,36,2024-12-08_12h04.11.785,EPIDM,2023.1.2,None,
5200.jpg,5820.jpg,0 Points,5 Points,,,,,,,,,,,,,,,,,0,65,65,65,,,,,,,,,,,k,5.516338791989256,,,36,2024-12-08_12h04.11.785,EPIDM,2023.1.2,None,
7280.jpg,2560.jpg,0 Points,4 Points,,,,,,,,,,,,,,,,,0,66,66,66,,,,,,,,,,,j,4.039167875016574,,,36,2024-12-08_12h04.11.785,EPIDM,2023.1.2,None,
5593.jpg,5600.jpg,0 Points,5 Points,,,,,,,,,,,,,,,,,0,67,67,67,,,,,,,,,,,s,2.458620916993823,,,36,2024-12-08_12h04.11.785,EPIDM,2023.1.2,None,
2141.jpg,9611.jpg,5 Points,3 Points,,,,,,,,,,,,,,,,,0,68,68,68,,,,,,,,,,,d,14.531576709006913,,,36,2024-12-08_12h04.11.785,EPIDM,2023.1.2,None,
9190.jpg,7110.jpg,0 Points,5 Points,,,,,,,,,,,,,,,,,0,69,69,69,,,,,,,,,,,s,2.8725271259900182,space,31.21556120799505,36,2024-12-08_12h04.11.785,EPIDM,2023.1.2,None,
1113.jpg,6300.jpg,3 Points,2 Points,,,,,,,,,,,,,,,,,0,70,70,70,,,,,,,,,,,a,1.8281647919793613,,,36,2024-12-08_12h04.11.785,EPIDM,2023.1.2,None,
5900.jpg,7503.jpg,3 Points,2 Points,,,,,,,,,,,,,,,,,0,71,71,71,,,,,,,,,,,d,6.164895042020362,,,36,2024-12-08_12h04.11.785,EPIDM,2023.1.2,None,
2580.jpg,2575.jpg,3 Points,2 Points,,,,,,,,,,,,,,,,,0,72,72,72,,,,,,,,,,,k,4.229823041998316,,,36,2024-12-08_12h04.11.785,EPIDM,2023.1.2,None,
7282.jpg,5849.jpg,3 Points,2 Points,,,,,,,,,,,,,,,,,0,73,73,73,,,,,,,,,,,d,7.905452832987066,,,36,2024-12-08_12h04.11.785,EPIDM,2023.1.2,None,
2830.jpg,2681.jpg,5 Points,3 Points,,,,,,,,,,,,,,,,,0,74,74,74,,,,,,,,,,,a,5.489130125002703,,,36,2024-12-08_12h04.11.785,EPIDM,2023.1.2,None,
5629.jpg,5870.jpg,0 Points,5 Points,,,,,,,,,,,,,,,,,0,75,75,75,,,,,,,,,,,k,2.4223085419798736,,,36,2024-12-08_12h04.11.785,EPIDM,2023.1.2,None,
2717.jpg,9330.jpg,4 Points,5 Points,,,,,,,,,,,,,,,,,0,76,76,76,,,,,,,,,,,s,3.076465999998618,,,36,2024-12-08_12h04.11.785,EPIDM,2023.1.2,None,
2485.jpg,7286.jpg,0 Points,5 Points,,,,,,,,,,,,,,,,,0,77,77,77,,,,,,,,,,,j,6.103046584001277,,,36,2024-12-08_12h04.11.785,EPIDM,2023.1.2,None,
6570.2.jpg,1510.jpg,3 Points,4 Points,,,,,,,,,,,,,,,,,0,78,78,78,,,,,,,,,,,l,3.108554333972279,,,36,2024-12-08_12h04.11.785,EPIDM,2023.1.2,None,
7035.jpg,7002.jpg,1 Points,4 Points,,,,,,,,,,,,,,,,,0,79,79,79,,,,,,,,,,,a,5.730275333975442,,,36,2024-12-08_12h04.11.785,EPIDM,2023.1.2,None,
5535.jpg,8460.jpg,3 Points,0 Points,,,,,,,,,,,,,,,,,0,80,80,80,,,,,,,,,,,s,6.171446000022115,,,36,2024-12-08_12h04.11.785,EPIDM,2023.1.2,None,
2230.jpg,F252.jpg,5 Points,0 Points,,,,,,,,,,,,,,,,,0,81,81,81,,,,,,,,,,,s,5.849141416983912,,,36,2024-12-08_12h04.11.785,EPIDM,2023.1.2,None,
1220.jpg,2692.jpg,1 Point,4 Points,,,,,,,,,,,,,,,,,0,82,82,82,,,,,,,,,,,j,5.348680875002174,,,36,2024-12-08_12h04.11.785,EPIDM,2023.1.2,None,
5720.jpg,1616.jpg,3 Points,2 Points,,,,,,,,,,,,,,,,,0,83,83,83,,,,,,,,,,,k,4.751978499989491,,,36,2024-12-08_12h04.11.785,EPIDM,2023.1.2,None,
6560.jpg,9432.jpg,2 Points,5 Points,,,,,,,,,,,,,,,,,0,84,84,84,,,,,,,,,,,j,6.5521739999821875,,,36,2024-12-08_12h04.11.785,EPIDM,2023.1.2,None,
1310.jpg,9913.jpg,4 Points,1 Points,,,,,,,,,,,,,,,,,0,85,85,85,,,,,,,,,,,s,4.992220916989027,space,34.301860125007806,36,2024-12-08_12h04.11.785,EPIDM,2023.1.2,None,
5471.jpg,2240.jpg,2 Points,5 Points,,,,,,,,,,,,,,,,,0,86,86,86,,,,,,,,,,,l,3.252166791993659,,,36,2024-12-08_12h04.11.785,EPIDM,2023.1.2,None,
2683.jpg,7361.jpg,3 Points,2 Points,,,,,,,,,,,,,,,,,0,87,87,87,,,,,,,,,,,d,5.352006417000666,,,36,2024-12-08_12h04.11.785,EPIDM,2023.1.2,None,
4531.jpg,5534.jpg,5 Points,3 Points,,,,,,,,,,,,,,,,,0,88,88,88,,,,,,,,,,,j,5.02568716701353,,,36,2024-12-08_12h04.11.785,EPIDM,2023.1.2,None,
7220.jpg,5831.jpg,2 Points,3 Points,,,,,,,,,,,,,,,,,0,89,89,89,,,,,,,,,,,k,4.540276001003804,,,36,2024-12-08_12h04.11.785,EPIDM,2023.1.2,None,
9007.jpg,1101.jpg,0 Points,3 Points,,,,,,,,,,,,,,,,,0,90,90,90,,,,,,,,,,,l,3.112201958982041,,,36,2024-12-08_12h04.11.785,EPIDM,2023.1.2,None,
7034.jpg,9140.jpg,2 Points,3 Points,,,,,,,,,,,,,,,,,0,91,91,91,,,,,,,,,,,d,4.660466000990709,,,36,2024-12-08_12h04.11.785,EPIDM,2023.1.2,None,
3500.jpg,3230.jpg,4 Points,2 Points,,,,,,,,,,,,,,,,,0,92,92,92,,,,,,,,,,,a,3.5959338750108145,,,36,2024-12-08_12h04.11.785,EPIDM,2023.1.2,None,
1525.jpg,7211.jpg,2 Points,3 Points,,,,,,,,,,,,,,,,,0,93,93,93,,,,,,,,,,,s,3.5546303339942824,,,36,2024-12-08_12h04.11.785,EPIDM,2023.1.2,None,
8350.jpg,5300.jpg,5 Points,1 Point,,,,,,,,,,,,,,,,,0,94,94,94,,,,,,,,,,,k,3.2738269589899573,,,36,2024-12-08_12h04.11.785,EPIDM,2023.1.2,None,
2500.jpg,8010.jpg,5 Points,0 Points,,,,,,,,,,,,,,,,,0,95,95,95,,,,,,,,,,,s,4.659490084013669,,,36,2024-12-08_12h04.11.785,EPIDM,2023.1.2,None,
F174.jpg,6830.jpg,5 Points,4 Points,,,,,,,,,,,,,,,,,0,96,96,96,,,,,,,,,,,j,4.825887499988312,,,36,2024-12-08_12h04.11.785,EPIDM,2023.1.2,None,
5390.jpg,5700.jpg,0 Points,5 Points,,,,,,,,,,,,,,,,,0,97,97,97,,,,,,,,,,,k,5.407913542003371,,,36,2024-12-08_12h04.11.785,EPIDM,2023.1.2,None,
5500.jpg,5520.jpg,3 Points,2 Points,,,,,,,,,,,,,,,,,0,98,98,98,,,,,,,,,,,k,5.770378834014991,,,36,2024-12-08_12h04.11.785,EPIDM,2023.1.2,None,
7545.jpg,2389.jpg,5 Points,0 Points,,,,,,,,,,,,,,,,,0,99,99,99,,,,,,,,,,,a,4.507202875975054,,,36,2024-12-08_12h04.11.785,EPIDM,2023.1.2,None,
2220.jpg,2210.jpg,5 Points,0 Points,,,,,,,,,,,,,,,,,0,100,100,100,,,,,,,,,,,l,2.245786750019761,,,36,2024-12-08_12h04.11.785,EPIDM,2023.1.2,None,
9452.jpg,9700.jpg,4 Points,1 Points,,,,,,,,,,,,,,,,,0,101,101,101,,,,,,,,,,,k,2.1780914169794414,space,24.610863751004217,36,2024-12-08_12h04.11.785,EPIDM,2023.1.2,None,
9421.jpg,A025.jpg,2 Points,0 Points,,,,,,,,,,,,,,,,,0,102,102,102,,,,,,,,,,,a,2.9135911259800196,,,36,2024-12-08_12h04.11.785,EPIDM,2023.1.2,None,
7182.jpg,7620.jpg,4 Points,1 Point,,,,,,,,,,,,,,,,,0,103,103,103,,,,,,,,,,,a,1.1928311669907998,,,36,2024-12-08_12h04.11.785,EPIDM,2023.1.2,None,
4608.jpg,2514.jpg,1 Point,5 Points,,,,,,,,,,,,,,,,,0,104,104,104,,,,,,,,,,,j,5.97414658399066,,,36,2024-12-08_12h04.11.785,EPIDM,2023.1.2,None,
2594.jpg,5470.jpg,0 Points,5 Points,,,,,,,,,,,,,,,,,0,105,105,105,,,,,,,,,,,j,3.3923779169854242,,,36,2024-12-08_12h04.11.785,EPIDM,2023.1.2,None,
6242.jpg,3530.jpg,4 Points,1 Point,,,,,,,,,,,,,,,,,0,106,106,106,,,,,,,,,,,a,5.273906374990474,,,36,2024-12-08_12h04.11.785,EPIDM,2023.1.2,None,
5731.jpg,2480.jpg,4 Points,1 Point,,,,,,,,,,,,,,,,,0,107,107,107,,,,,,,,,,,s,4.084213708003517,,,36,2024-12-08_12h04.11.785,EPIDM,2023.1.2,None,
1650.jpg,7237.jpg,1 Points,4 Points,,,,,,,,,,,,,,,,,0,108,108,108,,,,,,,,,,,l,1.3947480010101572,,,36,2024-12-08_12h04.11.785,EPIDM,2023.1.2,None,
4275.jpg,5920.jpg,3 Points,2 Points,,,,,,,,,,,,,,,,,0,109,109,109,,,,,,,,,,,k,2.9641745010158047,,,36,2024-12-08_12h04.11.785,EPIDM,2023.1.2,None,
2410.jpg,4689.jpg,4 Points,5 Points,,,,,,,,,,,,,,,,,0,110,110,110,,,,,,,,,,,s,2.419476416980615,,,36,2024-12-08_12h04.11.785,EPIDM,2023.1.2,None,
7040.jpg,P077.jpg,4 Points,1 Point,,,,,,,,,,,,,,,,,0,111,111,111,,,,,,,,,,,l,1.9188765420112759,,,36,2024-12-08_12h04.11.785,EPIDM,2023.1.2,None,
A074.jpg,3120.jpg,2 Points,5 Points,,,,,,,,,,,,,,,,,0,112,112,112,,,,,,,,,,,j,4.218563374975929,,,36,2024-12-08_12h04.11.785,EPIDM,2023.1.2,None,
3060.jpg,7217.jpg,1 Point,4 Points,,,,,,,,,,,,,,,,,0,113,113,113,,,,,,,,,,,s,4.213206332991831,,,36,2024-12-08_12h04.11.785,EPIDM,2023.1.2,None,
3168.jpg,9420.jpg,4 Points,2 Points,,,,,,,,,,,,,,,,,0,114,114,114,,,,,,,,,,,j,3.615675375011051,,,36,2024-12-08_12h04.11.785,EPIDM,2023.1.2,None,
7207.jpg,2791.jpg,1 Points,4 Points,,,,,,,,,,,,,,,,,0,115,115,115,,,,,,,,,,,a,3.6559779579984024,,,36,2024-12-08_12h04.11.785,EPIDM,2023.1.2,None,
1640.jpg,1720.jpg,3 Points,4 Points,,,,,,,,,,,,,,,,,0,116,116,116,,,,,,,,,,,s,3.6215947919990867,,,36,2024-12-08_12h04.11.785,EPIDM,2023.1.2,None,
1050.jpg,7030.jpg,4 Points,1 Points,,,,,,,,,,,,,,,,,0,117,117,117,,,,,,,,,,,a,1.497119167004712,space,33.27326275000814,36,2024-12-08_12h04.11.785,EPIDM,2023.1.2,None,
2020.jpg,1811.jpg,5 Points,1 Point,,,,,,,,,,,,,,,,,0,118,118,118,,,,,,,,,,,j,5.752395666990196,,,36,2024-12-08_12h04.11.785,EPIDM,2023.1.2,None,
7020.jpg,2206.jpg,5 Points,0 Points,,,,,,,,,,,,,,,,,0,119,119,119,,,,,,,,,,,s,2.3911748340178747,,,36,2024-12-08_12h04.11.785,EPIDM,2023.1.2,None,
9042.jpg,1090.jpg,0 Points,5 Points,,,,,,,,,,,,,,,,,0,120,120,120,,,,,,,,,,,l,2.067485500010662,,,36,2024-12-08_12h04.11.785,EPIDM,2023.1.2,None,
6210.jpg,7080.jpg,1 Point,4 Points,,,,,,,,,,,,,,,,,0,121,121,121,,,,,,,,,,,s,3.369497000996489,,,36,2024-12-08_12h04.11.785,EPIDM,2023.1.2,None,
2110.jpg,8260.jpg,5 Points,3 Points,,,,,,,,,,,,,,,,,0,122,122,122,,,,,,,,,,,a,1.4116011669975705,,,36,2024-12-08_12h04.11.785,EPIDM,2023.1.2,None,
5740.jpg,2100.jpg,0 Points,5 Points,,,,,,,,,,,,,,,,,0,123,123,123,,,,,,,,,,,l,1.2171313750150148,,,36,2024-12-08_12h04.11.785,EPIDM,2023.1.2,None,
1660.jpg,8040.jpg,2 Points,1 Point,,,,,,,,,,,,,,,,,0,124,124,124,,,,,,,,,,,s,2.5604567079863045,,,36,2024-12-08_12h04.11.785,EPIDM,2023.1.2,None,
5410.jpg,5530.jpg,5 Points,0 Points,,,,,,,,,,,,,,,,,0,125,125,125,,,,,,,,,,,j,3.032431917003123,,,36,2024-12-08_12h04.11.785,EPIDM,2023.1.2,None,
2276.jpg,1930.jpg,3 Points,1 Point,,,,,,,,,,,,,,,,,0,126,126,126,,,,,,,,,,,s,2.2763014170050155,,,36,2024-12-08_12h04.11.785,EPIDM,2023.1.2,None,
5628.jpg,5201.jpg,5 Points,0 Points,,,,,,,,,,,,,,,,,0,127,127,127,,,,,,,,,,,s,3.2794898750144057,,,36,2024-12-08_12h04.11.785,EPIDM,2023.1.2,None,
4250.jpg,2499.jpg,5 Points,3 Points,,,,,,,,,,,,,,,,,0,128,128,128,,,,,,,,,,,k,2.4250675829825923,,,36,2024-12-08_12h04.11.785,EPIDM,2023.1.2,None,
2512.jpg,7050.jpg,1 Point,4 Points,,,,,,,,,,,,,,,,,0,129,129,129,,,,,,,,,,,a,2.465942917013308,,,36,2024-12-08_12h04.11.785,EPIDM,2023.1.2,None,
4621.jpg,9270.jpg,2 Points,0 Points,,,,,,,,,,,,,,,,,0,130,130,130,,,,,,,,,,,k,3.106865708978148,,,36,2024-12-08_12h04.11.785,EPIDM,2023.1.2,None,
5910.jpg,5460.jpg,5 Points,0 Points,,,,,,,,,,,,,,,,,0,131,131,131,,,,,,,,,,,d,7.671225333004259,,,36,2024-12-08_12h04.11.785,EPIDM,2023.1.2,None,
9592.jpg,6200.jpg,2 Points,5 Points,,,,,,,,,,,,,,,,,0,132,132,132,,,,,,,,,,,s,2.1739346669928636,,,36,2024-12-08_12h04.11.785,EPIDM,2023.1.2,None,
7285.jpg,5875.jpg,5 Points,0 Points,,,,,,,,,,,,,,,,,0,133,133,133,,,,,,,,,,,s,4.060706667019986,space,23.56993829199928,36,2024-12-08_12h04.11.785,EPIDM,2023.1.2,None,
2270.jpg,1303.jpg,2 Points,0 Points,,,,,,,,,,,,,,,,,0,134,134,134,,,,,,,,,,,a,1.171964332985226,,,36,2024-12-08_12h04.11.785,EPIDM,2023.1.2,None,
9600.jpg,7640.jpg,5 Points,0 Points,,,,,,,,,,,,,,,,,0,135,135,135,,,,,,,,,,,s,4.487752958986675,,,36,2024-12-08_12h04.11.785,EPIDM,2023.1.2,None,
5130.jpg,7238.jpg,3 Points,4 Points,,,,,,,,,,,,,,,,,0,136,136,136,,,,,,,,,,,l,0.9472521260031499,,,36,2024-12-08_12h04.11.785,EPIDM,2023.1.2,None,
9180.jpg,9630.jpg,3 Points,2 Points,,,,,,,,,,,,,,,,,0,137,137,137,,,,,,,,,,,s,7.936909916985314,,,36,2024-12-08_12h04.11.785,EPIDM,2023.1.2,None,
3071.jpg,1302.jpg,1 Point,3 Points,,,,,,,,,,,,,,,,,0,138,138,138,,,,,,,,,,,l,1.5025885420036502,,,36,2024-12-08_12h04.11.785,EPIDM,2023.1.2,None,
7000.jpg,1661.jpg,2 Points,3 Points,,,,,,,,,,,,,,,,,0,139,139,139,,,,,,,,,,,d,5.2944725419802126,,,36,2024-12-08_12h04.11.785,EPIDM,2023.1.2,None,
1110.jpg,3150.jpg,2 Points,1 Point,,,,,,,,,,,,,,,,,0,140,140,140,,,,,,,,,,,a,1.5572656669828575,,,36,2024-12-08_12h04.11.785,EPIDM,2023.1.2,None,
9470.jpg,9810.jpg,3 Points,2 Points,,,,,,,,,,,,,,,,,0,141,141,141,,,,,,,,,,,k,3.394299000996398,,,36,2024-12-08_12h04.11.785,EPIDM,2023.1.2,None,
8033.jpg,7289.jpg,3 Points,0 Points,,,,,,,,,,,,,,,,,0,142,142,142,,,,,,,,,,,k,5.181015417008894,,,36,2024-12-08_12h04.11.785,EPIDM,2023.1.2,None,
7502.jpg,9181.jpg,5 Points,0 Points,,,,,,,,,,,,,,,,,0,143,143,143,,,,,,,,,,,l,3.658148042013636,,,36,2024-12-08_12h04.11.785,EPIDM,2023.1.2,None,
7175.jpg,7284.jpg,2 Points,4 Points,,,,,,,,,,,,,,,,,0,144,144,144,,,,,,,,,,,s,4.594553834001999,,,36,2024-12-08_12h04.11.785,EPIDM,2023.1.2,None,
9390.jpg,9424.jpg,1 Point,4 Points,,,,,,,,,,,,,,,,,0,145,145,145,,,,,,,,,,,k,4.742739708017325,,,36,2024-12-08_12h04.11.785,EPIDM,2023.1.2,None,
8230.jpg,2710.jpg,5 Points,1 Point,,,,,,,,,,,,,,,,,0,146,146,146,,,,,,,,,,,j,4.137929791992065,,,36,2024-12-08_12h04.11.785,EPIDM,2023.1.2,None,
7235.jpg,7186.jpg,3 Points,2 Points,,,,,,,,,,,,,,,,,0,147,147,147,,,,,,,,,,,s,3.5816062499943655,,,36,2024-12-08_12h04.11.785,EPIDM,2023.1.2,None,
2440.jpg,7187.jpg,4 Points,1 Point,,,,,,,,,,,,,,,,,0,148,148,148,,,,,,,,,,,s,3.8963554590009153,,,36,2024-12-08_12h04.11.785,EPIDM,2023.1.2,None,
9001.jpg,1230.jpg,1 Point,4 Points,,,,,,,,,,,,,,,,,0,149,149,149,,,,,,,,,,,k,3.100912125024479,space,8.548911541991401,36,2024-12-08_12h04.11.785,EPIDM,2023.1.2,None,
9410.jpg,1280.jpg,0 Points,2 Points,,,,,,,,,,,,,,,,,0,150,150,150,,,,,,,,,,,d,7.552156542020384,,,36,2024-12-08_12h04.11.785,EPIDM,2023.1.2,None,
2716.jpg,A053.jpg,2 Points,3 Points,,,,,,,,,,,,,,,,,0,151,151,151,,,,,,,,,,,k,2.592497708974406,,,36,2024-12-08_12h04.11.785,EPIDM,2023.1.2,None,
1301.jpg,3220.jpg,2 Points,5 Points,,,,,,,,,,,,,,,,,0,152,152,152,,,,,,,,,,,s,1.6253581670171116,,,36,2024-12-08_12h04.11.785,EPIDM,2023.1.2,None,
2205.jpg,7550.jpg,4 Points,1 Points,,,,,,,,,,,,,,,,,0,153,153,153,,,,,,,,,,,d,5.640641334000975,,,36,2024-12-08_12h04.11.785,EPIDM,2023.1.2,None,
2720.jpg,F203.jpg,4 Points,0 Points,,,,,,,,,,,,,,,,,0,154,154,154,,,,,,,,,,,k,4.058180749998428,,,36,2024-12-08_12h04.11.785,EPIDM,2023.1.2,None,
5991.jpg,5594.jpg,0 Points,5 Points,,,,,,,,,,,,,,,,,0,155,155,155,,,,,,,,,,,k,2.502100875019096,,,36,2024-12-08_12h04.11.785,EPIDM,2023.1.2,None,
9430.jpg,9520.jpg,5 Points,3 Points,,,,,,,,,,,,,,,,,0,156,156,156,,,,,,,,,,,j,5.074347625020891,,,36,2024-12-08_12h04.11.785,EPIDM,2023.1.2,None,
6900.jpg,7095.jpg,4 Points,1 Points,,,,,,,,,,,,,,,,,0,157,157,157,,,,,,,,,,,d,3.9012792500143405,,,36,2024-12-08_12h04.11.785,EPIDM,2023.1.2,None,
2516.jpg,7820.jpg,4 Points,0 Points,,,,,,,,,,,,,,,,,0,158,158,158,,,,,,,,,,,d,3.9436806669982616,,,36,2024-12-08_12h04.11.785,EPIDM,2023.1.2,None,
7004.jpg,1019.jpg,5 Points,0 Points,,,,,,,,,,,,,,,,,0,159,159,159,,,,,,,,,,,s,2.38345995900454,,,36,2024-12-08_12h04.11.785,EPIDM,2023.1.2,None,
