L_Scene,R_Scene,L_Pts,R_Pts,Instructions_Loop.thisRepN,Instructions_Loop.thisTrialN,Instructions_Loop.thisN,Instructions_Loop.thisIndex,Redo_Instructions_Loop.thisRepN,Redo_Instructions_Loop.thisTrialN,Redo_Instructions_Loop.thisN,Redo_Instructions_Loop.thisIndex,Practice_Recognition_Loop.thisRepN,Practice_Recognition_Loop.thisTrialN,Practice_Recognition_Loop.thisN,Practice_Recognition_Loop.thisIndex,Practice_FB_Loop.thisRepN,Practice_FB_Loop.thisTrialN,Practice_FB_Loop.thisN,Practice_FB_Loop.thisIndex,RecStim_Loop.thisRepN,RecStim_Loop.thisTrialN,RecStim_Loop.thisN,RecStim_Loop.thisIndex,FB_Loop.thisRepN,FB_Loop.thisTrialN,FB_Loop.thisN,FB_Loop.thisIndex,RecBrk_Loop.thisRepN,RecBrk_Loop.thisTrialN,RecBrk_Loop.thisN,RecBrk_Loop.thisIndex,Transition_Enc.keys,Transition_Enc.rt,Encoding_Resp.keys,Encoding_Resp.rt,EncBrk_Resp.keys,EncBrk_Resp.rt,participant,date,expName,psychopyVersion,frameRate,
,,,,,,,,,,,,,,,,,,,,,,,,,,,,,,,,space,19.297622665966628,,,,,37,2024-12-08_12h58.54.383,EPIDM,2023.1.2,None,
F078.jpg,L130.jpg,,,,,,,,,,,0,0,0,0,,,,,,,,,,,,,,,,,,,l,9.146161498967558,,,37,2024-12-08_12h58.54.383,EPIDM,2023.1.2,None,
P036.jpg,P217.jpg,,,,,,,,,,,0,1,1,1,,,,,,,,,,,,,,,,,,,s,8.415859415952582,,,37,2024-12-08_12h58.54.383,EPIDM,2023.1.2,None,
O161.jpg,F218.jpg,,,,,,,,,,,0,2,2,2,,,,,,,,,,,,,,,,,,,k,20.545669707964407,,,37,2024-12-08_12h58.54.383,EPIDM,2023.1.2,None,
F279.jpg,A001.jpg,,,,,,,,,,,0,3,3,3,,,,,,,,,,,,,,,,,,,d,15.235018749983283,,,37,2024-12-08_12h58.54.383,EPIDM,2023.1.2,None,
F273.jpg,A060.jpg,,,,,,,,,,,0,4,4,4,,,,,,,,,,,,,,,,,,,s,8.658980040985625,,,37,2024-12-08_12h58.54.383,EPIDM,2023.1.2,None,
2393.jpg,L055.jpg,,,,,,,,,,,0,5,5,5,,,,,,,,,,,,,,,,,,,d,14.582774290989619,,,37,2024-12-08_12h58.54.383,EPIDM,2023.1.2,None,
1812.jpg,2593.jpg,,,,,,,,,,,0,6,6,6,,,,,,,,,,,,,,,,,,,l,5.483703290956328,,,37,2024-12-08_12h58.54.383,EPIDM,2023.1.2,None,
O013.jpg,A067.jpg,,,,,,,,,,,0,7,7,7,,,,,,,,,,,,,,,,,,,s,9.936638332990697,,,37,2024-12-08_12h58.54.383,EPIDM,2023.1.2,None,
P033.jpg,P034.jpg,,,,,,,,,,,0,8,8,8,,,,,,,,,,,,,,,,,,,k,5.367061582976021,,,37,2024-12-08_12h58.54.383,EPIDM,2023.1.2,None,
A104.jpg,8186.jpg,,,,,,,,,,,0,9,9,9,,,,,,,,,,,,,,,,,,,d,9.733899915969232,,,37,2024-12-08_12h58.54.383,EPIDM,2023.1.2,None,
,,,,,,,,,,,,,,,,,,,,,,,,,,,,,,,,space,19.299438457994256,,,,,37,2024-12-08_12h58.54.383,EPIDM,2023.1.2,None,
2271.jpg,9405.jpg,2 Points,3 Points,,,,,,,,,,,,,,,,,0,0,0,0,,,,,,,,,,,k,9.593488249956863,,,37,2024-12-08_12h58.54.383,EPIDM,2023.1.2,None,
1019.jpg,7004.jpg,0 Points,5 Points,,,,,,,,,,,,,,,,,0,1,1,1,,,,,,,,,,,j,6.526098541973624,,,37,2024-12-08_12h58.54.383,EPIDM,2023.1.2,None,
9500.jpg,6834.jpg,1 Point,5 Points,,,,,,,,,,,,,,,,,0,2,2,2,,,,,,,,,,,k,19.661462665972067,,,37,2024-12-08_12h58.54.383,EPIDM,2023.1.2,None,
7095.jpg,6900.jpg,1 Points,4 Points,,,,,,,,,,,,,,,,,0,3,3,3,,,,,,,,,,,j,16.03748966596322,,,37,2024-12-08_12h58.54.383,EPIDM,2023.1.2,None,
5220.jpg,7570.jpg,0 Points,5 Points,,,,,,,,,,,,,,,,,0,4,4,4,,,,,,,,,,,j,22.504291207995266,,,37,2024-12-08_12h58.54.383,EPIDM,2023.1.2,None,
5750.jpg,5991.jpg,5 Points,0 Points,,,,,,,,,,,,,,,,,0,5,5,5,,,,,,,,,,,j,9.419472666981164,space,51.361874207970686,37,2024-12-08_12h58.54.383,EPIDM,2023.1.2,None,
9912.jpg,2750.jpg,5 Points,4 Points,,,,,,,,,,,,,,,,,0,6,6,6,,,,,,,,,,,l,11.021129499975359,,,37,2024-12-08_12h58.54.383,EPIDM,2023.1.2,None,
7550.jpg,3053.jpg,1 Points,4 Points,,,,,,,,,,,,,,,,,0,7,7,7,,,,,,,,,,,k,3.3321169579867274,,,37,2024-12-08_12h58.54.383,EPIDM,2023.1.2,None,
9250.jpg,3080.jpg,0 Points,1 Points,,,,,,,,,,,,,,,,,0,8,8,8,,,,,,,,,,,k,9.26660024895682,,,37,2024-12-08_12h58.54.383,EPIDM,2023.1.2,None,
A053.jpg,2716.jpg,3 Points,2 Points,,,,,,,,,,,,,,,,,0,9,9,9,,,,,,,,,,,l,6.85133491596207,,,37,2024-12-08_12h58.54.383,EPIDM,2023.1.2,None,
2518.jpg,1313.jpg,1 Point,4 Points,,,,,,,,,,,,,,,,,0,10,10,10,,,,,,,,,,,l,4.070380166958785,,,37,2024-12-08_12h58.54.383,EPIDM,2023.1.2,None,
1230.jpg,9001.jpg,4 Points,1 Point,,,,,,,,,,,,,,,,,0,11,11,11,,,,,,,,,,,j,6.563694749987917,,,37,2024-12-08_12h58.54.383,EPIDM,2023.1.2,None,
6836.jpg,5940.jpg,4 Points,0 Points,,,,,,,,,,,,,,,,,0,12,12,12,,,,,,,,,,,s,5.4951924159540795,,,37,2024-12-08_12h58.54.383,EPIDM,2023.1.2,None,
9182.jpg,7235.jpg,2 Points,3 Points,,,,,,,,,,,,,,,,,0,13,13,13,,,,,,,,,,,j,7.215755457960768,,,37,2024-12-08_12h58.54.383,EPIDM,2023.1.2,None,
1540.jpg,1560.jpg,1 Point,0 Points,,,,,,,,,,,,,,,,,0,14,14,14,,,,,,,,,,,j,11.009416832996067,,,37,2024-12-08_12h58.54.383,EPIDM,2023.1.2,None,
9424.jpg,9280.jpg,4 Points,1 Point,,,,,,,,,,,,,,,,,0,15,15,15,,,,,,,,,,,a,11.25517174997367,,,37,2024-12-08_12h58.54.383,EPIDM,2023.1.2,None,
1670.jpg,4274.jpg,3 Points,2 Points,,,,,,,,,,,,,,,,,0,16,16,16,,,,,,,,,,,a,5.949430457956623,,,37,2024-12-08_12h58.54.383,EPIDM,2023.1.2,None,
9181.jpg,7502.jpg,0 Points,5 Points,,,,,,,,,,,,,,,,,0,17,17,17,,,,,,,,,,,k,5.064977623987943,,,37,2024-12-08_12h58.54.383,EPIDM,2023.1.2,None,
6910.jpg,1200.jpg,0 Points,4 Points,,,,,,,,,,,,,,,,,0,18,18,18,,,,,,,,,,,j,7.413292957964586,,,37,2024-12-08_12h58.54.383,EPIDM,2023.1.2,None,
9810.jpg,9400.jpg,2 Points,3 Points,,,,,,,,,,,,,,,,,0,19,19,19,,,,,,,,,,,k,12.422182290960336,,,37,2024-12-08_12h58.54.383,EPIDM,2023.1.2,None,
9910.jpg,9561.jpg,2 Points,3 Points,,,,,,,,,,,,,,,,,0,20,20,20,,,,,,,,,,,a,8.5858620829531,,,37,2024-12-08_12h58.54.383,EPIDM,2023.1.2,None,
1321.jpg,7000.jpg,3 Points,2 Points,,,,,,,,,,,,,,,,,0,21,21,21,,,,,,,,,,,d,5.20301174998167,space,1.413905082968995,37,2024-12-08_12h58.54.383,EPIDM,2023.1.2,None,
1740.jpg,2385.jpg,0 Points,3 Points,,,,,,,,,,,,,,,,,0,22,22,22,,,,,,,,,,,k,9.043094832944917,,,37,2024-12-08_12h58.54.383,EPIDM,2023.1.2,None,
9630.jpg,9180.jpg,2 Points,3 Points,,,,,,,,,,,,,,,,,0,23,23,23,,,,,,,,,,,d,7.539557915966725,,,37,2024-12-08_12h58.54.383,EPIDM,2023.1.2,None,
9490.jpg,9254.jpg,1 Point,2 Points,,,,,,,,,,,,,,,,,0,24,24,24,,,,,,,,,,,l,6.465976915962528,,,37,2024-12-08_12h58.54.383,EPIDM,2023.1.2,None,
7640.jpg,9600.jpg,0 Points,5 Points,,,,,,,,,,,,,,,,,0,25,25,25,,,,,,,,,,,l,3.8177427079644985,,,37,2024-12-08_12h58.54.383,EPIDM,2023.1.2,None,
2352.2.jpg,6530.jpg,0 Points,1 Point,,,,,,,,,,,,,,,,,0,26,26,26,,,,,,,,,,,s,21.317873707972467,,,37,2024-12-08_12h58.54.383,EPIDM,2023.1.2,None,
5875.jpg,7285.jpg,0 Points,5 Points,,,,,,,,,,,,,,,,,0,27,27,27,,,,,,,,,,,d,12.651687498990213,,,37,2024-12-08_12h58.54.383,EPIDM,2023.1.2,None,
8400.jpg,2590.jpg,1 Point,4 Points,,,,,,,,,,,,,,,,,0,28,28,28,,,,,,,,,,,k,6.714820665976731,,,37,2024-12-08_12h58.54.383,EPIDM,2023.1.2,None,
5800.jpg,5910.jpg,0 Points,5 Points,,,,,,,,,,,,,,,,,0,29,29,29,,,,,,,,,,,k,4.130471541953739,,,37,2024-12-08_12h58.54.383,EPIDM,2023.1.2,None,
4609.jpg,1900.jpg,2 Points,4 Points,,,,,,,,,,,,,,,,,0,30,30,30,,,,,,,,,,,l,3.125780665955972,,,37,2024-12-08_12h58.54.383,EPIDM,2023.1.2,None,
7050.jpg,2512.jpg,4 Points,1 Point,,,,,,,,,,,,,,,,,0,31,31,31,,,,,,,,,,,j,5.141310999955749,,,37,2024-12-08_12h58.54.383,EPIDM,2023.1.2,None,
3300.jpg,3110.jpg,0 Points,4 Points,,,,,,,,,,,,,,,,,0,32,32,32,,,,,,,,,,,k,14.303317207988584,,,37,2024-12-08_12h58.54.383,EPIDM,2023.1.2,None,
5660.jpg,5628.jpg,0 Points,5 Points,,,,,,,,,,,,,,,,,0,33,33,33,,,,,,,,,,,k,6.544740457989974,,,37,2024-12-08_12h58.54.383,EPIDM,2023.1.2,None,
2752.jpg,3266.jpg,2 Points,1 Point,,,,,,,,,,,,,,,,,0,34,34,34,,,,,,,,,,,s,15.346082790987566,,,37,2024-12-08_12h58.54.383,EPIDM,2023.1.2,None,
5530.jpg,1450.jpg,0 Points,5 Points,,,,,,,,,,,,,,,,,0,35,35,35,,,,,,,,,,,d,8.234246832958888,,,37,2024-12-08_12h58.54.383,EPIDM,2023.1.2,None,
8232.jpg,2030.jpg,5 Points,0 Points,,,,,,,,,,,,,,,,,0,36,36,36,,,,,,,,,,,a,7.3909386249724776,,,37,2024-12-08_12h58.54.383,EPIDM,2023.1.2,None,
2100.jpg,5740.jpg,5 Points,0 Points,,,,,,,,,,,,,,,,,0,37,37,37,,,,,,,,,,,d,11.307358290971024,space,5.4658450829738285,37,2024-12-08_12h58.54.383,EPIDM,2023.1.2,None,
9571.jpg,2800.jpg,2 Points,4 Points,,,,,,,,,,,,,,,,,0,38,38,38,,,,,,,,,,,j,11.80085512396181,,,37,2024-12-08_12h58.54.383,EPIDM,2023.1.2,None,
7080.jpg,6210.jpg,4 Points,1 Point,,,,,,,,,,,,,,,,,0,39,39,39,,,,,,,,,,,j,10.814703082985943,,,37,2024-12-08_12h58.54.383,EPIDM,2023.1.2,None,
9265.jpg,P211.jpg,0 Points,4 Points,,,,,,,,,,,,,,,,,0,40,40,40,,,,,,,,,,,k,23.51394983296632,,,37,2024-12-08_12h58.54.383,EPIDM,2023.1.2,None,
2206.jpg,7020.jpg,0 Points,5 Points,,,,,,,,,,,,,,,,,0,41,41,41,,,,,,,,,,,d,7.2753616659611,,,37,2024-12-08_12h58.54.383,EPIDM,2023.1.2,None,
2280.jpg,2170.jpg,4 Points,2 Points,,,,,,,,,,,,,,,,,0,42,42,42,,,,,,,,,,,d,20.729047582979547,,,37,2024-12-08_12h58.54.383,EPIDM,2023.1.2,None,
7030.jpg,1050.jpg,1 Points,4 Points,,,,,,,,,,,,,,,,,0,43,43,43,,,,,,,,,,,s,6.039471624972066,,,37,2024-12-08_12h58.54.383,EPIDM,2023.1.2,None,
2661.jpg,2520.jpg,5 Points,2 Points,,,,,,,,,,,,,,,,,0,44,44,44,,,,,,,,,,,a,3.469860416953452,,,37,2024-12-08_12h58.54.383,EPIDM,2023.1.2,None,
2320.jpg,7207.jpg,4 Points,1 Points,,,,,,,,,,,,,,,,,0,45,45,45,,,,,,,,,,,a,6.0666816249722615,,,37,2024-12-08_12h58.54.383,EPIDM,2023.1.2,None,
3030.jpg,P237.jpg,0 Points,2 Points,,,,,,,,,,,,,,,,,0,46,46,46,,,,,,,,,,,s,13.43694979097927,,,37,2024-12-08_12h58.54.383,EPIDM,2023.1.2,None,
7217.jpg,3062.jpg,2 Points,3 Points,,,,,,,,,,,,,,,,,0,47,47,47,,,,,,,,,,,l,3.932043998967856,,,37,2024-12-08_12h58.54.383,EPIDM,2023.1.2,None,
P222.jpg,3051.jpg,2 Points,1 Point,,,,,,,,,,,,,,,,,0,48,48,48,,,,,,,,,,,k,9.649868291977327,,,37,2024-12-08_12h58.54.383,EPIDM,2023.1.2,None,
A041.jpg,7040.jpg,1 Point,4 Points,,,,,,,,,,,,,,,,,0,49,49,49,,,,,,,,,,,l,2.8474560829636175,,,37,2024-12-08_12h58.54.383,EPIDM,2023.1.2,None,
8200.jpg,2722.jpg,4 Points,1 Points,,,,,,,,,,,,,,,,,0,50,50,50,,,,,,,,,,,a,3.321947582968278,,,37,2024-12-08_12h58.54.383,EPIDM,2023.1.2,None,
5920.jpg,4770.jpg,2 Points,3 Points,,,,,,,,,,,,,,,,,0,51,51,51,,,,,,,,,,,s,4.351753332972294,,,37,2024-12-08_12h58.54.383,EPIDM,2023.1.2,None,
1052.jpg,3180.jpg,3 Points,5 Points,,,,,,,,,,,,,,,,,0,52,52,52,,,,,,,,,,,k,3.2050818329735193,,,37,2024-12-08_12h58.54.383,EPIDM,2023.1.2,None,
2606.jpg,5731.jpg,1 Point,4 Points,,,,,,,,,,,,,,,,,0,53,53,53,,,,,,,,,,,k,2.2927401249471586,space,1.1980453329742886,37,2024-12-08_12h58.54.383,EPIDM,2023.1.2,None,
2487.jpg,4598.jpg,2 Points,1 Point,,,,,,,,,,,,,,,,,0,54,54,54,,,,,,,,,,,j,4.985542499984149,,,37,2024-12-08_12h58.54.383,EPIDM,2023.1.2,None,
5470.jpg,2620.jpg,5 Points,0 Points,,,,,,,,,,,,,,,,,0,55,55,55,,,,,,,,,,,s,3.8983582079818007,,,37,2024-12-08_12h58.54.383,EPIDM,2023.1.2,None,
F369.jpg,3062.jpg,2 Points,3 Points,,,,,,,,,,,,,,,,,0,56,56,56,,,,,,,,,,,j,29.23739720796584,,,37,2024-12-08_12h58.54.383,EPIDM,2023.1.2,None,
5395.jpg,7182.jpg,1 Point,4 Points,,,,,,,,,,,,,,,,,0,57,57,57,,,,,,,,,,,k,5.211973457975546,,,37,2024-12-08_12h58.54.383,EPIDM,2023.1.2,None,
5260.jpg,1602.jpg,5 Points,1 Point,,,,,,,,,,,,,,,,,0,58,58,58,,,,,,,,,,,d,8.599010040983558,,,37,2024-12-08_12h58.54.383,EPIDM,2023.1.2,None,
9700.jpg,9452.jpg,1 Points,4 Points,,,,,,,,,,,,,,,,,0,59,59,59,,,,,,,,,,,j,7.916458082967438,,,37,2024-12-08_12h58.54.383,EPIDM,2023.1.2,None,
P019.jpg,6550.jpg,3 Points,5 Points,,,,,,,,,,,,,,,,,0,60,60,60,,,,,,,,,,,s,3.7526875829789788,,,37,2024-12-08_12h58.54.383,EPIDM,2023.1.2,None,
7320.jpg,7545.jpg,0 Points,5 Points,,,,,,,,,,,,,,,,,0,61,61,61,,,,,,,,,,,l,5.48867137497291,,,37,2024-12-08_12h58.54.383,EPIDM,2023.1.2,None,
3102.jpg,9594.jpg,1 Point,4 Points,,,,,,,,,,,,,,,,,0,62,62,62,,,,,,,,,,,k,5.596847374981735,,,37,2024-12-08_12h58.54.383,EPIDM,2023.1.2,None,
5700.jpg,5390.jpg,5 Points,0 Points,,,,,,,,,,,,,,,,,0,63,63,63,,,,,,,,,,,j,8.19307833298808,,,37,2024-12-08_12h58.54.383,EPIDM,2023.1.2,None,
7580.jpg,8340.jpg,3 Points,2 Points,,,,,,,,,,,,,,,,,0,64,64,64,,,,,,,,,,,j,5.0980867489706725,,,37,2024-12-08_12h58.54.383,EPIDM,2023.1.2,None,
8010.jpg,2500.jpg,0 Points,5 Points,,,,,,,,,,,,,,,,,0,65,65,65,,,,,,,,,,,d,7.061670790950302,,,37,2024-12-08_12h58.54.383,EPIDM,2023.1.2,None,
7160.jpg,5270.jpg,0 Points,4 Points,,,,,,,,,,,,,,,,,0,66,66,66,,,,,,,,,,,l,4.151307790976716,,,37,2024-12-08_12h58.54.383,EPIDM,2023.1.2,None,
7211.jpg,1525.jpg,3 Points,2 Points,,,,,,,,,,,,,,,,,0,67,67,67,,,,,,,,,,,d,10.183636165951611,,,37,2024-12-08_12h58.54.383,EPIDM,2023.1.2,None,
6831.jpg,9611.jpg,5 Points,3 Points,,,,,,,,,,,,,,,,,0,68,68,68,,,,,,,,,,,a,3.7561046659830026,,,37,2024-12-08_12h58.54.383,EPIDM,2023.1.2,None,
9140.jpg,7034.jpg,3 Points,2 Points,,,,,,,,,,,,,,,,,0,69,69,69,,,,,,,,,,,k,7.34423183297622,space,1.0304060419730376,37,2024-12-08_12h58.54.383,EPIDM,2023.1.2,None,
1113.jpg,6020.jpg,3 Points,2 Points,,,,,,,,,,,,,,,,,0,70,70,70,,,,,,,,,,,k,9.608516874985071,,,37,2024-12-08_12h58.54.383,EPIDM,2023.1.2,None,
5831.jpg,8090.jpg,3 Points,2 Points,,,,,,,,,,,,,,,,,0,71,71,71,,,,,,,,,,,s,3.476220124954125,,,37,2024-12-08_12h58.54.383,EPIDM,2023.1.2,None,
8300.jpg,1910.jpg,3 Points,2 Points,,,,,,,,,,,,,,,,,0,72,72,72,,,,,,,,,,,j,7.141220665973378,,,37,2024-12-08_12h58.54.383,EPIDM,2023.1.2,None,
6010.jpg,2683.jpg,2 Points,3 Points,,,,,,,,,,,,,,,,,0,73,73,73,,,,,,,,,,,k,3.570158624963369,,,37,2024-12-08_12h58.54.383,EPIDM,2023.1.2,None,
2260.jpg,2681.jpg,5 Points,3 Points,,,,,,,,,,,,,,,,,0,74,74,74,,,,,,,,,,,l,2.7832059579668567,,,37,2024-12-08_12h58.54.383,EPIDM,2023.1.2,None,
9913.jpg,1310.jpg,1 Points,4 Points,,,,,,,,,,,,,,,,,0,75,75,75,,,,,,,,,,,l,1.8867275409575086,,,37,2024-12-08_12h58.54.383,EPIDM,2023.1.2,None,
3061.jpg,3015.jpg,4 Points,5 Points,,,,,,,,,,,,,,,,,0,76,76,76,,,,,,,,,,,k,3.9703822919691447,,,37,2024-12-08_12h58.54.383,EPIDM,2023.1.2,None,
1616.jpg,5720.jpg,2 Points,3 Points,,,,,,,,,,,,,,,,,0,77,77,77,,,,,,,,,,,j,5.435536832985235,,,37,2024-12-08_12h58.54.383,EPIDM,2023.1.2,None,
4100.jpg,1510.jpg,3 Points,4 Points,,,,,,,,,,,,,,,,,0,78,78,78,,,,,,,,,,,s,4.84916545797023,,,37,2024-12-08_12h58.54.383,EPIDM,2023.1.2,None,
F252.jpg,4510.jpg,0 Points,5 Points,,,,,,,,,,,,,,,,,0,79,79,79,,,,,,,,,,,j,12.805167082988191,,,37,2024-12-08_12h58.54.383,EPIDM,2023.1.2,None,
5535.jpg,8330.jpg,3 Points,0 Points,,,,,,,,,,,,,,,,,0,80,80,80,,,,,,,,,,,s,3.6633918329898734,,,37,2024-12-08_12h58.54.383,EPIDM,2023.1.2,None,
4660.jpg,7035.jpg,4 Points,1 Points,,,,,,,,,,,,,,,,,0,81,81,81,,,,,,,,,,,k,6.407838249957422,,,37,2024-12-08_12h58.54.383,EPIDM,2023.1.2,None,
1220.jpg,2692.jpg,1 Point,4 Points,,,,,,,,,,,,,,,,,0,82,82,82,,,,,,,,,,,l,2.0064347079605795,,,37,2024-12-08_12h58.54.383,EPIDM,2023.1.2,None,
7286.jpg,7350.jpg,5 Points,0 Points,,,,,,,,,,,,,,,,,0,83,83,83,,,,,,,,,,,k,18.583954749978147,,,37,2024-12-08_12h58.54.383,EPIDM,2023.1.2,None,
3170.jpg,9432.jpg,2 Points,5 Points,,,,,,,,,,,,,,,,,0,84,84,84,,,,,,,,,,,l,2.9737354169483297,,,37,2024-12-08_12h58.54.383,EPIDM,2023.1.2,None,
2597.jpg,5629.jpg,5 Points,0 Points,,,,,,,,,,,,,,,,,0,85,85,85,,,,,,,,,,,a,2.813618249958381,space,1.0443815829930827,37,2024-12-08_12h58.54.383,EPIDM,2023.1.2,None,
5471.jpg,2240.jpg,2 Points,5 Points,,,,,,,,,,,,,,,,,0,86,86,86,,,,,,,,,,,l,3.224414791970048,,,37,2024-12-08_12h58.54.383,EPIDM,2023.1.2,None,
5849.jpg,2749.jpg,2 Points,3 Points,,,,,,,,,,,,,,,,,0,87,87,87,,,,,,,,,,,k,4.602570165967336,,,37,2024-12-08_12h58.54.383,EPIDM,2023.1.2,None,
2650.jpg,5621.jpg,5 Points,3 Points,,,,,,,,,,,,,,,,,0,88,88,88,,,,,,,,,,,s,4.93683445797069,,,37,2024-12-08_12h58.54.383,EPIDM,2023.1.2,None,
2190.jpg,5900.jpg,2 Points,3 Points,,,,,,,,,,,,,,,,,0,89,89,89,,,,,,,,,,,k,3.473982707975665,,,37,2024-12-08_12h58.54.383,EPIDM,2023.1.2,None,
9007.jpg,2900.jpg,0 Points,3 Points,,,,,,,,,,,,,,,,,0,90,90,90,,,,,,,,,,,k,4.982028124970384,,,37,2024-12-08_12h58.54.383,EPIDM,2023.1.2,None,
7110.jpg,9190.jpg,5 Points,0 Points,,,,,,,,,,,,,,,,,0,91,91,91,,,,,,,,,,,j,12.293005832965719,,,37,2024-12-08_12h58.54.383,EPIDM,2023.1.2,None,
3130.jpg,6312.jpg,4 Points,2 Points,,,,,,,,,,,,,,,,,0,92,92,92,,,,,,,,,,,a,3.060766332986532,,,37,2024-12-08_12h58.54.383,EPIDM,2023.1.2,None,
5600.jpg,5593.jpg,5 Points,0 Points,,,,,,,,,,,,,,,,,0,93,93,93,,,,,,,,,,,d,8.697877665952547,,,37,2024-12-08_12h58.54.383,EPIDM,2023.1.2,None,
8350.jpg,5300.jpg,5 Points,1 Point,,,,,,,,,,,,,,,,,0,94,94,94,,,,,,,,,,,a,3.2369737079716288,,,37,2024-12-08_12h58.54.383,EPIDM,2023.1.2,None,
5820.jpg,5200.jpg,5 Points,0 Points,,,,,,,,,,,,,,,,,0,95,95,95,,,,,,,,,,,s,7.790940832986962,,,37,2024-12-08_12h58.54.383,EPIDM,2023.1.2,None,
9404.jpg,6212.jpg,5 Points,4 Points,,,,,,,,,,,,,,,,,0,96,96,96,,,,,,,,,,,l,3.754894624958979,,,37,2024-12-08_12h58.54.383,EPIDM,2023.1.2,None,
1850.jpg,7233.jpg,5 Points,0 Points,,,,,,,,,,,,,,,,,0,97,97,97,,,,,,,,,,,j,8.099367957969662,,,37,2024-12-08_12h58.54.383,EPIDM,2023.1.2,None,
5500.jpg,5120.jpg,3 Points,2 Points,,,,,,,,,,,,,,,,,0,98,98,98,,,,,,,,,,,a,5.407231165969279,,,37,2024-12-08_12h58.54.383,EPIDM,2023.1.2,None,
1274.jpg,9440.jpg,1 Points,4 Points,,,,,,,,,,,,,,,,,0,99,99,99,,,,,,,,,,,k,4.76257374996203,,,37,2024-12-08_12h58.54.383,EPIDM,2023.1.2,None,
2010.jpg,2210.jpg,5 Points,0 Points,,,,,,,,,,,,,,,,,0,100,100,100,,,,,,,,,,,a,4.65693283296423,,,37,2024-12-08_12h58.54.383,EPIDM,2023.1.2,None,
5780.jpg,5890.jpg,3 Points,2 Points,,,,,,,,,,,,,,,,,0,101,101,101,,,,,,,,,,,k,3.4206444579467643,space,1.188087332964642,37,2024-12-08_12h58.54.383,EPIDM,2023.1.2,None,
9421.jpg,A025.jpg,2 Points,0 Points,,,,,,,,,,,,,,,,,0,102,102,102,,,,,,,,,,,a,2.515131748979911,,,37,2024-12-08_12h58.54.383,EPIDM,2023.1.2,None,
1603.jpg,5000.jpg,1 Points,4 Points,,,,,,,,,,,,,,,,,0,103,103,103,,,,,,,,,,,d,12.808824374980759,,,37,2024-12-08_12h58.54.383,EPIDM,2023.1.2,None,
8320.jpg,2514.jpg,1 Point,5 Points,,,,,,,,,,,,,,,,,0,104,104,104,,,,,,,,,,,d,9.78494529199088,,,37,2024-12-08_12h58.54.383,EPIDM,2023.1.2,None,
9102.jpg,7224.jpg,3 Points,2 Points,,,,,,,,,,,,,,,,,0,105,105,105,,,,,,,,,,,d,11.688528999948176,,,37,2024-12-08_12h58.54.383,EPIDM,2023.1.2,None,
F034.jpg,3530.jpg,4 Points,1 Point,,,,,,,,,,,,,,,,,0,106,106,106,,,,,,,,,,,k,12.542788082966581,,,37,2024-12-08_12h58.54.383,EPIDM,2023.1.2,None,
7130.jpg,3350.jpg,4 Points,1 Point,,,,,,,,,,,,,,,,,0,107,107,107,,,,,,,,,,,a,5.383360457984963,,,37,2024-12-08_12h58.54.383,EPIDM,2023.1.2,None,
1650.jpg,8510.jpg,1 Points,4 Points,,,,,,,,,,,,,,,,,0,108,108,108,,,,,,,,,,,k,6.962547332979739,,,37,2024-12-08_12h58.54.383,EPIDM,2023.1.2,None,
3400.jpg,7025.jpg,2 Points,3 Points,,,,,,,,,,,,,,,,,0,109,109,109,,,,,,,,,,,s,6.358077791985124,,,37,2024-12-08_12h58.54.383,EPIDM,2023.1.2,None,
8220.jpg,4689.jpg,4 Points,5 Points,,,,,,,,,,,,,,,,,0,110,110,110,,,,,,,,,,,a,3.790596624952741,,,37,2024-12-08_12h58.54.383,EPIDM,2023.1.2,None,
7031.jpg,6930.jpg,4 Points,1 Point,,,,,,,,,,,,,,,,,0,111,111,111,,,,,,,,,,,s,4.277057998959208,,,37,2024-12-08_12h58.54.383,EPIDM,2023.1.2,None,
A074.jpg,3120.jpg,2 Points,5 Points,,,,,,,,,,,,,,,,,0,112,112,112,,,,,,,,,,,l,2.771209499973338,,,37,2024-12-08_12h58.54.383,EPIDM,2023.1.2,None,
6838.jpg,9621.jpg,5 Points,0 Points,,,,,,,,,,,,,,,,,0,113,113,113,,,,,,,,,,,a,2.141369748977013,,,37,2024-12-08_12h58.54.383,EPIDM,2023.1.2,None,
3064.jpg,9420.jpg,4 Points,2 Points,,,,,,,,,,,,,,,,,0,114,114,114,,,,,,,,,,,j,35.601423582964344,,,37,2024-12-08_12h58.54.383,EPIDM,2023.1.2,None,
9830.jpg,8480.jpg,4 Points,1 Point,,,,,,,,,,,,,,,,,0,115,115,115,,,,,,,,,,,a,2.58595124995918,,,37,2024-12-08_12h58.54.383,EPIDM,2023.1.2,None,
1640.jpg,1720.jpg,3 Points,4 Points,,,,,,,,,,,,,,,,,0,116,116,116,,,,,,,,,,,j,9.79766641597962,,,37,2024-12-08_12h58.54.383,EPIDM,2023.1.2,None,
1590.jpg,7140.jpg,5 Points,0 Points,,,,,,,,,,,,,,,,,0,117,117,117,,,,,,,,,,,d,12.148607040988281,space,1.4350420409755316,37,2024-12-08_12h58.54.383,EPIDM,2023.1.2,None,
1947.jpg,1811.jpg,5 Points,1 Point,,,,,,,,,,,,,,,,,0,118,118,118,,,,,,,,,,,s,2.8876030829851516,,,37,2024-12-08_12h58.54.383,EPIDM,2023.1.2,None,
7705.jpg,3301.jpg,5 Points,0 Points,,,,,,,,,,,,,,,,,0,119,119,119,,,,,,,,,,,j,23.23876220799866,,,37,2024-12-08_12h58.54.383,EPIDM,2023.1.2,None,
9042.jpg,P217.jpg,0 Points,5 Points,,,,,,,,,,,,,,,,,0,120,120,120,,,,,,,,,,,k,2.931605749967275,,,37,2024-12-08_12h58.54.383,EPIDM,2023.1.2,None,
5533.jpg,5626.jpg,3 Points,2 Points,,,,,,,,,,,,,,,,,0,121,121,121,,,,,,,,,,,d,5.6907307079818565,,,37,2024-12-08_12h58.54.383,EPIDM,2023.1.2,None,
7260.jpg,8280.jpg,5 Points,3 Points,,,,,,,,,,,,,,,,,0,122,122,122,,,,,,,,,,,a,2.6940387489739805,,,37,2024-12-08_12h58.54.383,EPIDM,2023.1.2,None,
5950.jpg,3068.jpg,0 Points,5 Points,,,,,,,,,,,,,,,,,0,123,123,123,,,,,,,,,,,k,15.600721915980102,,,37,2024-12-08_12h58.54.383,EPIDM,2023.1.2,None,
1660.jpg,8040.jpg,2 Points,1 Point,,,,,,,,,,,,,,,,,0,124,124,124,,,,,,,,,,,j,17.518327999976464,,,37,2024-12-08_12h58.54.383,EPIDM,2023.1.2,None,
2690.jpg,7090.jpg,1 Point,4 Points,,,,,,,,,,,,,,,,,0,125,125,125,,,,,,,,,,,k,6.5344371239771135,,,37,2024-12-08_12h58.54.383,EPIDM,2023.1.2,None,
2276.jpg,1930.jpg,3 Points,1 Point,,,,,,,,,,,,,,,,,0,126,126,126,,,,,,,,,,,d,23.407013790972997,,,37,2024-12-08_12h58.54.383,EPIDM,2023.1.2,None,
9911.jpg,9570.jpg,5 Points,0 Points,,,,,,,,,,,,,,,,,0,127,127,127,,,,,,,,,,,s,2.8268788739515003,,,37,2024-12-08_12h58.54.383,EPIDM,2023.1.2,None,
4250.jpg,2499.jpg,5 Points,3 Points,,,,,,,,,,,,,,,,,0,128,128,128,,,,,,,,,,,a,6.5219602909637615,,,37,2024-12-08_12h58.54.383,EPIDM,2023.1.2,None,
9040.jpg,7010.jpg,3 Points,2 Points,,,,,,,,,,,,,,,,,0,129,129,129,,,,,,,,,,,s,4.466302249988075,,,37,2024-12-08_12h58.54.383,EPIDM,2023.1.2,None,
3550.jpg,9270.jpg,2 Points,0 Points,,,,,,,,,,,,,,,,,0,130,130,130,,,,,,,,,,,j,15.287311499996576,,,37,2024-12-08_12h58.54.383,EPIDM,2023.1.2,None,
7281.jpg,9920.jpg,0 Points,5 Points,,,,,,,,,,,,,,,,,0,131,131,131,,,,,,,,,,,s,11.406506332976278,,,37,2024-12-08_12h58.54.383,EPIDM,2023.1.2,None,
1300.jpg,3000.jpg,2 Points,5 Points,,,,,,,,,,,,,,,,,0,132,132,132,,,,,,,,,,,k,4.1932594159734435,,,37,2024-12-08_12h58.54.383,EPIDM,2023.1.2,None,
6314.jpg,3069.jpg,2 Points,3 Points,,,,,,,,,,,,,,,,,0,133,133,133,,,,,,,,,,,k,13.300659540953347,space,1.4615847909881268,37,2024-12-08_12h58.54.383,EPIDM,2023.1.2,None,
2270.jpg,1303.jpg,2 Points,0 Points,,,,,,,,,,,,,,,,,0,134,134,134,,,,,,,,,,,s,6.0297963329649065,,,37,2024-12-08_12h58.54.383,EPIDM,2023.1.2,None,
7150.jpg,2850.jpg,2 Points,3 Points,,,,,,,,,,,,,,,,,0,135,135,135,,,,,,,,,,,k,2.715790999965975,,,37,2024-12-08_12h58.54.383,EPIDM,2023.1.2,None,
1810.jpg,2616.jpg,3 Points,4 Points,,,,,,,,,,,,,,,,,0,136,136,136,,,,,,,,,,,j,17.010600124980556,,,37,2024-12-08_12h58.54.383,EPIDM,2023.1.2,None,
9433.jpg,7183.jpg,1 Point,4 Points,,,,,,,,,,,,,,,,,0,137,137,137,,,,,,,,,,,j,10.326118665980175,,,37,2024-12-08_12h58.54.383,EPIDM,2023.1.2,None,
9560.jpg,1302.jpg,1 Point,3 Points,,,,,,,,,,,,,,,,,0,138,138,138,,,,,,,,,,,j,6.169812082982389,,,37,2024-12-08_12h58.54.383,EPIDM,2023.1.2,None,
6415.jpg,6230.jpg,2 Points,3 Points,,,,,,,,,,,,,,,,,0,139,139,139,,,,,,,,,,,d,20.44117237397586,,,37,2024-12-08_12h58.54.383,EPIDM,2023.1.2,None,
9331.jpg,3150.jpg,2 Points,1 Point,,,,,,,,,,,,,,,,,0,140,140,140,,,,,,,,,,,k,2.730471791961463,,,37,2024-12-08_12h58.54.383,EPIDM,2023.1.2,None,
1040.jpg,7096.jpg,0 Points,5 Points,,,,,,,,,,,,,,,,,0,141,141,141,,,,,,,,,,,j,5.521127332991455,,,37,2024-12-08_12h58.54.383,EPIDM,2023.1.2,None,
8033.jpg,4534.jpg,3 Points,0 Points,,,,,,,,,,,,,,,,,0,142,142,142,,,,,,,,,,,s,2.909015290962998,,,37,2024-12-08_12h58.54.383,EPIDM,2023.1.2,None,
7495.jpg,5622.jpg,1 Points,4 Points,,,,,,,,,,,,,,,,,0,143,143,143,,,,,,,,,,,k,9.904254748980748,,,37,2024-12-08_12h58.54.383,EPIDM,2023.1.2,None,
7490.jpg,8021.jpg,2 Points,4 Points,,,,,,,,,,,,,,,,,0,144,144,144,,,,,,,,,,,s,6.234692624973832,,,37,2024-12-08_12h58.54.383,EPIDM,2023.1.2,None,
9622.jpg,7006.jpg,2 Points,3 Points,,,,,,,,,,,,,,,,,0,145,145,145,,,,,,,,,,,d,9.701147874962771,,,37,2024-12-08_12h58.54.383,EPIDM,2023.1.2,None,
8230.jpg,9252.jpg,5 Points,1 Point,,,,,,,,,,,,,,,,,0,146,146,146,,,,,,,,,,,a,3.594617082970217,,,37,2024-12-08_12h58.54.383,EPIDM,2023.1.2,None,
5450.jpg,9253.jpg,5 Points,0 Points,,,,,,,,,,,,,,,,,0,147,147,147,,,,,,,,,,,j,6.646343499975046,,,37,2024-12-08_12h58.54.383,EPIDM,2023.1.2,None,
2440.jpg,7187.jpg,4 Points,1 Point,,,,,,,,,,,,,,,,,0,148,148,148,,,,,,,,,,,s,6.172850207949523,,,37,2024-12-08_12h58.54.383,EPIDM,2023.1.2,None,
2053.jpg,1932.jpg,4 Points,1 Points,,,,,,,,,,,,,,,,,0,149,149,149,,,,,,,,,,,a,2.7483964579878375,space,1.4132109999773093,37,2024-12-08_12h58.54.383,EPIDM,2023.1.2,None,
9410.jpg,9402.jpg,0 Points,2 Points,,,,,,,,,,,,,,,,,0,150,150,150,,,,,,,,,,,k,6.415782249969197,,,37,2024-12-08_12h58.54.383,EPIDM,2023.1.2,None,
7560.jpg,9530.jpg,4 Points,1 Point,,,,,,,,,,,,,,,,,0,151,151,151,,,,,,,,,,,j,7.055519999965327,,,37,2024-12-08_12h58.54.383,EPIDM,2023.1.2,None,
1070.jpg,3063.jpg,2 Points,5 Points,,,,,,,,,,,,,,,,,0,152,152,152,,,,,,,,,,,l,14.886131916980958,,,37,2024-12-08_12h58.54.383,EPIDM,2023.1.2,None,
6313.jpg,7500.jpg,3 Points,2 Points,,,,,,,,,,,,,,,,,0,153,153,153,,,,,,,,,,,d,19.69769408297725,,,37,2024-12-08_12h58.54.383,EPIDM,2023.1.2,None,
4613.jpg,1610.jpg,4 Points,0 Points,,,,,,,,,,,,,,,,,0,154,154,154,,,,,,,,,,,a,3.418113582971273,,,37,2024-12-08_12h58.54.383,EPIDM,2023.1.2,None,
2515.jpg,1942.jpg,4 Points,1 Points,,,,,,,,,,,,,,,,,0,155,155,155,,,,,,,,,,,s,4.5767098749638535,,,37,2024-12-08_12h58.54.383,EPIDM,2023.1.2,None,
3010.jpg,9520.jpg,5 Points,3 Points,,,,,,,,,,,,,,,,,0,156,156,156,,,,,,,,,,,s,9.750186915975064,,,37,2024-12-08_12h58.54.383,EPIDM,2023.1.2,None,
6370.jpg,9921.jpg,4 Points,1 Points,,,,,,,,,,,,,,,,,0,157,157,157,,,,,,,,,,,s,5.964868249982828,,,37,2024-12-08_12h58.54.383,EPIDM,2023.1.2,None,
2516.jpg,7820.jpg,4 Points,0 Points,,,,,,,,,,,,,,,,,0,158,158,158,,,,,,,,,,,j,8.833489999989979,,,37,2024-12-08_12h58.54.383,EPIDM,2023.1.2,None,
5532.jpg,2214.jpg,2 Points,3 Points,,,,,,,,,,,,,,,,,0,159,159,159,,,,,,,,,,,j,17.47747512499336,,,37,2024-12-08_12h58.54.383,EPIDM,2023.1.2,None,
