L_Scene,R_Scene,L_Pts,R_Pts,Instructions_Loop.thisRepN,Instructions_Loop.thisTrialN,Instructions_Loop.thisN,Instructions_Loop.thisIndex,Redo_Instructions_Loop.thisRepN,Redo_Instructions_Loop.thisTrialN,Redo_Instructions_Loop.thisN,Redo_Instructions_Loop.thisIndex,Practice_Recognition_Loop.thisRepN,Practice_Recognition_Loop.thisTrialN,Practice_Recognition_Loop.thisN,Practice_Recognition_Loop.thisIndex,Practice_FB_Loop.thisRepN,Practice_FB_Loop.thisTrialN,Practice_FB_Loop.thisN,Practice_FB_Loop.thisIndex,RecStim_Loop.thisRepN,RecStim_Loop.thisTrialN,RecStim_Loop.thisN,RecStim_Loop.thisIndex,FB_Loop.thisRepN,FB_Loop.thisTrialN,FB_Loop.thisN,FB_Loop.thisIndex,RecBrk_Loop.thisRepN,RecBrk_Loop.thisTrialN,RecBrk_Loop.thisN,RecBrk_Loop.thisIndex,Transition_Enc.keys,Transition_Enc.rt,Encoding_Resp.keys,Encoding_Resp.rt,EncBrk_Resp.keys,EncBrk_Resp.rt,participant,date,expName,psychopyVersion,frameRate,
,,,,,,,,,,,,,,,,,,,,,,,,,,,,,,,,space,12.000814624974737,,,,,38,2024-12-09_09h26.25.175,EPIDM,2023.1.2,None,
F078.jpg,L130.jpg,,,,,,,,,,,0,0,0,0,,,,,,,,,,,,,,,,,,,a,6.273670416994719,,,38,2024-12-09_09h26.25.175,EPIDM,2023.1.2,None,
P036.jpg,P217.jpg,,,,,,,,,,,0,1,1,1,,,,,,,,,,,,,,,,,,,k,6.073349583981326,,,38,2024-12-09_09h26.25.175,EPIDM,2023.1.2,None,
O161.jpg,F218.jpg,,,,,,,,,,,0,2,2,2,,,,,,,,,,,,,,,,,,,l,5.920952499989653,,,38,2024-12-09_09h26.25.175,EPIDM,2023.1.2,None,
F279.jpg,A001.jpg,,,,,,,,,,,0,3,3,3,,,,,,,,,,,,,,,,,,,d,11.903652499982854,,,38,2024-12-09_09h26.25.175,EPIDM,2023.1.2,None,
F273.jpg,A060.jpg,,,,,,,,,,,0,4,4,4,,,,,,,,,,,,,,,,,,,k,4.83915633300785,,,38,2024-12-09_09h26.25.175,EPIDM,2023.1.2,None,
2393.jpg,L055.jpg,,,,,,,,,,,0,5,5,5,,,,,,,,,,,,,,,,,,,d,7.762528374994872,,,38,2024-12-09_09h26.25.175,EPIDM,2023.1.2,None,
1812.jpg,2593.jpg,,,,,,,,,,,0,6,6,6,,,,,,,,,,,,,,,,,,,d,4.205069832998561,,,38,2024-12-09_09h26.25.175,EPIDM,2023.1.2,None,
O013.jpg,A067.jpg,,,,,,,,,,,0,7,7,7,,,,,,,,,,,,,,,,,,,j,5.374514583003474,,,38,2024-12-09_09h26.25.175,EPIDM,2023.1.2,None,
P033.jpg,P034.jpg,,,,,,,,,,,0,8,8,8,,,,,,,,,,,,,,,,,,,k,6.9153522919805255,,,38,2024-12-09_09h26.25.175,EPIDM,2023.1.2,None,
A104.jpg,8186.jpg,,,,,,,,,,,0,9,9,9,,,,,,,,,,,,,,,,,,,k,8.402467292005895,,,38,2024-12-09_09h26.25.175,EPIDM,2023.1.2,None,
,,,,,,,,,,,,,,,,,,,,,,,,,,,,,,,,space,10.508011249999981,,,,,38,2024-12-09_09h26.25.175,EPIDM,2023.1.2,None,
8041.jpg,6250.2.jpg,2 Points,3 Points,,,,,,,,,,,,,,,,,0,0,0,0,,,,,,,,,,,j,9.542777166992892,,,38,2024-12-09_09h26.25.175,EPIDM,2023.1.2,None,
4500.jpg,5532.jpg,3 Points,2 Points,,,,,,,,,,,,,,,,,0,1,1,1,,,,,,,,,,,s,7.213293709006393,,,38,2024-12-09_09h26.25.175,EPIDM,2023.1.2,None,
6360.jpg,6834.jpg,1 Point,5 Points,,,,,,,,,,,,,,,,,0,2,2,2,,,,,,,,,,,j,8.342104957991978,,,38,2024-12-09_09h26.25.175,EPIDM,2023.1.2,None,
9921.jpg,1270.jpg,1 Points,4 Points,,,,,,,,,,,,,,,,,0,3,3,3,,,,,,,,,,,k,9.59984141701716,,,38,2024-12-09_09h26.25.175,EPIDM,2023.1.2,None,
5220.jpg,7570.jpg,0 Points,5 Points,,,,,,,,,,,,,,,,,0,4,4,4,,,,,,,,,,,l,6.514258667011745,,,38,2024-12-09_09h26.25.175,EPIDM,2023.1.2,None,
1942.jpg,2515.jpg,1 Points,4 Points,,,,,,,,,,,,,,,,,0,5,5,5,,,,,,,,,,,a,6.440561208000872,space,15.3214742919954,38,2024-12-09_09h26.25.175,EPIDM,2023.1.2,None,
5971.jpg,2750.jpg,5 Points,4 Points,,,,,,,,,,,,,,,,,0,6,6,6,,,,,,,,,,,a,6.2197733339853585,,,38,2024-12-09_09h26.25.175,EPIDM,2023.1.2,None,
7500.jpg,2751.jpg,2 Points,3 Points,,,,,,,,,,,,,,,,,0,7,7,7,,,,,,,,,,,k,7.484509542002343,,,38,2024-12-09_09h26.25.175,EPIDM,2023.1.2,None,
9480.jpg,6840.jpg,0 Points,1 Points,,,,,,,,,,,,,,,,,0,8,8,8,,,,,,,,,,,k,6.229935709008714,,,38,2024-12-09_09h26.25.175,EPIDM,2023.1.2,None,
9530.jpg,7560.jpg,1 Point,4 Points,,,,,,,,,,,,,,,,,0,9,9,9,,,,,,,,,,,l,5.532438916998217,,,38,2024-12-09_09h26.25.175,EPIDM,2023.1.2,None,
2518.jpg,1313.jpg,1 Point,4 Points,,,,,,,,,,,,,,,,,0,10,10,10,,,,,,,,,,,k,9.94232987498981,,,38,2024-12-09_09h26.25.175,EPIDM,2023.1.2,None,
1932.jpg,2053.jpg,1 Points,4 Points,,,,,,,,,,,,,,,,,0,11,11,11,,,,,,,,,,,j,7.948988959018607,,,38,2024-12-09_09h26.25.175,EPIDM,2023.1.2,None,
6000.jpg,5940.jpg,4 Points,0 Points,,,,,,,,,,,,,,,,,0,12,12,12,,,,,,,,,,,s,5.0574412920104805,,,38,2024-12-09_09h26.25.175,EPIDM,2023.1.2,None,
9010.jpg,5450.jpg,0 Points,5 Points,,,,,,,,,,,,,,,,,0,13,13,13,,,,,,,,,,,a,5.419255916989641,,,38,2024-12-09_09h26.25.175,EPIDM,2023.1.2,None,
1540.jpg,8185.jpg,1 Point,0 Points,,,,,,,,,,,,,,,,,0,14,14,14,,,,,,,,,,,k,4.220236499997554,,,38,2024-12-09_09h26.25.175,EPIDM,2023.1.2,None,
7006.jpg,6821.jpg,3 Points,2 Points,,,,,,,,,,,,,,,,,0,15,15,15,,,,,,,,,,,l,4.27690441699815,,,38,2024-12-09_09h26.25.175,EPIDM,2023.1.2,None,
5030.jpg,4274.jpg,3 Points,2 Points,,,,,,,,,,,,,,,,,0,16,16,16,,,,,,,,,,,k,5.618474291986786,,,38,2024-12-09_09h26.25.175,EPIDM,2023.1.2,None,
5622.jpg,7495.jpg,4 Points,1 Points,,,,,,,,,,,,,,,,,0,17,17,17,,,,,,,,,,,a,11.10726937497384,,,38,2024-12-09_09h26.25.175,EPIDM,2023.1.2,None,
6910.jpg,1200.jpg,0 Points,4 Points,,,,,,,,,,,,,,,,,0,18,18,18,,,,,,,,,,,l,5.908995959005551,,,38,2024-12-09_09h26.25.175,EPIDM,2023.1.2,None,
7096.jpg,1111.jpg,5 Points,0 Points,,,,,,,,,,,,,,,,,0,19,19,19,,,,,,,,,,,l,3.506424541992601,,,38,2024-12-09_09h26.25.175,EPIDM,2023.1.2,None,
9910.jpg,9561.jpg,2 Points,3 Points,,,,,,,,,,,,,,,,,0,20,20,20,,,,,,,,,,,j,7.925414458004525,,,38,2024-12-09_09h26.25.175,EPIDM,2023.1.2,None,
1112.jpg,6415.jpg,3 Points,2 Points,,,,,,,,,,,,,,,,,0,21,21,21,,,,,,,,,,,j,7.956841084000189,space,16.742380166979274,38,2024-12-09_09h26.25.175,EPIDM,2023.1.2,None,
7480.jpg,4533.jpg,0 Points,3 Points,,,,,,,,,,,,,,,,,0,22,22,22,,,,,,,,,,,l,2.7142062920029275,,,38,2024-12-09_09h26.25.175,EPIDM,2023.1.2,None,
7183.jpg,9433.jpg,4 Points,1 Point,,,,,,,,,,,,,,,,,0,23,23,23,,,,,,,,,,,l,2.4394832079997286,,,38,2024-12-09_09h26.25.175,EPIDM,2023.1.2,None,
9490.jpg,9290.jpg,1 Point,2 Points,,,,,,,,,,,,,,,,,0,24,24,24,,,,,,,,,,,d,5.281890374986688,,,38,2024-12-09_09h26.25.175,EPIDM,2023.1.2,None,
4532.jpg,7150.jpg,3 Points,2 Points,,,,,,,,,,,,,,,,,0,25,25,25,,,,,,,,,,,a,3.5316320420242846,,,38,2024-12-09_09h26.25.175,EPIDM,2023.1.2,None,
3022.jpg,6530.jpg,0 Points,1 Point,,,,,,,,,,,,,,,,,0,26,26,26,,,,,,,,,,,s,3.9912204169959296,,,38,2024-12-09_09h26.25.175,EPIDM,2023.1.2,None,
3069.jpg,O022.jpg,3 Points,2 Points,,,,,,,,,,,,,,,,,0,27,27,27,,,,,,,,,,,k,5.123894499993185,,,38,2024-12-09_09h26.25.175,EPIDM,2023.1.2,None,
8465.jpg,2590.jpg,1 Point,4 Points,,,,,,,,,,,,,,,,,0,28,28,28,,,,,,,,,,,k,4.969905083999038,,,38,2024-12-09_09h26.25.175,EPIDM,2023.1.2,None,
8117.jpg,7281.jpg,5 Points,0 Points,,,,,,,,,,,,,,,,,0,29,29,29,,,,,,,,,,,a,4.597088000009535,,,38,2024-12-09_09h26.25.175,EPIDM,2023.1.2,None,
4609.jpg,1900.jpg,2 Points,4 Points,,,,,,,,,,,,,,,,,0,30,30,30,,,,,,,,,,,k,6.215555041999323,,,38,2024-12-09_09h26.25.175,EPIDM,2023.1.2,None,
7010.jpg,1120.jpg,2 Points,3 Points,,,,,,,,,,,,,,,,,0,31,31,31,,,,,,,,,,,l,3.260253541986458,,,38,2024-12-09_09h26.25.175,EPIDM,2023.1.2,None,
3300.jpg,9000.jpg,0 Points,4 Points,,,,,,,,,,,,,,,,,0,32,32,32,,,,,,,,,,,k,5.283648167009233,,,38,2024-12-09_09h26.25.175,EPIDM,2023.1.2,None,
9570.jpg,9911.jpg,0 Points,5 Points,,,,,,,,,,,,,,,,,0,33,33,33,,,,,,,,,,,d,5.0098726249998435,,,38,2024-12-09_09h26.25.175,EPIDM,2023.1.2,None,
2752.jpg,7360.jpg,2 Points,1 Point,,,,,,,,,,,,,,,,,0,34,34,34,,,,,,,,,,,l,2.7203319169930182,,,38,2024-12-09_09h26.25.175,EPIDM,2023.1.2,None,
7090.jpg,9360.jpg,4 Points,1 Point,,,,,,,,,,,,,,,,,0,35,35,35,,,,,,,,,,,j,2.6930339169921353,,,38,2024-12-09_09h26.25.175,EPIDM,2023.1.2,None,
4279.jpg,2030.jpg,5 Points,0 Points,,,,,,,,,,,,,,,,,0,36,36,36,,,,,,,,,,,d,4.167279667017283,,,38,2024-12-09_09h26.25.175,EPIDM,2023.1.2,None,
9920.jpg,5950.jpg,5 Points,0 Points,,,,,,,,,,,,,,,,,0,37,37,37,,,,,,,,,,,a,5.246439251000993,space,11.945267916977173,38,2024-12-09_09h26.25.175,EPIDM,2023.1.2,None,
9101.jpg,1945.jpg,2 Points,4 Points,,,,,,,,,,,,,,,,,0,38,38,38,,,,,,,,,,,j,5.159847167000407,,,38,2024-12-09_09h26.25.175,EPIDM,2023.1.2,None,
5626.jpg,5533.jpg,2 Points,3 Points,,,,,,,,,,,,,,,,,0,39,39,39,,,,,,,,,,,l,3.5483491260092705,,,38,2024-12-09_09h26.25.175,EPIDM,2023.1.2,None,
9265.jpg,9041.jpg,0 Points,4 Points,,,,,,,,,,,,,,,,,0,40,40,40,,,,,,,,,,,j,4.317583916999865,,,38,2024-12-09_09h26.25.175,EPIDM,2023.1.2,None,
3301.jpg,7705.jpg,0 Points,5 Points,,,,,,,,,,,,,,,,,0,41,41,41,,,,,,,,,,,a,2.6438445420062635,,,38,2024-12-09_09h26.25.175,EPIDM,2023.1.2,None,
4536.jpg,2170.jpg,4 Points,2 Points,,,,,,,,,,,,,,,,,0,42,42,42,,,,,,,,,,,s,5.643966832984006,,,38,2024-12-09_09h26.25.175,EPIDM,2023.1.2,None,
7140.jpg,2702.jpg,0 Points,5 Points,,,,,,,,,,,,,,,,,0,43,43,43,,,,,,,,,,,l,6.517144499986898,,,38,2024-12-09_09h26.25.175,EPIDM,2023.1.2,None,
2870.jpg,8503.jpg,5 Points,2 Points,,,,,,,,,,,,,,,,,0,44,44,44,,,,,,,,,,,j,7.585444500000449,,,38,2024-12-09_09h26.25.175,EPIDM,2023.1.2,None,
8480.jpg,9830.jpg,1 Point,4 Points,,,,,,,,,,,,,,,,,0,45,45,45,,,,,,,,,,,k,2.3074496669869404,,,38,2024-12-09_09h26.25.175,EPIDM,2023.1.2,None,
F149.jpg,6571.jpg,0 Points,2 Points,,,,,,,,,,,,,,,,,0,46,46,46,,,,,,,,,,,j,3.779404834000161,,,38,2024-12-09_09h26.25.175,EPIDM,2023.1.2,None,
9621.jpg,6838.jpg,0 Points,5 Points,,,,,,,,,,,,,,,,,0,47,47,47,,,,,,,,,,,l,2.365004791994579,,,38,2024-12-09_09h26.25.175,EPIDM,2023.1.2,None,
9401.jpg,9110.jpg,2 Points,1 Point,,,,,,,,,,,,,,,,,0,48,48,48,,,,,,,,,,,s,4.141962791996775,,,38,2024-12-09_09h26.25.175,EPIDM,2023.1.2,None,
1022.jpg,7031.jpg,1 Point,4 Points,,,,,,,,,,,,,,,,,0,49,49,49,,,,,,,,,,,a,5.718498333997559,,,38,2024-12-09_09h26.25.175,EPIDM,2023.1.2,None,
5480.jpg,2312.jpg,4 Points,1 Points,,,,,,,,,,,,,,,,,0,50,50,50,,,,,,,,,,,k,3.3220676250057295,,,38,2024-12-09_09h26.25.175,EPIDM,2023.1.2,None,
7025.jpg,9584.jpg,3 Points,2 Points,,,,,,,,,,,,,,,,,0,51,51,51,,,,,,,,,,,l,2.642251834011404,,,38,2024-12-09_09h26.25.175,EPIDM,2023.1.2,None,
1201.jpg,3180.jpg,3 Points,5 Points,,,,,,,,,,,,,,,,,0,52,52,52,,,,,,,,,,,l,2.442574541986687,,,38,2024-12-09_09h26.25.175,EPIDM,2023.1.2,None,
3350.jpg,7130.jpg,1 Point,4 Points,,,,,,,,,,,,,,,,,0,53,53,53,,,,,,,,,,,a,2.083624916995177,space,19.00531612499617,38,2024-12-09_09h26.25.175,EPIDM,2023.1.2,None,
2487.jpg,4598.jpg,2 Points,1 Point,,,,,,,,,,,,,,,,,0,54,54,54,,,,,,,,,,,k,3.824782542011235,,,38,2024-12-09_09h26.25.175,EPIDM,2023.1.2,None,
7224.jpg,7920.jpg,2 Points,3 Points,,,,,,,,,,,,,,,,,0,55,55,55,,,,,,,,,,,k,2.5392947089858353,,,38,2024-12-09_09h26.25.175,EPIDM,2023.1.2,None,
F369.jpg,3062.jpg,2 Points,3 Points,,,,,,,,,,,,,,,,,0,56,56,56,,,,,,,,,,,s,2.014305625023553,,,38,2024-12-09_09h26.25.175,EPIDM,2023.1.2,None,
5000.jpg,1603.jpg,4 Points,1 Points,,,,,,,,,,,,,,,,,0,57,57,57,,,,,,,,,,,d,5.0820094169757795,,,38,2024-12-09_09h26.25.175,EPIDM,2023.1.2,None,
5260.jpg,5760.jpg,5 Points,1 Point,,,,,,,,,,,,,,,,,0,58,58,58,,,,,,,,,,,j,2.8322250840137713,,,38,2024-12-09_09h26.25.175,EPIDM,2023.1.2,None,
5890.jpg,5780.jpg,2 Points,3 Points,,,,,,,,,,,,,,,,,0,59,59,59,,,,,,,,,,,j,2.8740352079912554,,,38,2024-12-09_09h26.25.175,EPIDM,2023.1.2,None,
F158.jpg,9582.jpg,3 Points,5 Points,,,,,,,,,,,,,,,,,0,60,60,60,,,,,,,,,,,s,3.6584151670103893,,,38,2024-12-09_09h26.25.175,EPIDM,2023.1.2,None,
9440.jpg,1274.jpg,4 Points,1 Points,,,,,,,,,,,,,,,,,0,61,61,61,,,,,,,,,,,s,2.2166929590166546,,,38,2024-12-09_09h26.25.175,EPIDM,2023.1.2,None,
F032.jpg,1080.jpg,1 Point,4 Points,,,,,,,,,,,,,,,,,0,62,62,62,,,,,,,,,,,k,5.031774250004673,,,38,2024-12-09_09h26.25.175,EPIDM,2023.1.2,None,
7233.jpg,5623.jpg,0 Points,5 Points,,,,,,,,,,,,,,,,,0,63,63,63,,,,,,,,,,,l,2.3393165839952417,,,38,2024-12-09_09h26.25.175,EPIDM,2023.1.2,None,
7580.jpg,7546.jpg,3 Points,2 Points,,,,,,,,,,,,,,,,,0,64,64,64,,,,,,,,,,,s,2.6418516249977984,,,38,2024-12-09_09h26.25.175,EPIDM,2023.1.2,None,
5020.jpg,5820.jpg,0 Points,5 Points,,,,,,,,,,,,,,,,,0,65,65,65,,,,,,,,,,,a,2.2582863330026157,,,38,2024-12-09_09h26.25.175,EPIDM,2023.1.2,None,
7280.jpg,2560.jpg,0 Points,4 Points,,,,,,,,,,,,,,,,,0,66,66,66,,,,,,,,,,,j,5.1936534169944935,,,38,2024-12-09_09h26.25.175,EPIDM,2023.1.2,None,
5593.jpg,5600.jpg,0 Points,5 Points,,,,,,,,,,,,,,,,,0,67,67,67,,,,,,,,,,,s,1.813608208001824,,,38,2024-12-09_09h26.25.175,EPIDM,2023.1.2,None,
2141.jpg,9611.jpg,5 Points,3 Points,,,,,,,,,,,,,,,,,0,68,68,68,,,,,,,,,,,d,3.8994573760137428,,,38,2024-12-09_09h26.25.175,EPIDM,2023.1.2,None,
9190.jpg,7110.jpg,0 Points,5 Points,,,,,,,,,,,,,,,,,0,69,69,69,,,,,,,,,,,j,6.703851541999029,space,16.120922125002835,38,2024-12-09_09h26.25.175,EPIDM,2023.1.2,None,
1113.jpg,6300.jpg,3 Points,2 Points,,,,,,,,,,,,,,,,,0,70,70,70,,,,,,,,,,,k,3.6269011670083273,,,38,2024-12-09_09h26.25.175,EPIDM,2023.1.2,None,
5900.jpg,7503.jpg,3 Points,2 Points,,,,,,,,,,,,,,,,,0,71,71,71,,,,,,,,,,,l,3.117109209008049,,,38,2024-12-09_09h26.25.175,EPIDM,2023.1.2,None,
2580.jpg,1910.jpg,3 Points,2 Points,,,,,,,,,,,,,,,,,0,72,72,72,,,,,,,,,,,s,4.41210100101307,,,38,2024-12-09_09h26.25.175,EPIDM,2023.1.2,None,
7282.jpg,5849.jpg,3 Points,2 Points,,,,,,,,,,,,,,,,,0,73,73,73,,,,,,,,,,,a,1.944923500996083,,,38,2024-12-09_09h26.25.175,EPIDM,2023.1.2,None,
2830.jpg,7100.jpg,5 Points,3 Points,,,,,,,,,,,,,,,,,0,74,74,74,,,,,,,,,,,a,2.061469209002098,,,38,2024-12-09_09h26.25.175,EPIDM,2023.1.2,None,
5629.jpg,5870.jpg,0 Points,5 Points,,,,,,,,,,,,,,,,,0,75,75,75,,,,,,,,,,,k,2.594124291994376,,,38,2024-12-09_09h26.25.175,EPIDM,2023.1.2,None,
2717.jpg,9330.jpg,4 Points,5 Points,,,,,,,,,,,,,,,,,0,76,76,76,,,,,,,,,,,s,2.959361249988433,,,38,2024-12-09_09h26.25.175,EPIDM,2023.1.2,None,
7350.jpg,7286.jpg,0 Points,5 Points,,,,,,,,,,,,,,,,,0,77,77,77,,,,,,,,,,,s,4.272397208987968,,,38,2024-12-09_09h26.25.175,EPIDM,2023.1.2,None,
4100.jpg,1510.jpg,3 Points,4 Points,,,,,,,,,,,,,,,,,0,78,78,78,,,,,,,,,,,d,3.4105255419854075,,,38,2024-12-09_09h26.25.175,EPIDM,2023.1.2,None,
7035.jpg,4660.jpg,1 Points,4 Points,,,,,,,,,,,,,,,,,0,79,79,79,,,,,,,,,,,l,1.6310220419836696,,,38,2024-12-09_09h26.25.175,EPIDM,2023.1.2,None,
8210.jpg,8460.jpg,3 Points,0 Points,,,,,,,,,,,,,,,,,0,80,80,80,,,,,,,,,,,k,1.2004529169935267,,,38,2024-12-09_09h26.25.175,EPIDM,2023.1.2,None,
4510.jpg,F252.jpg,5 Points,0 Points,,,,,,,,,,,,,,,,,0,81,81,81,,,,,,,,,,,a,1.7520951669721399,,,38,2024-12-09_09h26.25.175,EPIDM,2023.1.2,None,
1220.jpg,8231.jpg,1 Point,4 Points,,,,,,,,,,,,,,,,,0,82,82,82,,,,,,,,,,,s,2.238020291988505,,,38,2024-12-09_09h26.25.175,EPIDM,2023.1.2,None,
5720.jpg,1616.jpg,3 Points,2 Points,,,,,,,,,,,,,,,,,0,83,83,83,,,,,,,,,,,j,4.297126875986578,,,38,2024-12-09_09h26.25.175,EPIDM,2023.1.2,None,
3170.jpg,9432.jpg,2 Points,5 Points,,,,,,,,,,,,,,,,,0,84,84,84,,,,,,,,,,,k,2.146913249976933,,,38,2024-12-09_09h26.25.175,EPIDM,2023.1.2,None,
3181.jpg,9913.jpg,4 Points,1 Points,,,,,,,,,,,,,,,,,0,85,85,85,,,,,,,,,,,d,4.30646608400275,space,14.895732500008307,38,2024-12-09_09h26.25.175,EPIDM,2023.1.2,None,
5471.jpg,5010.jpg,2 Points,5 Points,,,,,,,,,,,,,,,,,0,86,86,86,,,,,,,,,,,l,4.705401042010635,,,38,2024-12-09_09h26.25.175,EPIDM,2023.1.2,None,
2683.jpg,7361.jpg,3 Points,2 Points,,,,,,,,,,,,,,,,,0,87,87,87,,,,,,,,,,,l,2.3457317920110654,,,38,2024-12-09_09h26.25.175,EPIDM,2023.1.2,None,
2650.jpg,5534.jpg,5 Points,3 Points,,,,,,,,,,,,,,,,,0,88,88,88,,,,,,,,,,,s,2.220267374999821,,,38,2024-12-09_09h26.25.175,EPIDM,2023.1.2,None,
8090.jpg,5831.jpg,2 Points,3 Points,,,,,,,,,,,,,,,,,0,89,89,89,,,,,,,,,,,a,2.58366220901371,,,38,2024-12-09_09h26.25.175,EPIDM,2023.1.2,None,
9320.jpg,2900.jpg,0 Points,3 Points,,,,,,,,,,,,,,,,,0,90,90,90,,,,,,,,,,,j,2.3626131670025643,,,38,2024-12-09_09h26.25.175,EPIDM,2023.1.2,None,
7034.jpg,2810.jpg,2 Points,3 Points,,,,,,,,,,,,,,,,,0,91,91,91,,,,,,,,,,,j,2.6953435000032187,,,38,2024-12-09_09h26.25.175,EPIDM,2023.1.2,None,
3500.jpg,6312.jpg,4 Points,2 Points,,,,,,,,,,,,,,,,,0,92,92,92,,,,,,,,,,,k,3.6381116670090705,,,38,2024-12-09_09h26.25.175,EPIDM,2023.1.2,None,
6561.jpg,7211.jpg,2 Points,3 Points,,,,,,,,,,,,,,,,,0,93,93,93,,,,,,,,,,,s,2.9014500419725664,,,38,2024-12-09_09h26.25.175,EPIDM,2023.1.2,None,
8350.jpg,5300.jpg,5 Points,1 Point,,,,,,,,,,,,,,,,,0,94,94,94,,,,,,,,,,,a,2.288752749998821,,,38,2024-12-09_09h26.25.175,EPIDM,2023.1.2,None,
2500.jpg,2630.jpg,5 Points,0 Points,,,,,,,,,,,,,,,,,0,95,95,95,,,,,,,,,,,k,4.850402334006503,,,38,2024-12-09_09h26.25.175,EPIDM,2023.1.2,None,
F174.jpg,6212.jpg,5 Points,4 Points,,,,,,,,,,,,,,,,,0,96,96,96,,,,,,,,,,,k,4.449957584001822,,,38,2024-12-09_09h26.25.175,EPIDM,2023.1.2,None,
5994.jpg,5700.jpg,0 Points,5 Points,,,,,,,,,,,,,,,,,0,97,97,97,,,,,,,,,,,a,2.337601834005909,,,38,2024-12-09_09h26.25.175,EPIDM,2023.1.2,None,
5500.jpg,5520.jpg,3 Points,2 Points,,,,,,,,,,,,,,,,,0,98,98,98,,,,,,,,,,,s,4.99428633399657,,,38,2024-12-09_09h26.25.175,EPIDM,2023.1.2,None,
7545.jpg,2389.jpg,5 Points,0 Points,,,,,,,,,,,,,,,,,0,99,99,99,,,,,,,,,,,k,1.6113141670066398,,,38,2024-12-09_09h26.25.175,EPIDM,2023.1.2,None,
2220.jpg,2092.jpg,5 Points,0 Points,,,,,,,,,,,,,,,,,0,100,100,100,,,,,,,,,,,d,3.8666788749978878,,,38,2024-12-09_09h26.25.175,EPIDM,2023.1.2,None,
7184.jpg,9700.jpg,4 Points,1 Points,,,,,,,,,,,,,,,,,0,101,101,101,,,,,,,,,,,a,2.453331458993489,space,28.080118916986976,38,2024-12-09_09h26.25.175,EPIDM,2023.1.2,None,
1390.jpg,1051.jpg,2 Points,0 Points,,,,,,,,,,,,,,,,,0,102,102,102,,,,,,,,,,,l,3.203413042007014,,,38,2024-12-09_09h26.25.175,EPIDM,2023.1.2,None,
7182.jpg,7620.jpg,4 Points,1 Point,,,,,,,,,,,,,,,,,0,103,103,103,,,,,,,,,,,k,1.5216990420012735,,,38,2024-12-09_09h26.25.175,EPIDM,2023.1.2,None,
4608.jpg,5510.jpg,1 Point,5 Points,,,,,,,,,,,,,,,,,0,104,104,104,,,,,,,,,,,d,3.1728525000216905,,,38,2024-12-09_09h26.25.175,EPIDM,2023.1.2,None,
2620.jpg,5470.jpg,0 Points,5 Points,,,,,,,,,,,,,,,,,0,105,105,105,,,,,,,,,,,s,4.958252667012857,,,38,2024-12-09_09h26.25.175,EPIDM,2023.1.2,None,
F034.jpg,6213.jpg,4 Points,1 Point,,,,,,,,,,,,,,,,,0,106,106,106,,,,,,,,,,,s,2.5098573339928407,,,38,2024-12-09_09h26.25.175,EPIDM,2023.1.2,None,
5731.jpg,2606.jpg,4 Points,1 Point,,,,,,,,,,,,,,,,,0,107,107,107,,,,,,,,,,,k,2.2792299169814214,,,38,2024-12-09_09h26.25.175,EPIDM,2023.1.2,None,
1650.jpg,8510.jpg,1 Points,4 Points,,,,,,,,,,,,,,,,,0,108,108,108,,,,,,,,,,,l,2.0440655419952236,,,38,2024-12-09_09h26.25.175,EPIDM,2023.1.2,None,
4770.jpg,5920.jpg,3 Points,2 Points,,,,,,,,,,,,,,,,,0,109,109,109,,,,,,,,,,,d,2.349404541979311,,,38,2024-12-09_09h26.25.175,EPIDM,2023.1.2,None,
8220.jpg,4689.jpg,4 Points,5 Points,,,,,,,,,,,,,,,,,0,110,110,110,,,,,,,,,,,d,2.8426158750080504,,,38,2024-12-09_09h26.25.175,EPIDM,2023.1.2,None,
7040.jpg,A041.jpg,4 Points,1 Point,,,,,,,,,,,,,,,,,0,111,111,111,,,,,,,,,,,l,1.630544124986045,,,38,2024-12-09_09h26.25.175,EPIDM,2023.1.2,None,
A074.jpg,6190.jpg,2 Points,5 Points,,,,,,,,,,,,,,,,,0,112,112,112,,,,,,,,,,,s,3.310235459008254,,,38,2024-12-09_09h26.25.175,EPIDM,2023.1.2,None,
P233.jpg,7217.jpg,1 Point,4 Points,,,,,,,,,,,,,,,,,0,113,113,113,,,,,,,,,,,a,1.8744684169942047,,,38,2024-12-09_09h26.25.175,EPIDM,2023.1.2,None,
3168.jpg,9070.jpg,4 Points,2 Points,,,,,,,,,,,,,,,,,0,114,114,114,,,,,,,,,,,l,2.4074917919933796,,,38,2024-12-09_09h26.25.175,EPIDM,2023.1.2,None,
7207.jpg,2320.jpg,1 Points,4 Points,,,,,,,,,,,,,,,,,0,115,115,115,,,,,,,,,,,k,2.8776068340230267,,,38,2024-12-09_09h26.25.175,EPIDM,2023.1.2,None,
5531.jpg,1720.jpg,3 Points,4 Points,,,,,,,,,,,,,,,,,0,116,116,116,,,,,,,,,,,l,2.921017082990147,,,38,2024-12-09_09h26.25.175,EPIDM,2023.1.2,None,
1050.jpg,7030.jpg,4 Points,1 Points,,,,,,,,,,,,,,,,,0,117,117,117,,,,,,,,,,,s,1.1202850840054452,space,28.444326541997725,38,2024-12-09_09h26.25.175,EPIDM,2023.1.2,None,
2020.jpg,1811.jpg,5 Points,1 Point,,,,,,,,,,,,,,,,,0,118,118,118,,,,,,,,,,,j,4.348639875999652,,,38,2024-12-09_09h26.25.175,EPIDM,2023.1.2,None,
7020.jpg,2206.jpg,5 Points,0 Points,,,,,,,,,,,,,,,,,0,119,119,119,,,,,,,,,,,k,2.4500347089779098,,,38,2024-12-09_09h26.25.175,EPIDM,2023.1.2,None,
2753.jpg,1090.jpg,0 Points,5 Points,,,,,,,,,,,,,,,,,0,120,120,120,,,,,,,,,,,s,2.667525166994892,,,38,2024-12-09_09h26.25.175,EPIDM,2023.1.2,None,
3160.jpg,7080.jpg,1 Point,4 Points,,,,,,,,,,,,,,,,,0,121,121,121,,,,,,,,,,,k,4.711668417003239,,,38,2024-12-09_09h26.25.175,EPIDM,2023.1.2,None,
7260.jpg,8280.jpg,5 Points,3 Points,,,,,,,,,,,,,,,,,0,122,122,122,,,,,,,,,,,j,2.081870499998331,,,38,2024-12-09_09h26.25.175,EPIDM,2023.1.2,None,
5740.jpg,2100.jpg,0 Points,5 Points,,,,,,,,,,,,,,,,,0,123,123,123,,,,,,,,,,,l,2.1116082920052577,,,38,2024-12-09_09h26.25.175,EPIDM,2023.1.2,None,
2840.jpg,8040.jpg,2 Points,1 Point,,,,,,,,,,,,,,,,,0,124,124,124,,,,,,,,,,,s,2.511939416988753,,,38,2024-12-09_09h26.25.175,EPIDM,2023.1.2,None,
1450.jpg,5530.jpg,5 Points,0 Points,,,,,,,,,,,,,,,,,0,125,125,125,,,,,,,,,,,j,4.736442999972496,,,38,2024-12-09_09h26.25.175,EPIDM,2023.1.2,None,
2276.jpg,1930.jpg,3 Points,1 Point,,,,,,,,,,,,,,,,,0,126,126,126,,,,,,,,,,,k,3.346024166996358,,,38,2024-12-09_09h26.25.175,EPIDM,2023.1.2,None,
5628.jpg,5201.jpg,5 Points,0 Points,,,,,,,,,,,,,,,,,0,127,127,127,,,,,,,,,,,j,2.7458669999905396,,,38,2024-12-09_09h26.25.175,EPIDM,2023.1.2,None,
4250.jpg,2499.jpg,5 Points,3 Points,,,,,,,,,,,,,,,,,0,128,128,128,,,,,,,,,,,a,5.035196957993321,,,38,2024-12-09_09h26.25.175,EPIDM,2023.1.2,None,
2512.jpg,7050.jpg,1 Point,4 Points,,,,,,,,,,,,,,,,,0,129,129,129,,,,,,,,,,,s,2.846687958983239,,,38,2024-12-09_09h26.25.175,EPIDM,2023.1.2,None,
4621.jpg,3280.jpg,2 Points,0 Points,,,,,,,,,,,,,,,,,0,130,130,130,,,,,,,,,,,a,2.8976377089857124,,,38,2024-12-09_09h26.25.175,EPIDM,2023.1.2,None,
5910.jpg,5800.jpg,5 Points,0 Points,,,,,,,,,,,,,,,,,0,131,131,131,,,,,,,,,,,j,3.735742332995869,,,38,2024-12-09_09h26.25.175,EPIDM,2023.1.2,None,
5780.jpg,6200.jpg,3 Points,5 Points,,,,,,,,,,,,,,,,,0,132,132,132,,,,,,,,,,,d,2.300084041984519,,,38,2024-12-09_09h26.25.175,EPIDM,2023.1.2,None,
7285.jpg,5875.jpg,5 Points,0 Points,,,,,,,,,,,,,,,,,0,133,133,133,,,,,,,,,,,a,1.596043625002494,space,32.61332791700261,38,2024-12-09_09h26.25.175,EPIDM,2023.1.2,None,
2221.jpg,1303.jpg,2 Points,0 Points,,,,,,,,,,,,,,,,,0,134,134,134,,,,,,,,,,,j,3.6072837079991587,,,38,2024-12-09_09h26.25.175,EPIDM,2023.1.2,None,
9600.jpg,7640.jpg,5 Points,0 Points,,,,,,,,,,,,,,,,,0,135,135,135,,,,,,,,,,,d,4.59140370899695,,,38,2024-12-09_09h26.25.175,EPIDM,2023.1.2,None,
1810.jpg,2616.jpg,3 Points,4 Points,,,,,,,,,,,,,,,,,0,136,136,136,,,,,,,,,,,j,2.0798277919820976,,,38,2024-12-09_09h26.25.175,EPIDM,2023.1.2,None,
9046.jpg,9630.jpg,3 Points,2 Points,,,,,,,,,,,,,,,,,0,137,137,137,,,,,,,,,,,s,1.6514713339856826,,,38,2024-12-09_09h26.25.175,EPIDM,2023.1.2,None,
9560.jpg,1302.jpg,1 Point,3 Points,,,,,,,,,,,,,,,,,0,138,138,138,,,,,,,,,,,l,2.7324843340029474,,,38,2024-12-09_09h26.25.175,EPIDM,2023.1.2,None,
7000.jpg,1661.jpg,2 Points,3 Points,,,,,,,,,,,,,,,,,0,139,139,139,,,,,,,,,,,k,5.001531374990009,,,38,2024-12-09_09h26.25.175,EPIDM,2023.1.2,None,
9331.jpg,1275.jpg,2 Points,1 Point,,,,,,,,,,,,,,,,,0,140,140,140,,,,,,,,,,,j,2.5474746669933666,,,38,2024-12-09_09h26.25.175,EPIDM,2023.1.2,None,
9470.jpg,9810.jpg,3 Points,2 Points,,,,,,,,,,,,,,,,,0,141,141,141,,,,,,,,,,,a,1.7707445840060245,,,38,2024-12-09_09h26.25.175,EPIDM,2023.1.2,None,
8033.jpg,4534.jpg,3 Points,0 Points,,,,,,,,,,,,,,,,,0,142,142,142,,,,,,,,,,,j,3.829674583976157,,,38,2024-12-09_09h26.25.175,EPIDM,2023.1.2,None,
7502.jpg,9181.jpg,5 Points,0 Points,,,,,,,,,,,,,,,,,0,143,143,143,,,,,,,,,,,l,2.1764280420029536,,,38,2024-12-09_09h26.25.175,EPIDM,2023.1.2,None,
7490.jpg,8021.jpg,2 Points,4 Points,,,,,,,,,,,,,,,,,0,144,144,144,,,,,,,,,,,a,4.514919667009963,,,38,2024-12-09_09h26.25.175,EPIDM,2023.1.2,None,
9280.jpg,9424.jpg,1 Point,4 Points,,,,,,,,,,,,,,,,,0,145,145,145,,,,,,,,,,,a,2.9571322089759633,,,38,2024-12-09_09h26.25.175,EPIDM,2023.1.2,None,
2682.jpg,2710.jpg,5 Points,1 Point,,,,,,,,,,,,,,,,,0,146,146,146,,,,,,,,,,,j,3.999925792013528,,,38,2024-12-09_09h26.25.175,EPIDM,2023.1.2,None,
7235.jpg,7186.jpg,3 Points,2 Points,,,,,,,,,,,,,,,,,0,147,147,147,,,,,,,,,,,k,4.20397345899255,,,38,2024-12-09_09h26.25.175,EPIDM,2023.1.2,None,
2440.jpg,7950.jpg,4 Points,1 Point,,,,,,,,,,,,,,,,,0,148,148,148,,,,,,,,,,,a,1.8459065000060946,,,38,2024-12-09_09h26.25.175,EPIDM,2023.1.2,None,
9620.jpg,1230.jpg,1 Point,4 Points,,,,,,,,,,,,,,,,,0,149,149,149,,,,,,,,,,,j,2.57092329201987,space,1.7476571669976693,38,2024-12-09_09h26.25.175,EPIDM,2023.1.2,None,
9373.jpg,9402.jpg,0 Points,2 Points,,,,,,,,,,,,,,,,,0,150,150,150,,,,,,,,,,,j,5.999631833983585,,,38,2024-12-09_09h26.25.175,EPIDM,2023.1.2,None,
2716.jpg,A053.jpg,2 Points,3 Points,,,,,,,,,,,,,,,,,0,151,151,151,,,,,,,,,,,l,3.8716233760060277,,,38,2024-12-09_09h26.25.175,EPIDM,2023.1.2,None,
1070.jpg,3220.jpg,2 Points,5 Points,,,,,,,,,,,,,,,,,0,152,152,152,,,,,,,,,,,j,3.3943222499801777,,,38,2024-12-09_09h26.25.175,EPIDM,2023.1.2,None,
2205.jpg,7550.jpg,4 Points,1 Points,,,,,,,,,,,,,,,,,0,153,153,153,,,,,,,,,,,a,3.976425583998207,,,38,2024-12-09_09h26.25.175,EPIDM,2023.1.2,None,
4613.jpg,F203.jpg,4 Points,0 Points,,,,,,,,,,,,,,,,,0,154,154,154,,,,,,,,,,,a,2.0233563340152614,,,38,2024-12-09_09h26.25.175,EPIDM,2023.1.2,None,
5991.jpg,5594.jpg,0 Points,5 Points,,,,,,,,,,,,,,,,,0,155,155,155,,,,,,,,,,,l,1.7235809169942513,,,38,2024-12-09_09h26.25.175,EPIDM,2023.1.2,None,
9430.jpg,1931.jpg,5 Points,3 Points,,,,,,,,,,,,,,,,,0,156,156,156,,,,,,,,,,,a,2.17389799997909,,,38,2024-12-09_09h26.25.175,EPIDM,2023.1.2,None,
8531.jpg,7095.jpg,4 Points,1 Points,,,,,,,,,,,,,,,,,0,157,157,157,,,,,,,,,,,d,2.368218416988384,,,38,2024-12-09_09h26.25.175,EPIDM,2023.1.2,None,
2516.jpg,1121.jpg,4 Points,0 Points,,,,,,,,,,,,,,,,,0,158,158,158,,,,,,,,,,,d,4.314974375010934,,,38,2024-12-09_09h26.25.175,EPIDM,2023.1.2,None,
7004.jpg,2120.jpg,5 Points,0 Points,,,,,,,,,,,,,,,,,0,159,159,159,,,,,,,,,,,k,2.034342332975939,,,38,2024-12-09_09h26.25.175,EPIDM,2023.1.2,None,
