L_Scene,R_Scene,L_Pts,R_Pts,Instructions_Loop.thisRepN,Instructions_Loop.thisTrialN,Instructions_Loop.thisN,Instructions_Loop.thisIndex,Redo_Instructions_Loop.thisRepN,Redo_Instructions_Loop.thisTrialN,Redo_Instructions_Loop.thisN,Redo_Instructions_Loop.thisIndex,Practice_Recognition_Loop.thisRepN,Practice_Recognition_Loop.thisTrialN,Practice_Recognition_Loop.thisN,Practice_Recognition_Loop.thisIndex,Practice_FB_Loop.thisRepN,Practice_FB_Loop.thisTrialN,Practice_FB_Loop.thisN,Practice_FB_Loop.thisIndex,RecStim_Loop.thisRepN,RecStim_Loop.thisTrialN,RecStim_Loop.thisN,RecStim_Loop.thisIndex,FB_Loop.thisRepN,FB_Loop.thisTrialN,FB_Loop.thisN,FB_Loop.thisIndex,RecBrk_Loop.thisRepN,RecBrk_Loop.thisTrialN,RecBrk_Loop.thisN,RecBrk_Loop.thisIndex,Transition_Enc.keys,Transition_Enc.rt,Encoding_Resp.keys,Encoding_Resp.rt,EncBrk_Resp.keys,EncBrk_Resp.rt,participant,date,expName,psychopyVersion,frameRate,
,,,,,,,,,,,,,,,,,,,,,,,,,,,,,,,,space,9.244201249006437,,,,,40,2024-12-10_11h40.46.505,EPIDM,2023.1.2,None,
F078.jpg,L130.jpg,,,,,,,,,,,0,0,0,0,,,,,,,,,,,,,,,,,,,s,6.79659954100498,,,40,2024-12-10_11h40.46.505,EPIDM,2023.1.2,None,
P036.jpg,P217.jpg,,,,,,,,,,,0,1,1,1,,,,,,,,,,,,,,,,,,,k,5.889342040987685,,,40,2024-12-10_11h40.46.505,EPIDM,2023.1.2,None,
O161.jpg,F218.jpg,,,,,,,,,,,0,2,2,2,,,,,,,,,,,,,,,,,,,s,3.6798104999761563,,,40,2024-12-10_11h40.46.505,EPIDM,2023.1.2,None,
F279.jpg,A001.jpg,,,,,,,,,,,0,3,3,3,,,,,,,,,,,,,,,,,,,l,7.886122500000056,,,40,2024-12-10_11h40.46.505,EPIDM,2023.1.2,None,
F273.jpg,A060.jpg,,,,,,,,,,,0,4,4,4,,,,,,,,,,,,,,,,,,,l,2.8962404989870265,,,40,2024-12-10_11h40.46.505,EPIDM,2023.1.2,None,
2393.jpg,L055.jpg,,,,,,,,,,,0,5,5,5,,,,,,,,,,,,,,,,,,,a,3.9695676249975804,,,40,2024-12-10_11h40.46.505,EPIDM,2023.1.2,None,
1812.jpg,2593.jpg,,,,,,,,,,,0,6,6,6,,,,,,,,,,,,,,,,,,,a,7.571203833009349,,,40,2024-12-10_11h40.46.505,EPIDM,2023.1.2,None,
O013.jpg,A067.jpg,,,,,,,,,,,0,7,7,7,,,,,,,,,,,,,,,,,,,a,3.2984355409862474,,,40,2024-12-10_11h40.46.505,EPIDM,2023.1.2,None,
P033.jpg,P034.jpg,,,,,,,,,,,0,8,8,8,,,,,,,,,,,,,,,,,,,a,8.870212250010809,,,40,2024-12-10_11h40.46.505,EPIDM,2023.1.2,None,
A104.jpg,8186.jpg,,,,,,,,,,,0,9,9,9,,,,,,,,,,,,,,,,,,,a,5.979558416991495,,,40,2024-12-10_11h40.46.505,EPIDM,2023.1.2,None,
,,,,,,,,,,,,,,,,,,,,,,,,,,,,,,,,space,3.3803323750034906,,,,,40,2024-12-10_11h40.46.505,EPIDM,2023.1.2,None,
2271.jpg,9405.jpg,2 Points,3 Points,,,,,,,,,,,,,,,,,0,0,0,0,,,,,,,,,,,l,3.721113083011005,,,40,2024-12-10_11h40.46.505,EPIDM,2023.1.2,None,
4500.jpg,5532.jpg,3 Points,2 Points,,,,,,,,,,,,,,,,,0,1,1,1,,,,,,,,,,,d,5.484211791015696,,,40,2024-12-10_11h40.46.505,EPIDM,2023.1.2,None,
6360.jpg,6834.jpg,1 Point,5 Points,,,,,,,,,,,,,,,,,0,2,2,2,,,,,,,,,,,l,6.381851042009657,,,40,2024-12-10_11h40.46.505,EPIDM,2023.1.2,None,
9921.jpg,6370.jpg,1 Points,4 Points,,,,,,,,,,,,,,,,,0,3,3,3,,,,,,,,,,,k,2.375149750005221,,,40,2024-12-10_11h40.46.505,EPIDM,2023.1.2,None,
5455.jpg,7230.jpg,0 Points,5 Points,,,,,,,,,,,,,,,,,0,4,4,4,,,,,,,,,,,s,3.042477374023292,,,40,2024-12-10_11h40.46.505,EPIDM,2023.1.2,None,
2890.jpg,2515.jpg,1 Points,4 Points,,,,,,,,,,,,,,,,,0,5,5,5,,,,,,,,,,,j,4.250688040978275,space,2.1151853330084123,40,2024-12-10_11h40.46.505,EPIDM,2023.1.2,None,
9912.jpg,2750.jpg,5 Points,4 Points,,,,,,,,,,,,,,,,,0,6,6,6,,,,,,,,,,,l,3.190469499997562,,,40,2024-12-10_11h40.46.505,EPIDM,2023.1.2,None,
7500.jpg,2751.jpg,2 Points,3 Points,,,,,,,,,,,,,,,,,0,7,7,7,,,,,,,,,,,j,2.6068297080055345,,,40,2024-12-10_11h40.46.505,EPIDM,2023.1.2,None,
9250.jpg,3080.jpg,0 Points,1 Points,,,,,,,,,,,,,,,,,0,8,8,8,,,,,,,,,,,l,1.8477154989959672,,,40,2024-12-10_11h40.46.505,EPIDM,2023.1.2,None,
9220.jpg,7560.jpg,1 Point,4 Points,,,,,,,,,,,,,,,,,0,9,9,9,,,,,,,,,,,j,3.121294415992452,,,40,2024-12-10_11h40.46.505,EPIDM,2023.1.2,None,
2381.jpg,8250.jpg,1 Point,4 Points,,,,,,,,,,,,,,,,,0,10,10,10,,,,,,,,,,,d,3.7027281670016237,,,40,2024-12-10_11h40.46.505,EPIDM,2023.1.2,None,
1932.jpg,9415.jpg,1 Points,4 Points,,,,,,,,,,,,,,,,,0,11,11,11,,,,,,,,,,,j,3.321277624985669,,,40,2024-12-10_11h40.46.505,EPIDM,2023.1.2,None,
6000.jpg,5940.jpg,4 Points,0 Points,,,,,,,,,,,,,,,,,0,12,12,12,,,,,,,,,,,j,4.672431083017727,,,40,2024-12-10_11h40.46.505,EPIDM,2023.1.2,None,
9010.jpg,5450.jpg,0 Points,5 Points,,,,,,,,,,,,,,,,,0,13,13,13,,,,,,,,,,,s,6.536614499986172,,,40,2024-12-10_11h40.46.505,EPIDM,2023.1.2,None,
2600.jpg,8185.jpg,1 Point,0 Points,,,,,,,,,,,,,,,,,0,14,14,14,,,,,,,,,,,s,4.211861916992348,,,40,2024-12-10_11h40.46.505,EPIDM,2023.1.2,None,
7006.jpg,6821.jpg,3 Points,2 Points,,,,,,,,,,,,,,,,,0,15,15,15,,,,,,,,,,,d,4.353585125005338,,,40,2024-12-10_11h40.46.505,EPIDM,2023.1.2,None,
5030.jpg,4274.jpg,3 Points,2 Points,,,,,,,,,,,,,,,,,0,16,16,16,,,,,,,,,,,j,4.528174083010526,,,40,2024-12-10_11h40.46.505,EPIDM,2023.1.2,None,
5622.jpg,7495.jpg,4 Points,1 Points,,,,,,,,,,,,,,,,,0,17,17,17,,,,,,,,,,,d,4.363525666005444,,,40,2024-12-10_11h40.46.505,EPIDM,2023.1.2,None,
6910.jpg,9160.jpg,0 Points,4 Points,,,,,,,,,,,,,,,,,0,18,18,18,,,,,,,,,,,k,2.6258069580071606,,,40,2024-12-10_11h40.46.505,EPIDM,2023.1.2,None,
7096.jpg,2570.jpg,2 Points,3 Points,,,,,,,,,,,,,,,,,0,19,19,19,,,,,,,,,,,k,3.190730000002077,,,40,2024-12-10_11h40.46.505,EPIDM,2023.1.2,None,
6940.jpg,6241.jpg,2 Points,3 Points,,,,,,,,,,,,,,,,,0,20,20,20,,,,,,,,,,,s,3.040975624026032,,,40,2024-12-10_11h40.46.505,EPIDM,2023.1.2,None,
1112.jpg,6415.jpg,3 Points,2 Points,,,,,,,,,,,,,,,,,0,21,21,21,,,,,,,,,,,k,4.11092895801994,space,1.1079974169842899,40,2024-12-10_11h40.46.505,EPIDM,2023.1.2,None,
1740.jpg,4533.jpg,0 Points,3 Points,,,,,,,,,,,,,,,,,0,22,22,22,,,,,,,,,,,a,3.750424958008807,,,40,2024-12-10_11h40.46.505,EPIDM,2023.1.2,None,
7183.jpg,9433.jpg,4 Points,1 Point,,,,,,,,,,,,,,,,,0,23,23,23,,,,,,,,,,,l,1.3773364159860648,,,40,2024-12-10_11h40.46.505,EPIDM,2023.1.2,None,
9490.jpg,9290.jpg,1 Point,2 Points,,,,,,,,,,,,,,,,,0,24,24,24,,,,,,,,,,,s,5.238661625015084,,,40,2024-12-10_11h40.46.505,EPIDM,2023.1.2,None,
2850.jpg,7150.jpg,3 Points,2 Points,,,,,,,,,,,,,,,,,0,25,25,25,,,,,,,,,,,s,4.910677416977705,,,40,2024-12-10_11h40.46.505,EPIDM,2023.1.2,None,
2352.2.jpg,9417.jpg,0 Points,1 Point,,,,,,,,,,,,,,,,,0,26,26,26,,,,,,,,,,,a,3.050301707990002,,,40,2024-12-10_11h40.46.505,EPIDM,2023.1.2,None,
3069.jpg,6314.jpg,3 Points,2 Points,,,,,,,,,,,,,,,,,0,27,27,27,,,,,,,,,,,a,2.6662718750012573,,,40,2024-12-10_11h40.46.505,EPIDM,2023.1.2,None,
8465.jpg,2490.jpg,1 Point,4 Points,,,,,,,,,,,,,,,,,0,28,28,28,,,,,,,,,,,k,3.6134149999998044,,,40,2024-12-10_11h40.46.505,EPIDM,2023.1.2,None,
8117.jpg,7281.jpg,5 Points,0 Points,,,,,,,,,,,,,,,,,0,29,29,29,,,,,,,,,,,s,4.132414624997182,,,40,2024-12-10_11h40.46.505,EPIDM,2023.1.2,None,
4609.jpg,8161.jpg,2 Points,4 Points,,,,,,,,,,,,,,,,,0,30,30,30,,,,,,,,,,,s,3.3617432080209255,,,40,2024-12-10_11h40.46.505,EPIDM,2023.1.2,None,
7010.jpg,9040.jpg,2 Points,3 Points,,,,,,,,,,,,,,,,,0,31,31,31,,,,,,,,,,,s,3.087493875005748,,,40,2024-12-10_11h40.46.505,EPIDM,2023.1.2,None,
5970.jpg,3110.jpg,0 Points,4 Points,,,,,,,,,,,,,,,,,0,32,32,32,,,,,,,,,,,l,2.3588632909813896,,,40,2024-12-10_11h40.46.505,EPIDM,2023.1.2,None,
9570.jpg,9911.jpg,0 Points,5 Points,,,,,,,,,,,,,,,,,0,33,33,33,,,,,,,,,,,k,2.9583575410069898,,,40,2024-12-10_11h40.46.505,EPIDM,2023.1.2,None,
6243.jpg,3266.jpg,2 Points,1 Point,,,,,,,,,,,,,,,,,0,34,34,34,,,,,,,,,,,k,7.317273541004397,,,40,2024-12-10_11h40.46.505,EPIDM,2023.1.2,None,
7090.jpg,2690.jpg,4 Points,1 Point,,,,,,,,,,,,,,,,,0,35,35,35,,,,,,,,,,,j,3.827626208018046,,,40,2024-12-10_11h40.46.505,EPIDM,2023.1.2,None,
4279.jpg,2030.jpg,5 Points,0 Points,,,,,,,,,,,,,,,,,0,36,36,36,,,,,,,,,,,s,3.7367252910044044,,,40,2024-12-10_11h40.46.505,EPIDM,2023.1.2,None,
3068.jpg,5950.jpg,5 Points,0 Points,,,,,,,,,,,,,,,,,0,37,37,37,,,,,,,,,,,a,2.6831175000115763,space,1.055192749015987,40,2024-12-10_11h40.46.505,EPIDM,2023.1.2,None,
9101.jpg,2800.jpg,2 Points,4 Points,,,,,,,,,,,,,,,,,0,38,38,38,,,,,,,,,,,l,4.908926040981896,,,40,2024-12-10_11h40.46.505,EPIDM,2023.1.2,None,
5626.jpg,5533.jpg,2 Points,3 Points,,,,,,,,,,,,,,,,,0,39,39,39,,,,,,,,,,,k,2.7970912489981856,,,40,2024-12-10_11h40.46.505,EPIDM,2023.1.2,None,
9265.jpg,P211.jpg,0 Points,4 Points,,,,,,,,,,,,,,,,,0,40,40,40,,,,,,,,,,,l,4.158788458007621,,,40,2024-12-10_11h40.46.505,EPIDM,2023.1.2,None,
6250.1.jpg,7705.jpg,0 Points,5 Points,,,,,,,,,,,,,,,,,0,41,41,41,,,,,,,,,,,d,3.340452500007814,,,40,2024-12-10_11h40.46.505,EPIDM,2023.1.2,None,
4536.jpg,2170.jpg,4 Points,2 Points,,,,,,,,,,,,,,,,,0,42,42,42,,,,,,,,,,,a,3.0217206250235904,,,40,2024-12-10_11h40.46.505,EPIDM,2023.1.2,None,
7140.jpg,2702.jpg,0 Points,5 Points,,,,,,,,,,,,,,,,,0,43,43,43,,,,,,,,,,,k,3.6229022500046995,,,40,2024-12-10_11h40.46.505,EPIDM,2023.1.2,None,
2661.jpg,8503.jpg,5 Points,2 Points,,,,,,,,,,,,,,,,,0,44,44,44,,,,,,,,,,,d,3.633238041016739,,,40,2024-12-10_11h40.46.505,EPIDM,2023.1.2,None,
8480.jpg,9830.jpg,1 Point,4 Points,,,,,,,,,,,,,,,,,0,45,45,45,,,,,,,,,,,s,3.9730937920103315,,,40,2024-12-10_11h40.46.505,EPIDM,2023.1.2,None,
F149.jpg,6571.jpg,0 Points,2 Points,,,,,,,,,,,,,,,,,0,46,46,46,,,,,,,,,,,l,3.3014445409935433,,,40,2024-12-10_11h40.46.505,EPIDM,2023.1.2,None,
9621.jpg,6838.jpg,0 Points,5 Points,,,,,,,,,,,,,,,,,0,47,47,47,,,,,,,,,,,k,3.1177082489884924,,,40,2024-12-10_11h40.46.505,EPIDM,2023.1.2,None,
P222.jpg,3051.jpg,2 Points,1 Point,,,,,,,,,,,,,,,,,0,48,48,48,,,,,,,,,,,k,2.6764790829911362,,,40,2024-12-10_11h40.46.505,EPIDM,2023.1.2,None,
6930.jpg,7031.jpg,1 Point,4 Points,,,,,,,,,,,,,,,,,0,49,49,49,,,,,,,,,,,j,7.14633375001722,,,40,2024-12-10_11h40.46.505,EPIDM,2023.1.2,None,
8200.jpg,2312.jpg,4 Points,1 Points,,,,,,,,,,,,,,,,,0,50,50,50,,,,,,,,,,,d,3.7018919170077424,,,40,2024-12-10_11h40.46.505,EPIDM,2023.1.2,None,
7025.jpg,9584.jpg,3 Points,2 Points,,,,,,,,,,,,,,,,,0,51,51,51,,,,,,,,,,,j,2.707308250013739,,,40,2024-12-10_11h40.46.505,EPIDM,2023.1.2,None,
1201.jpg,F365.jpg,3 Points,5 Points,,,,,,,,,,,,,,,,,0,52,52,52,,,,,,,,,,,l,1.2103542080149055,,,40,2024-12-10_11h40.46.505,EPIDM,2023.1.2,None,
3210.jpg,7130.jpg,1 Point,4 Points,,,,,,,,,,,,,,,,,0,53,53,53,,,,,,,,,,,s,1.7572501669928897,space,0.8734721670043655,40,2024-12-10_11h40.46.505,EPIDM,2023.1.2,None,
7195.jpg,2200.jpg,2 Points,1 Point,,,,,,,,,,,,,,,,,0,54,54,54,,,,,,,,,,,l,3.8006662910047453,,,40,2024-12-10_11h40.46.505,EPIDM,2023.1.2,None,
7224.jpg,9102.jpg,2 Points,3 Points,,,,,,,,,,,,,,,,,0,55,55,55,,,,,,,,,,,k,1.4905205420218408,,,40,2024-12-10_11h40.46.505,EPIDM,2023.1.2,None,
3100.jpg,3062.jpg,2 Points,3 Points,,,,,,,,,,,,,,,,,0,56,56,56,,,,,,,,,,,j,7.234705207985826,,,40,2024-12-10_11h40.46.505,EPIDM,2023.1.2,None,
5000.jpg,1603.jpg,4 Points,1 Points,,,,,,,,,,,,,,,,,0,57,57,57,,,,,,,,,,,j,2.116949208022561,,,40,2024-12-10_11h40.46.505,EPIDM,2023.1.2,None,
5982.jpg,5760.jpg,5 Points,1 Point,,,,,,,,,,,,,,,,,0,58,58,58,,,,,,,,,,,s,2.3729242910048924,,,40,2024-12-10_11h40.46.505,EPIDM,2023.1.2,None,
5890.jpg,5990.jpg,2 Points,3 Points,,,,,,,,,,,,,,,,,0,59,59,59,,,,,,,,,,,s,2.5323061660164967,,,40,2024-12-10_11h40.46.505,EPIDM,2023.1.2,None,
P019.jpg,6550.jpg,3 Points,5 Points,,,,,,,,,,,,,,,,,0,60,60,60,,,,,,,,,,,l,3.5387733330135234,,,40,2024-12-10_11h40.46.505,EPIDM,2023.1.2,None,
6350.jpg,1274.jpg,4 Points,1 Points,,,,,,,,,,,,,,,,,0,61,61,61,,,,,,,,,,,s,2.6054484999913257,,,40,2024-12-10_11h40.46.505,EPIDM,2023.1.2,None,
F032.jpg,9594.jpg,1 Point,4 Points,,,,,,,,,,,,,,,,,0,62,62,62,,,,,,,,,,,j,2.707673083001282,,,40,2024-12-10_11h40.46.505,EPIDM,2023.1.2,None,
7233.jpg,1850.jpg,0 Points,5 Points,,,,,,,,,,,,,,,,,0,63,63,63,,,,,,,,,,,j,2.002403916005278,,,40,2024-12-10_11h40.46.505,EPIDM,2023.1.2,None,
7580.jpg,7546.jpg,3 Points,2 Points,,,,,,,,,,,,,,,,,0,64,64,64,,,,,,,,,,,d,1.6071739990147762,,,40,2024-12-10_11h40.46.505,EPIDM,2023.1.2,None,
5200.jpg,5820.jpg,0 Points,5 Points,,,,,,,,,,,,,,,,,0,65,65,65,,,,,,,,,,,k,1.835856124991551,,,40,2024-12-10_11h40.46.505,EPIDM,2023.1.2,None,
7280.jpg,2560.jpg,0 Points,4 Points,,,,,,,,,,,,,,,,,0,66,66,66,,,,,,,,,,,j,4.7641761250270065,,,40,2024-12-10_11h40.46.505,EPIDM,2023.1.2,None,
5593.jpg,5600.jpg,0 Points,5 Points,,,,,,,,,,,,,,,,,0,67,67,67,,,,,,,,,,,k,2.429035291017499,,,40,2024-12-10_11h40.46.505,EPIDM,2023.1.2,None,
2141.jpg,9611.jpg,5 Points,3 Points,,,,,,,,,,,,,,,,,0,68,68,68,,,,,,,,,,,k,3.729220290988451,,,40,2024-12-10_11h40.46.505,EPIDM,2023.1.2,None,
9190.jpg,7110.jpg,0 Points,5 Points,,,,,,,,,,,,,,,,,0,69,69,69,,,,,,,,,,,d,3.1101664579764474,space,71.94545679099974,40,2024-12-10_11h40.46.505,EPIDM,2023.1.2,None,
1240.jpg,6300.jpg,3 Points,2 Points,,,,,,,,,,,,,,,,,0,70,70,70,,,,,,,,,,,k,7.676487332995748,,,40,2024-12-10_11h40.46.505,EPIDM,2023.1.2,None,
5900.jpg,2190.jpg,3 Points,2 Points,,,,,,,,,,,,,,,,,0,71,71,71,,,,,,,,,,,k,2.66106666700216,,,40,2024-12-10_11h40.46.505,EPIDM,2023.1.2,None,
2580.jpg,2575.jpg,3 Points,2 Points,,,,,,,,,,,,,,,,,0,72,72,72,,,,,,,,,,,d,1.809394958021585,,,40,2024-12-10_11h40.46.505,EPIDM,2023.1.2,None,
2749.jpg,5849.jpg,3 Points,2 Points,,,,,,,,,,,,,,,,,0,73,73,73,,,,,,,,,,,j,3.841675292002037,,,40,2024-12-10_11h40.46.505,EPIDM,2023.1.2,None,
2260.jpg,2681.jpg,5 Points,3 Points,,,,,,,,,,,,,,,,,0,74,74,74,,,,,,,,,,,j,1.584101999993436,,,40,2024-12-10_11h40.46.505,EPIDM,2023.1.2,None,
5629.jpg,5870.jpg,0 Points,5 Points,,,,,,,,,,,,,,,,,0,75,75,75,,,,,,,,,,,s,3.191845833003754,,,40,2024-12-10_11h40.46.505,EPIDM,2023.1.2,None,
3061.jpg,3015.jpg,4 Points,5 Points,,,,,,,,,,,,,,,,,0,76,76,76,,,,,,,,,,,j,7.806817582983058,,,40,2024-12-10_11h40.46.505,EPIDM,2023.1.2,None,
7350.jpg,7286.jpg,0 Points,5 Points,,,,,,,,,,,,,,,,,0,77,77,77,,,,,,,,,,,k,3.2932539159955923,,,40,2024-12-10_11h40.46.505,EPIDM,2023.1.2,None,
4100.jpg,4605.jpg,3 Points,4 Points,,,,,,,,,,,,,,,,,0,78,78,78,,,,,,,,,,,l,3.7522677920060232,,,40,2024-12-10_11h40.46.505,EPIDM,2023.1.2,None,
7035.jpg,4660.jpg,1 Points,4 Points,,,,,,,,,,,,,,,,,0,79,79,79,,,,,,,,,,,l,1.9249281249940395,,,40,2024-12-10_11h40.46.505,EPIDM,2023.1.2,None,
8210.jpg,8330.jpg,3 Points,0 Points,,,,,,,,,,,,,,,,,0,80,80,80,,,,,,,,,,,s,6.42632104101358,,,40,2024-12-10_11h40.46.505,EPIDM,2023.1.2,None,
4510.jpg,F252.jpg,5 Points,0 Points,,,,,,,,,,,,,,,,,0,81,81,81,,,,,,,,,,,j,3.7262160410173237,,,40,2024-12-10_11h40.46.505,EPIDM,2023.1.2,None,
1220.jpg,2692.jpg,1 Point,4 Points,,,,,,,,,,,,,,,,,0,82,82,82,,,,,,,,,,,j,1.7735799170040991,,,40,2024-12-10_11h40.46.505,EPIDM,2023.1.2,None,
5720.jpg,2383.jpg,3 Points,2 Points,,,,,,,,,,,,,,,,,0,83,83,83,,,,,,,,,,,j,3.9283557910239324,,,40,2024-12-10_11h40.46.505,EPIDM,2023.1.2,None,
3170.jpg,6570.1.jpg,2 Points,5 Points,,,,,,,,,,,,,,,,,0,84,84,84,,,,,,,,,,,k,5.4676691250060685,,,40,2024-12-10_11h40.46.505,EPIDM,2023.1.2,None,
1310.jpg,9913.jpg,4 Points,1 Points,,,,,,,,,,,,,,,,,0,85,85,85,,,,,,,,,,,d,3.2446925830154214,space,25.329765667003812,40,2024-12-10_11h40.46.505,EPIDM,2023.1.2,None,
5471.jpg,2240.jpg,2 Points,5 Points,,,,,,,,,,,,,,,,,0,86,86,86,,,,,,,,,,,j,4.749819874006789,,,40,2024-12-10_11h40.46.505,EPIDM,2023.1.2,None,
2683.jpg,6010.jpg,3 Points,2 Points,,,,,,,,,,,,,,,,,0,87,87,87,,,,,,,,,,,j,6.914095541986171,,,40,2024-12-10_11h40.46.505,EPIDM,2023.1.2,None,
4531.jpg,5534.jpg,5 Points,3 Points,,,,,,,,,,,,,,,,,0,88,88,88,,,,,,,,,,,k,2.115620167023735,,,40,2024-12-10_11h40.46.505,EPIDM,2023.1.2,None,
8090.jpg,5831.jpg,2 Points,3 Points,,,,,,,,,,,,,,,,,0,89,89,89,,,,,,,,,,,s,3.781376500002807,,,40,2024-12-10_11h40.46.505,EPIDM,2023.1.2,None,
9007.jpg,2900.jpg,0 Points,3 Points,,,,,,,,,,,,,,,,,0,90,90,90,,,,,,,,,,,d,4.829242624982726,,,40,2024-12-10_11h40.46.505,EPIDM,2023.1.2,None,
7034.jpg,9140.jpg,2 Points,3 Points,,,,,,,,,,,,,,,,,0,91,91,91,,,,,,,,,,,j,3.4219217080099043,,,40,2024-12-10_11h40.46.505,EPIDM,2023.1.2,None,
3130.jpg,6312.jpg,4 Points,2 Points,,,,,,,,,,,,,,,,,0,92,92,92,,,,,,,,,,,s,3.7460991249827202,,,40,2024-12-10_11h40.46.505,EPIDM,2023.1.2,None,
6561.jpg,7211.jpg,2 Points,3 Points,,,,,,,,,,,,,,,,,0,93,93,93,,,,,,,,,,,s,2.068765666015679,,,40,2024-12-10_11h40.46.505,EPIDM,2023.1.2,None,
8350.jpg,9008.jpg,5 Points,1 Point,,,,,,,,,,,,,,,,,0,94,94,94,,,,,,,,,,,s,1.7318620000150986,,,40,2024-12-10_11h40.46.505,EPIDM,2023.1.2,None,
2500.jpg,8010.jpg,5 Points,0 Points,,,,,,,,,,,,,,,,,0,95,95,95,,,,,,,,,,,k,0.9822197079774924,,,40,2024-12-10_11h40.46.505,EPIDM,2023.1.2,None,
9404.jpg,6212.jpg,5 Points,4 Points,,,,,,,,,,,,,,,,,0,96,96,96,,,,,,,,,,,l,1.9202862500096671,,,40,2024-12-10_11h40.46.505,EPIDM,2023.1.2,None,
5994.jpg,5700.jpg,0 Points,5 Points,,,,,,,,,,,,,,,,,0,97,97,97,,,,,,,,,,,s,6.7757335000205785,,,40,2024-12-10_11h40.46.505,EPIDM,2023.1.2,None,
5500.jpg,5520.jpg,3 Points,2 Points,,,,,,,,,,,,,,,,,0,98,98,98,,,,,,,,,,,d,2.5913432910165284,,,40,2024-12-10_11h40.46.505,EPIDM,2023.1.2,None,
7545.jpg,7320.jpg,5 Points,0 Points,,,,,,,,,,,,,,,,,0,99,99,99,,,,,,,,,,,d,3.3121949580090586,,,40,2024-12-10_11h40.46.505,EPIDM,2023.1.2,None,
2220.jpg,2210.jpg,5 Points,0 Points,,,,,,,,,,,,,,,,,0,100,100,100,,,,,,,,,,,s,4.020932792016538,,,40,2024-12-10_11h40.46.505,EPIDM,2023.1.2,None,
9452.jpg,9700.jpg,4 Points,1 Points,,,,,,,,,,,,,,,,,0,101,101,101,,,,,,,,,,,s,1.87408912499086,space,1.038015500002075,40,2024-12-10_11h40.46.505,EPIDM,2023.1.2,None,
1390.jpg,A025.jpg,2 Points,0 Points,,,,,,,,,,,,,,,,,0,102,102,102,,,,,,,,,,,k,7.289095415995689,,,40,2024-12-10_11h40.46.505,EPIDM,2023.1.2,None,
7182.jpg,7620.jpg,4 Points,1 Point,,,,,,,,,,,,,,,,,0,103,103,103,,,,,,,,,,,k,2.318955791008193,,,40,2024-12-10_11h40.46.505,EPIDM,2023.1.2,None,
4608.jpg,5510.jpg,1 Point,5 Points,,,,,,,,,,,,,,,,,0,104,104,104,,,,,,,,,,,k,3.4441565409942996,,,40,2024-12-10_11h40.46.505,EPIDM,2023.1.2,None,
2620.jpg,5470.jpg,0 Points,5 Points,,,,,,,,,,,,,,,,,0,105,105,105,,,,,,,,,,,j,2.320918040990364,,,40,2024-12-10_11h40.46.505,EPIDM,2023.1.2,None,
6242.jpg,3530.jpg,4 Points,1 Point,,,,,,,,,,,,,,,,,0,106,106,106,,,,,,,,,,,k,11.894936665979913,,,40,2024-12-10_11h40.46.505,EPIDM,2023.1.2,None,
5731.jpg,2480.jpg,4 Points,1 Point,,,,,,,,,,,,,,,,,0,107,107,107,,,,,,,,,,,s,3.5939766250085086,,,40,2024-12-10_11h40.46.505,EPIDM,2023.1.2,None,
1650.jpg,8510.jpg,1 Points,4 Points,,,,,,,,,,,,,,,,,0,108,108,108,,,,,,,,,,,k,4.498466541990638,,,40,2024-12-10_11h40.46.505,EPIDM,2023.1.2,None,
4770.jpg,5920.jpg,3 Points,2 Points,,,,,,,,,,,,,,,,,0,109,109,109,,,,,,,,,,,s,2.2465468739974312,,,40,2024-12-10_11h40.46.505,EPIDM,2023.1.2,None,
8220.jpg,4689.jpg,4 Points,5 Points,,,,,,,,,,,,,,,,,0,110,110,110,,,,,,,,,,,k,4.020586708007613,,,40,2024-12-10_11h40.46.505,EPIDM,2023.1.2,None,
7040.jpg,P077.jpg,4 Points,1 Point,,,,,,,,,,,,,,,,,0,111,111,111,,,,,,,,,,,k,2.8570676670060493,,,40,2024-12-10_11h40.46.505,EPIDM,2023.1.2,None,
6510.jpg,3120.jpg,2 Points,5 Points,,,,,,,,,,,,,,,,,0,112,112,112,,,,,,,,,,,l,1.4817843749769963,,,40,2024-12-10_11h40.46.505,EPIDM,2023.1.2,None,
3060.jpg,7217.jpg,1 Point,4 Points,,,,,,,,,,,,,,,,,0,113,113,113,,,,,,,,,,,a,1.141616999026155,,,40,2024-12-10_11h40.46.505,EPIDM,2023.1.2,None,
3064.jpg,9420.jpg,4 Points,2 Points,,,,,,,,,,,,,,,,,0,114,114,114,,,,,,,,,,,s,5.6038594160054345,,,40,2024-12-10_11h40.46.505,EPIDM,2023.1.2,None,
7207.jpg,2320.jpg,1 Points,4 Points,,,,,,,,,,,,,,,,,0,115,115,115,,,,,,,,,,,k,1.8911500830145087,,,40,2024-12-10_11h40.46.505,EPIDM,2023.1.2,None,
5531.jpg,1720.jpg,3 Points,4 Points,,,,,,,,,,,,,,,,,0,116,116,116,,,,,,,,,,,l,2.0017815830069594,,,40,2024-12-10_11h40.46.505,EPIDM,2023.1.2,None,
9300.jpg,7030.jpg,4 Points,1 Points,,,,,,,,,,,,,,,,,0,117,117,117,,,,,,,,,,,a,0.9427918330184184,space,1.0945158329850528,40,2024-12-10_11h40.46.505,EPIDM,2023.1.2,None,
2020.jpg,4535.jpg,5 Points,1 Point,,,,,,,,,,,,,,,,,0,118,118,118,,,,,,,,,,,s,6.60512641700916,,,40,2024-12-10_11h40.46.505,EPIDM,2023.1.2,None,
7020.jpg,6150.jpg,5 Points,0 Points,,,,,,,,,,,,,,,,,0,119,119,119,,,,,,,,,,,j,4.3107468750094995,,,40,2024-12-10_11h40.46.505,EPIDM,2023.1.2,None,
9042.jpg,P217.jpg,0 Points,5 Points,,,,,,,,,,,,,,,,,0,120,120,120,,,,,,,,,,,k,3.7627830829878803,,,40,2024-12-10_11h40.46.505,EPIDM,2023.1.2,None,
3160.jpg,7080.jpg,1 Point,4 Points,,,,,,,,,,,,,,,,,0,121,121,121,,,,,,,,,,,s,2.2226046239957213,,,40,2024-12-10_11h40.46.505,EPIDM,2023.1.2,None,
7260.jpg,8280.jpg,5 Points,3 Points,,,,,,,,,,,,,,,,,0,122,122,122,,,,,,,,,,,k,4.499345624004491,,,40,2024-12-10_11h40.46.505,EPIDM,2023.1.2,None,
5740.jpg,7205.jpg,0 Points,5 Points,,,,,,,,,,,,,,,,,0,123,123,123,,,,,,,,,,,s,1.4508250000071712,,,40,2024-12-10_11h40.46.505,EPIDM,2023.1.2,None,
2840.jpg,8040.jpg,2 Points,1 Point,,,,,,,,,,,,,,,,,0,124,124,124,,,,,,,,,,,d,6.040051040996332,,,40,2024-12-10_11h40.46.505,EPIDM,2023.1.2,None,
5410.jpg,5530.jpg,5 Points,0 Points,,,,,,,,,,,,,,,,,0,125,125,125,,,,,,,,,,,k,1.4239564170129597,,,40,2024-12-10_11h40.46.505,EPIDM,2023.1.2,None,
2276.jpg,1930.jpg,3 Points,1 Point,,,,,,,,,,,,,,,,,0,126,126,126,,,,,,,,,,,d,3.88417737398413,,,40,2024-12-10_11h40.46.505,EPIDM,2023.1.2,None,
5628.jpg,5660.jpg,5 Points,0 Points,,,,,,,,,,,,,,,,,0,127,127,127,,,,,,,,,,,d,7.835679957992397,,,40,2024-12-10_11h40.46.505,EPIDM,2023.1.2,None,
4250.jpg,2499.jpg,5 Points,3 Points,,,,,,,,,,,,,,,,,0,128,128,128,,,,,,,,,,,s,3.680715540976962,,,40,2024-12-10_11h40.46.505,EPIDM,2023.1.2,None,
2215.jpg,7050.jpg,1 Point,4 Points,,,,,,,,,,,,,,,,,0,129,129,129,,,,,,,,,,,d,2.9734117919870187,,,40,2024-12-10_11h40.46.505,EPIDM,2023.1.2,None,
3550.jpg,3280.jpg,2 Points,0 Points,,,,,,,,,,,,,,,,,0,130,130,130,,,,,,,,,,,s,2.683576208015438,,,40,2024-12-10_11h40.46.505,EPIDM,2023.1.2,None,
5910.jpg,5800.jpg,5 Points,0 Points,,,,,,,,,,,,,,,,,0,131,131,131,,,,,,,,,,,k,6.445305000001099,,,40,2024-12-10_11h40.46.505,EPIDM,2023.1.2,None,
9592.jpg,3000.jpg,2 Points,5 Points,,,,,,,,,,,,,,,,,0,132,132,132,,,,,,,,,,,l,1.1077297079900745,,,40,2024-12-10_11h40.46.505,EPIDM,2023.1.2,None,
4233.jpg,5875.jpg,5 Points,0 Points,,,,,,,,,,,,,,,,,0,133,133,133,,,,,,,,,,,s,1.8919926239759661,space,1.257050498999888,40,2024-12-10_11h40.46.505,EPIDM,2023.1.2,None,
2270.jpg,1303.jpg,2 Points,0 Points,,,,,,,,,,,,,,,,,0,134,134,134,,,,,,,,,,,d,4.590208583016647,,,40,2024-12-10_11h40.46.505,EPIDM,2023.1.2,None,
9600.jpg,2691.jpg,5 Points,0 Points,,,,,,,,,,,,,,,,,0,135,135,135,,,,,,,,,,,k,1.7501537080097478,,,40,2024-12-10_11h40.46.505,EPIDM,2023.1.2,None,
5130.jpg,2616.jpg,3 Points,4 Points,,,,,,,,,,,,,,,,,0,136,136,136,,,,,,,,,,,d,2.746300375001738,,,40,2024-12-10_11h40.46.505,EPIDM,2023.1.2,None,
9046.jpg,9630.jpg,3 Points,2 Points,,,,,,,,,,,,,,,,,0,137,137,137,,,,,,,,,,,s,1.431177165999543,,,40,2024-12-10_11h40.46.505,EPIDM,2023.1.2,None,
9560.jpg,1302.jpg,1 Point,3 Points,,,,,,,,,,,,,,,,,0,138,138,138,,,,,,,,,,,d,5.406728916015709,,,40,2024-12-10_11h40.46.505,EPIDM,2023.1.2,None,
7000.jpg,1661.jpg,2 Points,3 Points,,,,,,,,,,,,,,,,,0,139,139,139,,,,,,,,,,,k,2.9850609580171295,,,40,2024-12-10_11h40.46.505,EPIDM,2023.1.2,None,
9331.jpg,3150.jpg,2 Points,1 Point,,,,,,,,,,,,,,,,,0,140,140,140,,,,,,,,,,,l,1.2937852909963112,,,40,2024-12-10_11h40.46.505,EPIDM,2023.1.2,None,
9400.jpg,9810.jpg,3 Points,2 Points,,,,,,,,,,,,,,,,,0,141,141,141,,,,,,,,,,,s,1.973919250012841,,,40,2024-12-10_11h40.46.505,EPIDM,2023.1.2,None,
8033.jpg,4534.jpg,3 Points,0 Points,,,,,,,,,,,,,,,,,0,142,142,142,,,,,,,,,,,s,1.9358937079960015,,,40,2024-12-10_11h40.46.505,EPIDM,2023.1.2,None,
7502.jpg,9230.jpg,5 Points,0 Points,,,,,,,,,,,,,,,,,0,143,143,143,,,,,,,,,,,s,6.607778125006007,,,40,2024-12-10_11h40.46.505,EPIDM,2023.1.2,None,
7175.jpg,8021.jpg,2 Points,4 Points,,,,,,,,,,,,,,,,,0,144,144,144,,,,,,,,,,,l,2.5436795000277925,,,40,2024-12-10_11h40.46.505,EPIDM,2023.1.2,None,
9390.jpg,9424.jpg,1 Point,4 Points,,,,,,,,,,,,,,,,,0,145,145,145,,,,,,,,,,,k,5.163475749024656,,,40,2024-12-10_11h40.46.505,EPIDM,2023.1.2,None,
8230.jpg,2710.jpg,5 Points,1 Point,,,,,,,,,,,,,,,,,0,146,146,146,,,,,,,,,,,s,2.7340393739868887,,,40,2024-12-10_11h40.46.505,EPIDM,2023.1.2,None,
7235.jpg,7186.jpg,3 Points,2 Points,,,,,,,,,,,,,,,,,0,147,147,147,,,,,,,,,,,d,2.1219255829928443,,,40,2024-12-10_11h40.46.505,EPIDM,2023.1.2,None,
2440.jpg,7950.jpg,4 Points,1 Point,,,,,,,,,,,,,,,,,0,148,148,148,,,,,,,,,,,s,2.3522520829865243,,,40,2024-12-10_11h40.46.505,EPIDM,2023.1.2,None,
9001.jpg,1230.jpg,1 Point,4 Points,,,,,,,,,,,,,,,,,0,149,149,149,,,,,,,,,,,j,5.559514041990042,space,4.3053896670171525,40,2024-12-10_11h40.46.505,EPIDM,2023.1.2,None,
2393.jpg,1280.jpg,0 Points,2 Points,,,,,,,,,,,,,,,,,0,150,150,150,,,,,,,,,,,s,4.980746790999547,,,40,2024-12-10_11h40.46.505,EPIDM,2023.1.2,None,
2716.jpg,3250.jpg,2 Points,3 Points,,,,,,,,,,,,,,,,,0,151,151,151,,,,,,,,,,,k,1.5702025830105413,,,40,2024-12-10_11h40.46.505,EPIDM,2023.1.2,None,
1301.jpg,3063.jpg,2 Points,5 Points,,,,,,,,,,,,,,,,,0,152,152,152,,,,,,,,,,,l,0.9282800410001073,,,40,2024-12-10_11h40.46.505,EPIDM,2023.1.2,None,
3053.jpg,7550.jpg,4 Points,1 Points,,,,,,,,,,,,,,,,,0,153,153,153,,,,,,,,,,,a,0.6428936659940518,,,40,2024-12-10_11h40.46.505,EPIDM,2023.1.2,None,
4613.jpg,F203.jpg,4 Points,0 Points,,,,,,,,,,,,,,,,,0,154,154,154,,,,,,,,,,,a,1.5799502920126542,,,40,2024-12-10_11h40.46.505,EPIDM,2023.1.2,None,
5991.jpg,5594.jpg,0 Points,5 Points,,,,,,,,,,,,,,,,,0,155,155,155,,,,,,,,,,,s,5.625960458011832,,,40,2024-12-10_11h40.46.505,EPIDM,2023.1.2,None,
3010.jpg,9520.jpg,5 Points,3 Points,,,,,,,,,,,,,,,,,0,156,156,156,,,,,,,,,,,a,0.5893802079954185,,,40,2024-12-10_11h40.46.505,EPIDM,2023.1.2,None,
8531.jpg,7095.jpg,4 Points,1 Points,,,,,,,,,,,,,,,,,0,157,157,157,,,,,,,,,,,s,2.3267067080014385,,,40,2024-12-10_11h40.46.505,EPIDM,2023.1.2,None,
2516.jpg,7820.jpg,4 Points,0 Points,,,,,,,,,,,,,,,,,0,158,158,158,,,,,,,,,,,s,1.7046895829844289,,,40,2024-12-10_11h40.46.505,EPIDM,2023.1.2,None,
7004.jpg,2120.jpg,5 Points,0 Points,,,,,,,,,,,,,,,,,0,159,159,159,,,,,,,,,,,k,3.1104117080103606,,,40,2024-12-10_11h40.46.505,EPIDM,2023.1.2,None,
