L_Scene,R_Scene,L_Pts,R_Pts,Instructions_Loop.thisRepN,Instructions_Loop.thisTrialN,Instructions_Loop.thisN,Instructions_Loop.thisIndex,Redo_Instructions_Loop.thisRepN,Redo_Instructions_Loop.thisTrialN,Redo_Instructions_Loop.thisN,Redo_Instructions_Loop.thisIndex,Practice_Recognition_Loop.thisRepN,Practice_Recognition_Loop.thisTrialN,Practice_Recognition_Loop.thisN,Practice_Recognition_Loop.thisIndex,Practice_FB_Loop.thisRepN,Practice_FB_Loop.thisTrialN,Practice_FB_Loop.thisN,Practice_FB_Loop.thisIndex,RecStim_Loop.thisRepN,RecStim_Loop.thisTrialN,RecStim_Loop.thisN,RecStim_Loop.thisIndex,FB_Loop.thisRepN,FB_Loop.thisTrialN,FB_Loop.thisN,FB_Loop.thisIndex,RecBrk_Loop.thisRepN,RecBrk_Loop.thisTrialN,RecBrk_Loop.thisN,RecBrk_Loop.thisIndex,Transition_Enc.keys,Transition_Enc.rt,Encoding_Resp.keys,Encoding_Resp.rt,EncBrk_Resp.keys,EncBrk_Resp.rt,participant,date,expName,psychopyVersion,frameRate,
,,,,,,,,,,,,,,,,,,,,,,,,,,,,,,,,space,6.373172541992972,,,,,42,2024-12-13_09h22.28.856,EPIDM,2023.1.2,None,
F078.jpg,L130.jpg,,,,,,,,,,,0,0,0,0,,,,,,,,,,,,,,,,,,,k,8.253169542003889,,,42,2024-12-13_09h22.28.856,EPIDM,2023.1.2,None,
P036.jpg,P217.jpg,,,,,,,,,,,0,1,1,1,,,,,,,,,,,,,,,,,,,k,7.302127417002339,,,42,2024-12-13_09h22.28.856,EPIDM,2023.1.2,None,
O161.jpg,F218.jpg,,,,,,,,,,,0,2,2,2,,,,,,,,,,,,,,,,,,,a,6.8626787920075,,,42,2024-12-13_09h22.28.856,EPIDM,2023.1.2,None,
F279.jpg,A001.jpg,,,,,,,,,,,0,3,3,3,,,,,,,,,,,,,,,,,,,l,9.24291991701466,,,42,2024-12-13_09h22.28.856,EPIDM,2023.1.2,None,
F273.jpg,A060.jpg,,,,,,,,,,,0,4,4,4,,,,,,,,,,,,,,,,,,,k,6.872643166978378,,,42,2024-12-13_09h22.28.856,EPIDM,2023.1.2,None,
2393.jpg,L055.jpg,,,,,,,,,,,0,5,5,5,,,,,,,,,,,,,,,,,,,k,2.760210833977908,,,42,2024-12-13_09h22.28.856,EPIDM,2023.1.2,None,
1812.jpg,2593.jpg,,,,,,,,,,,0,6,6,6,,,,,,,,,,,,,,,,,,,k,1.2881769170053303,,,42,2024-12-13_09h22.28.856,EPIDM,2023.1.2,None,
O013.jpg,A067.jpg,,,,,,,,,,,0,7,7,7,,,,,,,,,,,,,,,,,,,a,2.4443732920044567,,,42,2024-12-13_09h22.28.856,EPIDM,2023.1.2,None,
P033.jpg,P034.jpg,,,,,,,,,,,0,8,8,8,,,,,,,,,,,,,,,,,,,l,1.52830033400096,,,42,2024-12-13_09h22.28.856,EPIDM,2023.1.2,None,
A104.jpg,8186.jpg,,,,,,,,,,,0,9,9,9,,,,,,,,,,,,,,,,,,,l,0.376827833999414,,,42,2024-12-13_09h22.28.856,EPIDM,2023.1.2,None,
,,,,,,,,,,,,,,,,,,,,,,,,,,,,,,,,space,11.684476416994585,,,,,42,2024-12-13_09h22.28.856,EPIDM,2023.1.2,None,
2271.jpg,6250.2.jpg,2 Points,3 Points,,,,,,,,,,,,,,,,,0,0,0,0,,,,,,,,,,,l,3.1142810419842135,,,42,2024-12-13_09h22.28.856,EPIDM,2023.1.2,None,
4500.jpg,5532.jpg,3 Points,2 Points,,,,,,,,,,,,,,,,,0,1,1,1,,,,,,,,,,,l,2.1396975420066155,,,42,2024-12-13_09h22.28.856,EPIDM,2023.1.2,None,
6360.jpg,9120.jpg,1 Point,5 Points,,,,,,,,,,,,,,,,,0,2,2,2,,,,,,,,,,,k,8.661787124990951,,,42,2024-12-13_09h22.28.856,EPIDM,2023.1.2,None,
9921.jpg,6370.jpg,1 Points,4 Points,,,,,,,,,,,,,,,,,0,3,3,3,,,,,,,,,,,l,2.783893875981448,,,42,2024-12-13_09h22.28.856,EPIDM,2023.1.2,None,
5455.jpg,7570.jpg,0 Points,5 Points,,,,,,,,,,,,,,,,,0,4,4,4,,,,,,,,,,,j,5.034260916989297,,,42,2024-12-13_09h22.28.856,EPIDM,2023.1.2,None,
1942.jpg,2515.jpg,1 Points,4 Points,,,,,,,,,,,,,,,,,0,5,5,5,,,,,,,,,,,a,5.851297416986199,space,2.1303477920009755,42,2024-12-13_09h22.28.856,EPIDM,2023.1.2,None,
9912.jpg,2750.jpg,5 Points,4 Points,,,,,,,,,,,,,,,,,0,6,6,6,,,,,,,,,,,s,11.345994584000437,,,42,2024-12-13_09h22.28.856,EPIDM,2023.1.2,None,
7500.jpg,2751.jpg,2 Points,3 Points,,,,,,,,,,,,,,,,,0,7,7,7,,,,,,,,,,,k,2.785869458981324,,,42,2024-12-13_09h22.28.856,EPIDM,2023.1.2,None,
9250.jpg,3080.jpg,0 Points,1 Points,,,,,,,,,,,,,,,,,0,8,8,8,,,,,,,,,,,s,6.833284624997759,,,42,2024-12-13_09h22.28.856,EPIDM,2023.1.2,None,
9220.jpg,7560.jpg,1 Point,4 Points,,,,,,,,,,,,,,,,,0,9,9,9,,,,,,,,,,,d,8.903940582997166,,,42,2024-12-13_09h22.28.856,EPIDM,2023.1.2,None,
2381.jpg,8250.jpg,1 Point,4 Points,,,,,,,,,,,,,,,,,0,10,10,10,,,,,,,,,,,s,5.1921684999833815,,,42,2024-12-13_09h22.28.856,EPIDM,2023.1.2,None,
1932.jpg,2053.jpg,1 Points,4 Points,,,,,,,,,,,,,,,,,0,11,11,11,,,,,,,,,,,j,15.713444874971174,,,42,2024-12-13_09h22.28.856,EPIDM,2023.1.2,None,
6836.jpg,9411.jpg,4 Points,0 Points,,,,,,,,,,,,,,,,,0,12,12,12,,,,,,,,,,,s,5.989192209002795,,,42,2024-12-13_09h22.28.856,EPIDM,2023.1.2,None,
9253.jpg,5450.jpg,0 Points,5 Points,,,,,,,,,,,,,,,,,0,13,13,13,,,,,,,,,,,k,8.356614874996012,,,42,2024-12-13_09h22.28.856,EPIDM,2023.1.2,None,
1540.jpg,1560.jpg,1 Point,0 Points,,,,,,,,,,,,,,,,,0,14,14,14,,,,,,,,,,,l,3.500432999979239,,,42,2024-12-13_09h22.28.856,EPIDM,2023.1.2,None,
7006.jpg,9622.jpg,3 Points,2 Points,,,,,,,,,,,,,,,,,0,15,15,15,,,,,,,,,,,d,6.313067292008782,,,42,2024-12-13_09h22.28.856,EPIDM,2023.1.2,None,
1670.jpg,8160.jpg,3 Points,2 Points,,,,,,,,,,,,,,,,,0,16,16,16,,,,,,,,,,,s,26.337667666986817,,,42,2024-12-13_09h22.28.856,EPIDM,2023.1.2,None,
9156.jpg,7495.jpg,4 Points,1 Points,,,,,,,,,,,,,,,,,0,17,17,17,,,,,,,,,,,s,7.076146250998136,,,42,2024-12-13_09h22.28.856,EPIDM,2023.1.2,None,
9340.jpg,1200.jpg,0 Points,4 Points,,,,,,,,,,,,,,,,,0,18,18,18,,,,,,,,,,,l,7.866069001000142,,,42,2024-12-13_09h22.28.856,EPIDM,2023.1.2,None,
7096.jpg,1040.jpg,5 Points,0 Points,,,,,,,,,,,,,,,,,0,19,19,19,,,,,,,,,,,l,2.737739333999343,,,42,2024-12-13_09h22.28.856,EPIDM,2023.1.2,None,
6940.jpg,9561.jpg,2 Points,3 Points,,,,,,,,,,,,,,,,,0,20,20,20,,,,,,,,,,,s,13.654352541983826,,,42,2024-12-13_09h22.28.856,EPIDM,2023.1.2,None,
1112.jpg,6415.jpg,3 Points,2 Points,,,,,,,,,,,,,,,,,0,21,21,21,,,,,,,,,,,s,9.213358209002763,space,1.3881942089938093,42,2024-12-13_09h22.28.856,EPIDM,2023.1.2,None,
1740.jpg,4533.jpg,0 Points,3 Points,,,,,,,,,,,,,,,,,0,22,22,22,,,,,,,,,,,l,4.875545833987417,,,42,2024-12-13_09h22.28.856,EPIDM,2023.1.2,None,
7183.jpg,9800.jpg,4 Points,1 Point,,,,,,,,,,,,,,,,,0,23,23,23,,,,,,,,,,,a,10.654340833978495,,,42,2024-12-13_09h22.28.856,EPIDM,2023.1.2,None,
9490.jpg,9254.jpg,1 Point,2 Points,,,,,,,,,,,,,,,,,0,24,24,24,,,,,,,,,,,a,3.528789500996936,,,42,2024-12-13_09h22.28.856,EPIDM,2023.1.2,None,
4532.jpg,7150.jpg,3 Points,2 Points,,,,,,,,,,,,,,,,,0,25,25,25,,,,,,,,,,,s,5.347680292004952,,,42,2024-12-13_09h22.28.856,EPIDM,2023.1.2,None,
2352.2.jpg,6530.jpg,0 Points,1 Point,,,,,,,,,,,,,,,,,0,26,26,26,,,,,,,,,,,l,8.885855959000764,,,42,2024-12-13_09h22.28.856,EPIDM,2023.1.2,None,
3069.jpg,O022.jpg,3 Points,2 Points,,,,,,,,,,,,,,,,,0,27,27,27,,,,,,,,,,,l,5.546346499992069,,,42,2024-12-13_09h22.28.856,EPIDM,2023.1.2,None,
8400.jpg,2590.jpg,1 Point,4 Points,,,,,,,,,,,,,,,,,0,28,28,28,,,,,,,,,,,d,7.688614999991842,,,42,2024-12-13_09h22.28.856,EPIDM,2023.1.2,None,
2880.jpg,7281.jpg,5 Points,0 Points,,,,,,,,,,,,,,,,,0,29,29,29,,,,,,,,,,,a,21.409077541989973,,,42,2024-12-13_09h22.28.856,EPIDM,2023.1.2,None,
8311.jpg,1900.jpg,2 Points,4 Points,,,,,,,,,,,,,,,,,0,30,30,30,,,,,,,,,,,k,4.773347751004621,,,42,2024-12-13_09h22.28.856,EPIDM,2023.1.2,None,
7010.jpg,1120.jpg,2 Points,3 Points,,,,,,,,,,,,,,,,,0,31,31,31,,,,,,,,,,,l,3.714533084013965,,,42,2024-12-13_09h22.28.856,EPIDM,2023.1.2,None,
3300.jpg,9000.jpg,0 Points,4 Points,,,,,,,,,,,,,,,,,0,32,32,32,,,,,,,,,,,k,12.103440916980617,,,42,2024-12-13_09h22.28.856,EPIDM,2023.1.2,None,
6610.jpg,9911.jpg,0 Points,5 Points,,,,,,,,,,,,,,,,,0,33,33,33,,,,,,,,,,,a,4.903283958992688,,,42,2024-12-13_09h22.28.856,EPIDM,2023.1.2,None,
2752.jpg,7360.jpg,2 Points,1 Point,,,,,,,,,,,,,,,,,0,34,34,34,,,,,,,,,,,s,16.810104500007583,,,42,2024-12-13_09h22.28.856,EPIDM,2023.1.2,None,
7090.jpg,2690.jpg,4 Points,1 Point,,,,,,,,,,,,,,,,,0,35,35,35,,,,,,,,,,,l,2.720262751012342,,,42,2024-12-13_09h22.28.856,EPIDM,2023.1.2,None,
4279.jpg,2030.jpg,5 Points,0 Points,,,,,,,,,,,,,,,,,0,36,36,36,,,,,,,,,,,a,3.1862898750114255,,,42,2024-12-13_09h22.28.856,EPIDM,2023.1.2,None,
9920.jpg,5950.jpg,5 Points,0 Points,,,,,,,,,,,,,,,,,0,37,37,37,,,,,,,,,,,a,11.634402458003024,space,1.027642917004414,42,2024-12-13_09h22.28.856,EPIDM,2023.1.2,None,
9571.jpg,2800.jpg,2 Points,4 Points,,,,,,,,,,,,,,,,,0,38,38,38,,,,,,,,,,,l,2.403989749989705,,,42,2024-12-13_09h22.28.856,EPIDM,2023.1.2,None,
5626.jpg,7234.jpg,2 Points,3 Points,,,,,,,,,,,,,,,,,0,39,39,39,,,,,,,,,,,a,7.001904459000798,,,42,2024-12-13_09h22.28.856,EPIDM,2023.1.2,None,
6244.jpg,9041.jpg,0 Points,4 Points,,,,,,,,,,,,,,,,,0,40,40,40,,,,,,,,,,,k,7.135430416994495,,,42,2024-12-13_09h22.28.856,EPIDM,2023.1.2,None,
6250.1.jpg,7705.jpg,0 Points,5 Points,,,,,,,,,,,,,,,,,0,41,41,41,,,,,,,,,,,a,7.7824132919777185,,,42,2024-12-13_09h22.28.856,EPIDM,2023.1.2,None,
4536.jpg,2170.jpg,4 Points,2 Points,,,,,,,,,,,,,,,,,0,42,42,42,,,,,,,,,,,s,4.034422458993504,,,42,2024-12-13_09h22.28.856,EPIDM,2023.1.2,None,
7140.jpg,2702.jpg,0 Points,5 Points,,,,,,,,,,,,,,,,,0,43,43,43,,,,,,,,,,,l,3.5435719169909135,,,42,2024-12-13_09h22.28.856,EPIDM,2023.1.2,None,
2870.jpg,2520.jpg,5 Points,2 Points,,,,,,,,,,,,,,,,,0,44,44,44,,,,,,,,,,,a,3.917137376003666,,,42,2024-12-13_09h22.28.856,EPIDM,2023.1.2,None,
8480.jpg,9830.jpg,1 Point,4 Points,,,,,,,,,,,,,,,,,0,45,45,45,,,,,,,,,,,j,5.619489125005202,,,42,2024-12-13_09h22.28.856,EPIDM,2023.1.2,None,
F149.jpg,6571.jpg,0 Points,2 Points,,,,,,,,,,,,,,,,,0,46,46,46,,,,,,,,,,,k,10.44976783398306,,,42,2024-12-13_09h22.28.856,EPIDM,2023.1.2,None,
9621.jpg,6838.jpg,0 Points,5 Points,,,,,,,,,,,,,,,,,0,47,47,47,,,,,,,,,,,j,7.299887832981767,,,42,2024-12-13_09h22.28.856,EPIDM,2023.1.2,None,
P222.jpg,3051.jpg,2 Points,1 Point,,,,,,,,,,,,,,,,,0,48,48,48,,,,,,,,,,,a,10.093134500988526,,,42,2024-12-13_09h22.28.856,EPIDM,2023.1.2,None,
6930.jpg,7031.jpg,1 Point,4 Points,,,,,,,,,,,,,,,,,0,49,49,49,,,,,,,,,,,s,6.110587208997458,,,42,2024-12-13_09h22.28.856,EPIDM,2023.1.2,None,
5480.jpg,2722.jpg,4 Points,1 Points,,,,,,,,,,,,,,,,,0,50,50,50,,,,,,,,,,,a,5.221867624990409,,,42,2024-12-13_09h22.28.856,EPIDM,2023.1.2,None,
7025.jpg,9584.jpg,3 Points,2 Points,,,,,,,,,,,,,,,,,0,51,51,51,,,,,,,,,,,l,2.4963682499947026,,,42,2024-12-13_09h22.28.856,EPIDM,2023.1.2,None,
1201.jpg,F365.jpg,3 Points,5 Points,,,,,,,,,,,,,,,,,0,52,52,52,,,,,,,,,,,k,3.6046330420067534,,,42,2024-12-13_09h22.28.856,EPIDM,2023.1.2,None,
3210.jpg,7130.jpg,1 Point,4 Points,,,,,,,,,,,,,,,,,0,53,53,53,,,,,,,,,,,d,8.161288625007728,space,0.8355476260185242,42,2024-12-13_09h22.28.856,EPIDM,2023.1.2,None,
2487.jpg,2200.jpg,2 Points,1 Point,,,,,,,,,,,,,,,,,0,54,54,54,,,,,,,,,,,l,3.860574458987685,,,42,2024-12-13_09h22.28.856,EPIDM,2023.1.2,None,
7224.jpg,9102.jpg,2 Points,3 Points,,,,,,,,,,,,,,,,,0,55,55,55,,,,,,,,,,,j,2.9457810829917435,,,42,2024-12-13_09h22.28.856,EPIDM,2023.1.2,None,
3100.jpg,6260.jpg,2 Points,3 Points,,,,,,,,,,,,,,,,,0,56,56,56,,,,,,,,,,,l,1.609995834005531,,,42,2024-12-13_09h22.28.856,EPIDM,2023.1.2,None,
8180.jpg,1603.jpg,4 Points,1 Points,,,,,,,,,,,,,,,,,0,57,57,57,,,,,,,,,,,a,3.0286679999844637,,,42,2024-12-13_09h22.28.856,EPIDM,2023.1.2,None,
5982.jpg,5760.jpg,5 Points,1 Point,,,,,,,,,,,,,,,,,0,58,58,58,,,,,,,,,,,a,6.680051417002687,,,42,2024-12-13_09h22.28.856,EPIDM,2023.1.2,None,
5890.jpg,5780.jpg,2 Points,3 Points,,,,,,,,,,,,,,,,,0,59,59,59,,,,,,,,,,,l,2.8613742500019725,,,42,2024-12-13_09h22.28.856,EPIDM,2023.1.2,None,
P019.jpg,6550.jpg,3 Points,5 Points,,,,,,,,,,,,,,,,,0,60,60,60,,,,,,,,,,,a,5.229983416997129,,,42,2024-12-13_09h22.28.856,EPIDM,2023.1.2,None,
9440.jpg,1274.jpg,4 Points,1 Points,,,,,,,,,,,,,,,,,0,61,61,61,,,,,,,,,,,d,7.971827166998992,,,42,2024-12-13_09h22.28.856,EPIDM,2023.1.2,None,
F032.jpg,9594.jpg,1 Point,4 Points,,,,,,,,,,,,,,,,,0,62,62,62,,,,,,,,,,,j,4.043547916982789,,,42,2024-12-13_09h22.28.856,EPIDM,2023.1.2,None,
7233.jpg,1850.jpg,0 Points,5 Points,,,,,,,,,,,,,,,,,0,63,63,63,,,,,,,,,,,d,6.8875174169952516,,,42,2024-12-13_09h22.28.856,EPIDM,2023.1.2,None,
7580.jpg,7546.jpg,3 Points,2 Points,,,,,,,,,,,,,,,,,0,64,64,64,,,,,,,,,,,a,3.5233185419929214,,,42,2024-12-13_09h22.28.856,EPIDM,2023.1.2,None,
5020.jpg,5820.jpg,0 Points,5 Points,,,,,,,,,,,,,,,,,0,65,65,65,,,,,,,,,,,a,6.083455751009751,,,42,2024-12-13_09h22.28.856,EPIDM,2023.1.2,None,
7280.jpg,5270.jpg,0 Points,4 Points,,,,,,,,,,,,,,,,,0,66,66,66,,,,,,,,,,,l,2.3620088339957874,,,42,2024-12-13_09h22.28.856,EPIDM,2023.1.2,None,
5593.jpg,5600.jpg,0 Points,5 Points,,,,,,,,,,,,,,,,,0,67,67,67,,,,,,,,,,,a,3.881186582992086,,,42,2024-12-13_09h22.28.856,EPIDM,2023.1.2,None,
2141.jpg,9611.jpg,5 Points,3 Points,,,,,,,,,,,,,,,,,0,68,68,68,,,,,,,,,,,s,3.8449361250095535,,,42,2024-12-13_09h22.28.856,EPIDM,2023.1.2,None,
9190.jpg,7110.jpg,0 Points,5 Points,,,,,,,,,,,,,,,,,0,69,69,69,,,,,,,,,,,a,3.8488939169910736,space,0.7538386669766624,42,2024-12-13_09h22.28.856,EPIDM,2023.1.2,None,
1113.jpg,6300.jpg,3 Points,2 Points,,,,,,,,,,,,,,,,,0,70,70,70,,,,,,,,,,,l,3.5291504169872496,,,42,2024-12-13_09h22.28.856,EPIDM,2023.1.2,None,
5900.jpg,7503.jpg,3 Points,2 Points,,,,,,,,,,,,,,,,,0,71,71,71,,,,,,,,,,,l,1.9327322919853032,,,42,2024-12-13_09h22.28.856,EPIDM,2023.1.2,None,
8300.jpg,2575.jpg,3 Points,2 Points,,,,,,,,,,,,,,,,,0,72,72,72,,,,,,,,,,,s,3.829000208992511,,,42,2024-12-13_09h22.28.856,EPIDM,2023.1.2,None,
7282.jpg,5849.jpg,3 Points,2 Points,,,,,,,,,,,,,,,,,0,73,73,73,,,,,,,,,,,d,4.276672334002797,,,42,2024-12-13_09h22.28.856,EPIDM,2023.1.2,None,
2260.jpg,2681.jpg,5 Points,3 Points,,,,,,,,,,,,,,,,,0,74,74,74,,,,,,,,,,,a,3.3158037920075003,,,42,2024-12-13_09h22.28.856,EPIDM,2023.1.2,None,
5629.jpg,5870.jpg,0 Points,5 Points,,,,,,,,,,,,,,,,,0,75,75,75,,,,,,,,,,,l,2.397887333005201,,,42,2024-12-13_09h22.28.856,EPIDM,2023.1.2,None,
2717.jpg,3015.jpg,4 Points,5 Points,,,,,,,,,,,,,,,,,0,76,76,76,,,,,,,,,,,s,4.4986674589745235,,,42,2024-12-13_09h22.28.856,EPIDM,2023.1.2,None,
2485.jpg,7286.jpg,0 Points,5 Points,,,,,,,,,,,,,,,,,0,77,77,77,,,,,,,,,,,a,5.605597666988615,,,42,2024-12-13_09h22.28.856,EPIDM,2023.1.2,None,
6570.2.jpg,1510.jpg,3 Points,4 Points,,,,,,,,,,,,,,,,,0,78,78,78,,,,,,,,,,,a,12.238156876002904,,,42,2024-12-13_09h22.28.856,EPIDM,2023.1.2,None,
7035.jpg,4660.jpg,1 Points,4 Points,,,,,,,,,,,,,,,,,0,79,79,79,,,,,,,,,,,l,2.1437646670092363,,,42,2024-12-13_09h22.28.856,EPIDM,2023.1.2,None,
5535.jpg,8330.jpg,3 Points,0 Points,,,,,,,,,,,,,,,,,0,80,80,80,,,,,,,,,,,d,7.1078341669926886,,,42,2024-12-13_09h22.28.856,EPIDM,2023.1.2,None,
2230.jpg,F252.jpg,5 Points,0 Points,,,,,,,,,,,,,,,,,0,81,81,81,,,,,,,,,,,a,2.6467403749993537,,,42,2024-12-13_09h22.28.856,EPIDM,2023.1.2,None,
7380.jpg,8231.jpg,1 Point,4 Points,,,,,,,,,,,,,,,,,0,82,82,82,,,,,,,,,,,d,3.0519497499917634,,,42,2024-12-13_09h22.28.856,EPIDM,2023.1.2,None,
5720.jpg,1616.jpg,3 Points,2 Points,,,,,,,,,,,,,,,,,0,83,83,83,,,,,,,,,,,j,2.737169999978505,,,42,2024-12-13_09h22.28.856,EPIDM,2023.1.2,None,
6560.jpg,6570.1.jpg,2 Points,5 Points,,,,,,,,,,,,,,,,,0,84,84,84,,,,,,,,,,,l,7.926006249996135,,,42,2024-12-13_09h22.28.856,EPIDM,2023.1.2,None,
3181.jpg,9913.jpg,4 Points,1 Points,,,,,,,,,,,,,,,,,0,85,85,85,,,,,,,,,,,j,2.606941083999118,space,0.9134779580053873,42,2024-12-13_09h22.28.856,EPIDM,2023.1.2,None,
7352.jpg,2240.jpg,2 Points,5 Points,,,,,,,,,,,,,,,,,0,86,86,86,,,,,,,,,,,k,2.67079862600076,,,42,2024-12-13_09h22.28.856,EPIDM,2023.1.2,None,
2683.jpg,7361.jpg,3 Points,2 Points,,,,,,,,,,,,,,,,,0,87,87,87,,,,,,,,,,,j,3.2577281669946387,,,42,2024-12-13_09h22.28.856,EPIDM,2023.1.2,None,
4531.jpg,5621.jpg,5 Points,3 Points,,,,,,,,,,,,,,,,,0,88,88,88,,,,,,,,,,,a,4.657435583998449,,,42,2024-12-13_09h22.28.856,EPIDM,2023.1.2,None,
8090.jpg,5831.jpg,2 Points,3 Points,,,,,,,,,,,,,,,,,0,89,89,89,,,,,,,,,,,s,2.5318729169957805,,,42,2024-12-13_09h22.28.856,EPIDM,2023.1.2,None,
9320.jpg,1101.jpg,0 Points,3 Points,,,,,,,,,,,,,,,,,0,90,90,90,,,,,,,,,,,j,2.5514197500015143,,,42,2024-12-13_09h22.28.856,EPIDM,2023.1.2,None,
7034.jpg,2810.jpg,2 Points,3 Points,,,,,,,,,,,,,,,,,0,91,91,91,,,,,,,,,,,d,3.052964874979807,,,42,2024-12-13_09h22.28.856,EPIDM,2023.1.2,None,
3130.jpg,6312.jpg,4 Points,2 Points,,,,,,,,,,,,,,,,,0,92,92,92,,,,,,,,,,,k,1.7802452080068178,,,42,2024-12-13_09h22.28.856,EPIDM,2023.1.2,None,
6561.jpg,7211.jpg,2 Points,3 Points,,,,,,,,,,,,,,,,,0,93,93,93,,,,,,,,,,,j,5.2149045419937465,,,42,2024-12-13_09h22.28.856,EPIDM,2023.1.2,None,
7190.jpg,5300.jpg,5 Points,1 Point,,,,,,,,,,,,,,,,,0,94,94,94,,,,,,,,,,,j,7.009492376004346,,,42,2024-12-13_09h22.28.856,EPIDM,2023.1.2,None,
2500.jpg,2630.jpg,5 Points,0 Points,,,,,,,,,,,,,,,,,0,95,95,95,,,,,,,,,,,k,1.8858498749905266,,,42,2024-12-13_09h22.28.856,EPIDM,2023.1.2,None,
F174.jpg,6830.jpg,5 Points,4 Points,,,,,,,,,,,,,,,,,0,96,96,96,,,,,,,,,,,l,4.091574958001729,,,42,2024-12-13_09h22.28.856,EPIDM,2023.1.2,None,
5994.jpg,5700.jpg,0 Points,5 Points,,,,,,,,,,,,,,,,,0,97,97,97,,,,,,,,,,,s,4.547972291999031,,,42,2024-12-13_09h22.28.856,EPIDM,2023.1.2,None,
5500.jpg,5520.jpg,3 Points,2 Points,,,,,,,,,,,,,,,,,0,98,98,98,,,,,,,,,,,a,3.998160958988592,,,42,2024-12-13_09h22.28.856,EPIDM,2023.1.2,None,
7545.jpg,2389.jpg,5 Points,0 Points,,,,,,,,,,,,,,,,,0,99,99,99,,,,,,,,,,,k,4.534396083996398,,,42,2024-12-13_09h22.28.856,EPIDM,2023.1.2,None,
2220.jpg,2092.jpg,5 Points,0 Points,,,,,,,,,,,,,,,,,0,100,100,100,,,,,,,,,,,a,4.894396834017243,,,42,2024-12-13_09h22.28.856,EPIDM,2023.1.2,None,
7184.jpg,9700.jpg,4 Points,1 Points,,,,,,,,,,,,,,,,,0,101,101,101,,,,,,,,,,,a,1.7471850010042544,space,0.9060303749865852,42,2024-12-13_09h22.28.856,EPIDM,2023.1.2,None,
9421.jpg,A025.jpg,2 Points,0 Points,,,,,,,,,,,,,,,,,0,102,102,102,,,,,,,,,,,a,2.1378274580056313,,,42,2024-12-13_09h22.28.856,EPIDM,2023.1.2,None,
7182.jpg,5395.jpg,4 Points,1 Point,,,,,,,,,,,,,,,,,0,103,103,103,,,,,,,,,,,l,2.5585615419840906,,,42,2024-12-13_09h22.28.856,EPIDM,2023.1.2,None,
4608.jpg,5510.jpg,1 Point,5 Points,,,,,,,,,,,,,,,,,0,104,104,104,,,,,,,,,,,l,2.324021584005095,,,42,2024-12-13_09h22.28.856,EPIDM,2023.1.2,None,
2594.jpg,5470.jpg,0 Points,5 Points,,,,,,,,,,,,,,,,,0,105,105,105,,,,,,,,,,,s,3.1165622919797897,,,42,2024-12-13_09h22.28.856,EPIDM,2023.1.2,None,
F034.jpg,6213.jpg,4 Points,1 Point,,,,,,,,,,,,,,,,,0,106,106,106,,,,,,,,,,,s,3.658683249988826,,,42,2024-12-13_09h22.28.856,EPIDM,2023.1.2,None,
5731.jpg,2606.jpg,4 Points,1 Point,,,,,,,,,,,,,,,,,0,107,107,107,,,,,,,,,,,k,2.0847194170055445,,,42,2024-12-13_09h22.28.856,EPIDM,2023.1.2,None,
1650.jpg,7237.jpg,1 Points,4 Points,,,,,,,,,,,,,,,,,0,108,108,108,,,,,,,,,,,l,1.8943049169902224,,,42,2024-12-13_09h22.28.856,EPIDM,2023.1.2,None,
4770.jpg,5920.jpg,3 Points,2 Points,,,,,,,,,,,,,,,,,0,109,109,109,,,,,,,,,,,j,3.618037916981848,,,42,2024-12-13_09h22.28.856,EPIDM,2023.1.2,None,
2410.jpg,4689.jpg,4 Points,5 Points,,,,,,,,,,,,,,,,,0,110,110,110,,,,,,,,,,,j,7.606548876006855,,,42,2024-12-13_09h22.28.856,EPIDM,2023.1.2,None,
7040.jpg,A041.jpg,4 Points,1 Point,,,,,,,,,,,,,,,,,0,111,111,111,,,,,,,,,,,a,8.265576334000798,,,42,2024-12-13_09h22.28.856,EPIDM,2023.1.2,None,
A074.jpg,3120.jpg,2 Points,5 Points,,,,,,,,,,,,,,,,,0,112,112,112,,,,,,,,,,,l,2.210872916999506,,,42,2024-12-13_09h22.28.856,EPIDM,2023.1.2,None,
3060.jpg,7217.jpg,1 Point,4 Points,,,,,,,,,,,,,,,,,0,113,113,113,,,,,,,,,,,l,1.2605445829976816,,,42,2024-12-13_09h22.28.856,EPIDM,2023.1.2,None,
3168.jpg,9070.jpg,4 Points,2 Points,,,,,,,,,,,,,,,,,0,114,114,114,,,,,,,,,,,l,4.053482166986214,,,42,2024-12-13_09h22.28.856,EPIDM,2023.1.2,None,
7207.jpg,2791.jpg,1 Points,4 Points,,,,,,,,,,,,,,,,,0,115,115,115,,,,,,,,,,,a,2.001157291990239,,,42,2024-12-13_09h22.28.856,EPIDM,2023.1.2,None,
1640.jpg,1720.jpg,3 Points,4 Points,,,,,,,,,,,,,,,,,0,116,116,116,,,,,,,,,,,l,1.6876598749950062,,,42,2024-12-13_09h22.28.856,EPIDM,2023.1.2,None,
1050.jpg,7030.jpg,4 Points,1 Points,,,,,,,,,,,,,,,,,0,117,117,117,,,,,,,,,,,a,1.0591622089850716,space,0.8288961249927524,42,2024-12-13_09h22.28.856,EPIDM,2023.1.2,None,
1947.jpg,4535.jpg,5 Points,1 Point,,,,,,,,,,,,,,,,,0,118,118,118,,,,,,,,,,,a,1.1865935839887243,,,42,2024-12-13_09h22.28.856,EPIDM,2023.1.2,None,
7020.jpg,2206.jpg,5 Points,0 Points,,,,,,,,,,,,,,,,,0,119,119,119,,,,,,,,,,,l,1.4790674170071725,,,42,2024-12-13_09h22.28.856,EPIDM,2023.1.2,None,
2753.jpg,P217.jpg,0 Points,5 Points,,,,,,,,,,,,,,,,,0,120,120,120,,,,,,,,,,,s,2.601728000008734,,,42,2024-12-13_09h22.28.856,EPIDM,2023.1.2,None,
3160.jpg,7080.jpg,1 Point,4 Points,,,,,,,,,,,,,,,,,0,121,121,121,,,,,,,,,,,d,1.912973541970132,,,42,2024-12-13_09h22.28.856,EPIDM,2023.1.2,None,
2110.jpg,8280.jpg,5 Points,3 Points,,,,,,,,,,,,,,,,,0,122,122,122,,,,,,,,,,,a,2.092595791997155,,,42,2024-12-13_09h22.28.856,EPIDM,2023.1.2,None,
5740.jpg,7205.jpg,0 Points,5 Points,,,,,,,,,,,,,,,,,0,123,123,123,,,,,,,,,,,d,2.8157421670039184,,,42,2024-12-13_09h22.28.856,EPIDM,2023.1.2,None,
1660.jpg,8040.jpg,2 Points,1 Point,,,,,,,,,,,,,,,,,0,124,124,124,,,,,,,,,,,j,6.344143499998609,,,42,2024-12-13_09h22.28.856,EPIDM,2023.1.2,None,
1450.jpg,5530.jpg,5 Points,0 Points,,,,,,,,,,,,,,,,,0,125,125,125,,,,,,,,,,,a,2.036126166989561,,,42,2024-12-13_09h22.28.856,EPIDM,2023.1.2,None,
6540.jpg,1930.jpg,3 Points,1 Point,,,,,,,,,,,,,,,,,0,126,126,126,,,,,,,,,,,l,1.6547909590008203,,,42,2024-12-13_09h22.28.856,EPIDM,2023.1.2,None,
5628.jpg,5660.jpg,5 Points,0 Points,,,,,,,,,,,,,,,,,0,127,127,127,,,,,,,,,,,l,4.304599333991064,,,42,2024-12-13_09h22.28.856,EPIDM,2023.1.2,None,
7060.jpg,2499.jpg,5 Points,3 Points,,,,,,,,,,,,,,,,,0,128,128,128,,,,,,,,,,,a,3.108261416986352,,,42,2024-12-13_09h22.28.856,EPIDM,2023.1.2,None,
2512.jpg,7050.jpg,1 Point,4 Points,,,,,,,,,,,,,,,,,0,129,129,129,,,,,,,,,,,l,2.020024375990033,,,42,2024-12-13_09h22.28.856,EPIDM,2023.1.2,None,
3550.jpg,9270.jpg,2 Points,0 Points,,,,,,,,,,,,,,,,,0,130,130,130,,,,,,,,,,,k,1.6861680840083864,,,42,2024-12-13_09h22.28.856,EPIDM,2023.1.2,None,
5910.jpg,5800.jpg,5 Points,0 Points,,,,,,,,,,,,,,,,,0,131,131,131,,,,,,,,,,,j,1.7401555419783108,,,42,2024-12-13_09h22.28.856,EPIDM,2023.1.2,None,
1300.jpg,6200.jpg,2 Points,5 Points,,,,,,,,,,,,,,,,,0,132,132,132,,,,,,,,,,,a,3.1501340419927146,,,42,2024-12-13_09h22.28.856,EPIDM,2023.1.2,None,
4233.jpg,5875.jpg,5 Points,0 Points,,,,,,,,,,,,,,,,,0,133,133,133,,,,,,,,,,,d,3.745790833985666,space,0.7985854169819504,42,2024-12-13_09h22.28.856,EPIDM,2023.1.2,None,
2221.jpg,1303.jpg,2 Points,0 Points,,,,,,,,,,,,,,,,,0,134,134,134,,,,,,,,,,,d,2.7843543339986354,,,42,2024-12-13_09h22.28.856,EPIDM,2023.1.2,None,
9600.jpg,7640.jpg,5 Points,0 Points,,,,,,,,,,,,,,,,,0,135,135,135,,,,,,,,,,,k,3.7393661249952856,,,42,2024-12-13_09h22.28.856,EPIDM,2023.1.2,None,
1810.jpg,2616.jpg,3 Points,4 Points,,,,,,,,,,,,,,,,,0,136,136,136,,,,,,,,,,,k,2.457004458992742,,,42,2024-12-13_09h22.28.856,EPIDM,2023.1.2,None,
9180.jpg,9630.jpg,3 Points,2 Points,,,,,,,,,,,,,,,,,0,137,137,137,,,,,,,,,,,s,3.6984688749944326,,,42,2024-12-13_09h22.28.856,EPIDM,2023.1.2,None,
3071.jpg,1302.jpg,1 Point,3 Points,,,,,,,,,,,,,,,,,0,138,138,138,,,,,,,,,,,l,1.3538754589972086,,,42,2024-12-13_09h22.28.856,EPIDM,2023.1.2,None,
7000.jpg,1321.jpg,2 Points,3 Points,,,,,,,,,,,,,,,,,0,139,139,139,,,,,,,,,,,d,1.9231657509808429,,,42,2024-12-13_09h22.28.856,EPIDM,2023.1.2,None,
9331.jpg,1275.jpg,2 Points,1 Point,,,,,,,,,,,,,,,,,0,140,140,140,,,,,,,,,,,k,2.0252967510023154,,,42,2024-12-13_09h22.28.856,EPIDM,2023.1.2,None,
9400.jpg,9810.jpg,3 Points,2 Points,,,,,,,,,,,,,,,,,0,141,141,141,,,,,,,,,,,a,3.6785899589885958,,,42,2024-12-13_09h22.28.856,EPIDM,2023.1.2,None,
7270.jpg,4534.jpg,3 Points,0 Points,,,,,,,,,,,,,,,,,0,142,142,142,,,,,,,,,,,a,2.327610876003746,,,42,2024-12-13_09h22.28.856,EPIDM,2023.1.2,None,
7502.jpg,9230.jpg,5 Points,0 Points,,,,,,,,,,,,,,,,,0,143,143,143,,,,,,,,,,,d,4.618004500982352,,,42,2024-12-13_09h22.28.856,EPIDM,2023.1.2,None,
7490.jpg,8021.jpg,2 Points,4 Points,,,,,,,,,,,,,,,,,0,144,144,144,,,,,,,,,,,j,3.5020020839874633,,,42,2024-12-13_09h22.28.856,EPIDM,2023.1.2,None,
9390.jpg,9424.jpg,1 Point,4 Points,,,,,,,,,,,,,,,,,0,145,145,145,,,,,,,,,,,j,4.19319504199666,,,42,2024-12-13_09h22.28.856,EPIDM,2023.1.2,None,
8230.jpg,2710.jpg,5 Points,1 Point,,,,,,,,,,,,,,,,,0,146,146,146,,,,,,,,,,,k,1.3654695419827476,,,42,2024-12-13_09h22.28.856,EPIDM,2023.1.2,None,
7235.jpg,9182.jpg,3 Points,2 Points,,,,,,,,,,,,,,,,,0,147,147,147,,,,,,,,,,,a,1.5562478750071023,,,42,2024-12-13_09h22.28.856,EPIDM,2023.1.2,None,
2440.jpg,7950.jpg,4 Points,1 Point,,,,,,,,,,,,,,,,,0,148,148,148,,,,,,,,,,,a,3.1066091670072637,,,42,2024-12-13_09h22.28.856,EPIDM,2023.1.2,None,
9620.jpg,1230.jpg,1 Point,4 Points,,,,,,,,,,,,,,,,,0,149,149,149,,,,,,,,,,,l,1.714852916978998,space,0.8668339579890016,42,2024-12-13_09h22.28.856,EPIDM,2023.1.2,None,
9410.jpg,1280.jpg,0 Points,2 Points,,,,,,,,,,,,,,,,,0,150,150,150,,,,,,,,,,,l,3.655447833996732,,,42,2024-12-13_09h22.28.856,EPIDM,2023.1.2,None,
2716.jpg,3250.jpg,2 Points,3 Points,,,,,,,,,,,,,,,,,0,151,151,151,,,,,,,,,,,d,1.9795608750137035,,,42,2024-12-13_09h22.28.856,EPIDM,2023.1.2,None,
1301.jpg,3220.jpg,2 Points,5 Points,,,,,,,,,,,,,,,,,0,152,152,152,,,,,,,,,,,a,2.719884291989729,,,42,2024-12-13_09h22.28.856,EPIDM,2023.1.2,None,
3053.jpg,7550.jpg,4 Points,1 Points,,,,,,,,,,,,,,,,,0,153,153,153,,,,,,,,,,,a,0.9117054170055781,,,42,2024-12-13_09h22.28.856,EPIDM,2023.1.2,None,
4613.jpg,F203.jpg,4 Points,0 Points,,,,,,,,,,,,,,,,,0,154,154,154,,,,,,,,,,,l,2.571859082992887,,,42,2024-12-13_09h22.28.856,EPIDM,2023.1.2,None,
5991.jpg,5594.jpg,0 Points,5 Points,,,,,,,,,,,,,,,,,0,155,155,155,,,,,,,,,,,j,2.7449737499991897,,,42,2024-12-13_09h22.28.856,EPIDM,2023.1.2,None,
3010.jpg,1931.jpg,5 Points,3 Points,,,,,,,,,,,,,,,,,0,156,156,156,,,,,,,,,,,d,2.5106857499922626,,,42,2024-12-13_09h22.28.856,EPIDM,2023.1.2,None,
8531.jpg,7095.jpg,4 Points,1 Points,,,,,,,,,,,,,,,,,0,157,157,157,,,,,,,,,,,a,4.665286583011039,,,42,2024-12-13_09h22.28.856,EPIDM,2023.1.2,None,
8500.jpg,7820.jpg,4 Points,0 Points,,,,,,,,,,,,,,,,,0,158,158,158,,,,,,,,,,,d,4.125665249972371,,,42,2024-12-13_09h22.28.856,EPIDM,2023.1.2,None,
7004.jpg,1019.jpg,5 Points,0 Points,,,,,,,,,,,,,,,,,0,159,159,159,,,,,,,,,,,s,3.764735542004928,,,42,2024-12-13_09h22.28.856,EPIDM,2023.1.2,None,
