L_Scene,R_Scene,L_Pts,R_Pts,Instructions_Loop.thisRepN,Instructions_Loop.thisTrialN,Instructions_Loop.thisN,Instructions_Loop.thisIndex,Redo_Instructions_Loop.thisRepN,Redo_Instructions_Loop.thisTrialN,Redo_Instructions_Loop.thisN,Redo_Instructions_Loop.thisIndex,Practice_Recognition_Loop.thisRepN,Practice_Recognition_Loop.thisTrialN,Practice_Recognition_Loop.thisN,Practice_Recognition_Loop.thisIndex,Practice_FB_Loop.thisRepN,Practice_FB_Loop.thisTrialN,Practice_FB_Loop.thisN,Practice_FB_Loop.thisIndex,RecStim_Loop.thisRepN,RecStim_Loop.thisTrialN,RecStim_Loop.thisN,RecStim_Loop.thisIndex,FB_Loop.thisRepN,FB_Loop.thisTrialN,FB_Loop.thisN,FB_Loop.thisIndex,RecBrk_Loop.thisRepN,RecBrk_Loop.thisTrialN,RecBrk_Loop.thisN,RecBrk_Loop.thisIndex,Transition_Enc.keys,Transition_Enc.rt,Encoding_Resp.keys,Encoding_Resp.rt,EncBrk_Resp.keys,EncBrk_Resp.rt,participant,date,expName,psychopyVersion,frameRate,
,,,,,,,,,,,,,,,,,,,,,,,,,,,,,,,,space,9.661205042008078,,,,,43,2024-12-13_09h50.54.958,EPIDM,2023.1.2,None,
F078.jpg,L130.jpg,,,,,,,,,,,0,0,0,0,,,,,,,,,,,,,,,,,,,k,4.83994008298032,,,43,2024-12-13_09h50.54.958,EPIDM,2023.1.2,None,
P036.jpg,P217.jpg,,,,,,,,,,,0,1,1,1,,,,,,,,,,,,,,,,,,,j,4.632768249983201,,,43,2024-12-13_09h50.54.958,EPIDM,2023.1.2,None,
O161.jpg,F218.jpg,,,,,,,,,,,0,2,2,2,,,,,,,,,,,,,,,,,,,s,3.7540929579990916,,,43,2024-12-13_09h50.54.958,EPIDM,2023.1.2,None,
F279.jpg,A001.jpg,,,,,,,,,,,0,3,3,3,,,,,,,,,,,,,,,,,,,d,3.7600286249944475,,,43,2024-12-13_09h50.54.958,EPIDM,2023.1.2,None,
F273.jpg,A060.jpg,,,,,,,,,,,0,4,4,4,,,,,,,,,,,,,,,,,,,j,3.7888150419748854,,,43,2024-12-13_09h50.54.958,EPIDM,2023.1.2,None,
2393.jpg,L055.jpg,,,,,,,,,,,0,5,5,5,,,,,,,,,,,,,,,,,,,k,5.2100162919959985,,,43,2024-12-13_09h50.54.958,EPIDM,2023.1.2,None,
1812.jpg,2593.jpg,,,,,,,,,,,0,6,6,6,,,,,,,,,,,,,,,,,,,j,3.801639791985508,,,43,2024-12-13_09h50.54.958,EPIDM,2023.1.2,None,
O013.jpg,A067.jpg,,,,,,,,,,,0,7,7,7,,,,,,,,,,,,,,,,,,,d,3.1155790000048,,,43,2024-12-13_09h50.54.958,EPIDM,2023.1.2,None,
P033.jpg,P034.jpg,,,,,,,,,,,0,8,8,8,,,,,,,,,,,,,,,,,,,d,3.41159833301208,,,43,2024-12-13_09h50.54.958,EPIDM,2023.1.2,None,
A104.jpg,8186.jpg,,,,,,,,,,,0,9,9,9,,,,,,,,,,,,,,,,,,,j,3.1870593339845072,,,43,2024-12-13_09h50.54.958,EPIDM,2023.1.2,None,
,,,,,,,,,,,,,,,,,,,,,,,,,,,,,,,,space,12.740230459021404,,,,,43,2024-12-13_09h50.54.958,EPIDM,2023.1.2,None,
8041.jpg,6250.2.jpg,2 Points,3 Points,,,,,,,,,,,,,,,,,0,0,0,0,,,,,,,,,,,k,3.572796832973836,,,43,2024-12-13_09h50.54.958,EPIDM,2023.1.2,None,
1019.jpg,7004.jpg,0 Points,5 Points,,,,,,,,,,,,,,,,,0,1,1,1,,,,,,,,,,,j,3.1390149999933783,,,43,2024-12-13_09h50.54.958,EPIDM,2023.1.2,None,
6360.jpg,9120.jpg,1 Point,5 Points,,,,,,,,,,,,,,,,,0,2,2,2,,,,,,,,,,,d,3.642355999996653,,,43,2024-12-13_09h50.54.958,EPIDM,2023.1.2,None,
7095.jpg,8531.jpg,1 Points,4 Points,,,,,,,,,,,,,,,,,0,3,3,3,,,,,,,,,,,s,2.8370748750166968,,,43,2024-12-13_09h50.54.958,EPIDM,2023.1.2,None,
5220.jpg,7230.jpg,0 Points,5 Points,,,,,,,,,,,,,,,,,0,4,4,4,,,,,,,,,,,s,6.2414903760072775,,,43,2024-12-13_09h50.54.958,EPIDM,2023.1.2,None,
5750.jpg,5991.jpg,5 Points,0 Points,,,,,,,,,,,,,,,,,0,5,5,5,,,,,,,,,,,a,4.293273874995066,space,1.1233912919997238,43,2024-12-13_09h50.54.958,EPIDM,2023.1.2,None,
5971.jpg,9050.jpg,5 Points,4 Points,,,,,,,,,,,,,,,,,0,6,6,6,,,,,,,,,,,j,3.9177451670111623,,,43,2024-12-13_09h50.54.958,EPIDM,2023.1.2,None,
7550.jpg,2205.jpg,1 Points,4 Points,,,,,,,,,,,,,,,,,0,7,7,7,,,,,,,,,,,l,3.4039890420099255,,,43,2024-12-13_09h50.54.958,EPIDM,2023.1.2,None,
9480.jpg,6840.jpg,0 Points,1 Points,,,,,,,,,,,,,,,,,0,8,8,8,,,,,,,,,,,k,2.958499667001888,,,43,2024-12-13_09h50.54.958,EPIDM,2023.1.2,None,
A053.jpg,2716.jpg,3 Points,2 Points,,,,,,,,,,,,,,,,,0,9,9,9,,,,,,,,,,,d,2.7633738339936826,,,43,2024-12-13_09h50.54.958,EPIDM,2023.1.2,None,
2381.jpg,8250.jpg,1 Point,4 Points,,,,,,,,,,,,,,,,,0,10,10,10,,,,,,,,,,,k,4.5919999170000665,,,43,2024-12-13_09h50.54.958,EPIDM,2023.1.2,None,
1230.jpg,9620.jpg,4 Points,1 Point,,,,,,,,,,,,,,,,,0,11,11,11,,,,,,,,,,,j,4.249979124986567,,,43,2024-12-13_09h50.54.958,EPIDM,2023.1.2,None,
6000.jpg,5940.jpg,4 Points,0 Points,,,,,,,,,,,,,,,,,0,12,12,12,,,,,,,,,,,d,2.9341399999975692,,,43,2024-12-13_09h50.54.958,EPIDM,2023.1.2,None,
7186.jpg,7235.jpg,2 Points,3 Points,,,,,,,,,,,,,,,,,0,13,13,13,,,,,,,,,,,j,5.638210499979323,,,43,2024-12-13_09h50.54.958,EPIDM,2023.1.2,None,
2600.jpg,8185.jpg,1 Point,0 Points,,,,,,,,,,,,,,,,,0,14,14,14,,,,,,,,,,,a,3.600209875003202,,,43,2024-12-13_09h50.54.958,EPIDM,2023.1.2,None,
9424.jpg,9280.jpg,4 Points,1 Point,,,,,,,,,,,,,,,,,0,15,15,15,,,,,,,,,,,d,3.2561109169910196,,,43,2024-12-13_09h50.54.958,EPIDM,2023.1.2,None,
1670.jpg,4274.jpg,3 Points,2 Points,,,,,,,,,,,,,,,,,0,16,16,16,,,,,,,,,,,s,4.002953666989924,,,43,2024-12-13_09h50.54.958,EPIDM,2023.1.2,None,
9181.jpg,7502.jpg,0 Points,5 Points,,,,,,,,,,,,,,,,,0,17,17,17,,,,,,,,,,,d,2.329197874991223,,,43,2024-12-13_09h50.54.958,EPIDM,2023.1.2,None,
6910.jpg,1200.jpg,0 Points,4 Points,,,,,,,,,,,,,,,,,0,18,18,18,,,,,,,,,,,d,3.823407292016782,,,43,2024-12-13_09h50.54.958,EPIDM,2023.1.2,None,
9810.jpg,9470.jpg,2 Points,3 Points,,,,,,,,,,,,,,,,,0,19,19,19,,,,,,,,,,,l,2.743157833989244,,,43,2024-12-13_09h50.54.958,EPIDM,2023.1.2,None,
6940.jpg,6241.jpg,2 Points,3 Points,,,,,,,,,,,,,,,,,0,20,20,20,,,,,,,,,,,j,3.923439749982208,,,43,2024-12-13_09h50.54.958,EPIDM,2023.1.2,None,
1661.jpg,7000.jpg,3 Points,2 Points,,,,,,,,,,,,,,,,,0,21,21,21,,,,,,,,,,,j,3.462128874991322,space,0.9714402510144282,43,2024-12-13_09h50.54.958,EPIDM,2023.1.2,None,
7480.jpg,4533.jpg,0 Points,3 Points,,,,,,,,,,,,,,,,,0,22,22,22,,,,,,,,,,,d,2.7147035419766326,,,43,2024-12-13_09h50.54.958,EPIDM,2023.1.2,None,
9630.jpg,9046.jpg,2 Points,3 Points,,,,,,,,,,,,,,,,,0,23,23,23,,,,,,,,,,,d,3.6656160420097876,,,43,2024-12-13_09h50.54.958,EPIDM,2023.1.2,None,
9210.jpg,9290.jpg,1 Point,2 Points,,,,,,,,,,,,,,,,,0,24,24,24,,,,,,,,,,,j,1.699755000998266,,,43,2024-12-13_09h50.54.958,EPIDM,2023.1.2,None,
7640.jpg,9600.jpg,0 Points,5 Points,,,,,,,,,,,,,,,,,0,25,25,25,,,,,,,,,,,d,2.1951282509835437,,,43,2024-12-13_09h50.54.958,EPIDM,2023.1.2,None,
3022.jpg,9417.jpg,0 Points,1 Point,,,,,,,,,,,,,,,,,0,26,26,26,,,,,,,,,,,j,3.2206467920041177,,,43,2024-12-13_09h50.54.958,EPIDM,2023.1.2,None,
5875.jpg,4233.jpg,0 Points,5 Points,,,,,,,,,,,,,,,,,0,27,27,27,,,,,,,,,,,j,2.0297452920058277,,,43,2024-12-13_09h50.54.958,EPIDM,2023.1.2,None,
8465.jpg,2590.jpg,1 Point,4 Points,,,,,,,,,,,,,,,,,0,28,28,28,,,,,,,,,,,d,1.5052302500116639,,,43,2024-12-13_09h50.54.958,EPIDM,2023.1.2,None,
5460.jpg,5910.jpg,0 Points,5 Points,,,,,,,,,,,,,,,,,0,29,29,29,,,,,,,,,,,s,1.9359799999801908,,,43,2024-12-13_09h50.54.958,EPIDM,2023.1.2,None,
8311.jpg,8161.jpg,2 Points,4 Points,,,,,,,,,,,,,,,,,0,30,30,30,,,,,,,,,,,j,3.3624350420141127,,,43,2024-12-13_09h50.54.958,EPIDM,2023.1.2,None,
7050.jpg,2512.jpg,4 Points,1 Point,,,,,,,,,,,,,,,,,0,31,31,31,,,,,,,,,,,j,2.0633342499786522,,,43,2024-12-13_09h50.54.958,EPIDM,2023.1.2,None,
5970.jpg,9000.jpg,0 Points,4 Points,,,,,,,,,,,,,,,,,0,32,32,32,,,,,,,,,,,d,2.323631709004985,,,43,2024-12-13_09h50.54.958,EPIDM,2023.1.2,None,
5660.jpg,5628.jpg,0 Points,5 Points,,,,,,,,,,,,,,,,,0,33,33,33,,,,,,,,,,,d,1.535090458986815,,,43,2024-12-13_09h50.54.958,EPIDM,2023.1.2,None,
2752.jpg,7360.jpg,2 Points,1 Point,,,,,,,,,,,,,,,,,0,34,34,34,,,,,,,,,,,d,2.25885795900831,,,43,2024-12-13_09h50.54.958,EPIDM,2023.1.2,None,
5530.jpg,5410.jpg,0 Points,5 Points,,,,,,,,,,,,,,,,,0,35,35,35,,,,,,,,,,,j,3.327067291975254,,,43,2024-12-13_09h50.54.958,EPIDM,2023.1.2,None,
4279.jpg,2030.jpg,5 Points,0 Points,,,,,,,,,,,,,,,,,0,36,36,36,,,,,,,,,,,j,1.982686166971689,,,43,2024-12-13_09h50.54.958,EPIDM,2023.1.2,None,
7205.jpg,5740.jpg,5 Points,0 Points,,,,,,,,,,,,,,,,,0,37,37,37,,,,,,,,,,,d,1.8532515009865165,space,0.6116515839821659,43,2024-12-13_09h50.54.958,EPIDM,2023.1.2,None,
9101.jpg,1945.jpg,2 Points,4 Points,,,,,,,,,,,,,,,,,0,38,38,38,,,,,,,,,,,k,3.003503792017,,,43,2024-12-13_09h50.54.958,EPIDM,2023.1.2,None,
7080.jpg,6210.jpg,4 Points,1 Point,,,,,,,,,,,,,,,,,0,39,39,39,,,,,,,,,,,j,2.223055292008212,,,43,2024-12-13_09h50.54.958,EPIDM,2023.1.2,None,
6244.jpg,9041.jpg,0 Points,4 Points,,,,,,,,,,,,,,,,,0,40,40,40,,,,,,,,,,,j,2.0194533330213744,,,43,2024-12-13_09h50.54.958,EPIDM,2023.1.2,None,
6150.jpg,7020.jpg,0 Points,5 Points,,,,,,,,,,,,,,,,,0,41,41,41,,,,,,,,,,,s,2.0508648749964777,,,43,2024-12-13_09h50.54.958,EPIDM,2023.1.2,None,
4536.jpg,2170.jpg,4 Points,2 Points,,,,,,,,,,,,,,,,,0,42,42,42,,,,,,,,,,,j,2.0682730420085136,,,43,2024-12-13_09h50.54.958,EPIDM,2023.1.2,None,
7030.jpg,1050.jpg,1 Points,4 Points,,,,,,,,,,,,,,,,,0,43,43,43,,,,,,,,,,,j,2.416307167004561,,,43,2024-12-13_09h50.54.958,EPIDM,2023.1.2,None,
2870.jpg,8503.jpg,5 Points,2 Points,,,,,,,,,,,,,,,,,0,44,44,44,,,,,,,,,,,j,3.587756583990995,,,43,2024-12-13_09h50.54.958,EPIDM,2023.1.2,None,
2320.jpg,7207.jpg,4 Points,1 Points,,,,,,,,,,,,,,,,,0,45,45,45,,,,,,,,,,,d,1.5519942499813624,,,43,2024-12-13_09h50.54.958,EPIDM,2023.1.2,None,
3030.jpg,6571.jpg,0 Points,2 Points,,,,,,,,,,,,,,,,,0,46,46,46,,,,,,,,,,,j,1.5165429169719573,,,43,2024-12-13_09h50.54.958,EPIDM,2023.1.2,None,
7217.jpg,P233.jpg,4 Points,1 Point,,,,,,,,,,,,,,,,,0,47,47,47,,,,,,,,,,,d,2.282055332994787,,,43,2024-12-13_09h50.54.958,EPIDM,2023.1.2,None,
9401.jpg,9110.jpg,2 Points,1 Point,,,,,,,,,,,,,,,,,0,48,48,48,,,,,,,,,,,s,2.603487499989569,,,43,2024-12-13_09h50.54.958,EPIDM,2023.1.2,None,
P077.jpg,7040.jpg,1 Point,4 Points,,,,,,,,,,,,,,,,,0,49,49,49,,,,,,,,,,,d,1.8984119590022601,,,43,2024-12-13_09h50.54.958,EPIDM,2023.1.2,None,
8200.jpg,2312.jpg,4 Points,1 Points,,,,,,,,,,,,,,,,,0,50,50,50,,,,,,,,,,,a,2.6296203339879867,,,43,2024-12-13_09h50.54.958,EPIDM,2023.1.2,None,
5920.jpg,4275.jpg,2 Points,3 Points,,,,,,,,,,,,,,,,,0,51,51,51,,,,,,,,,,,j,2.0911524170078337,,,43,2024-12-13_09h50.54.958,EPIDM,2023.1.2,None,
1052.jpg,3180.jpg,3 Points,5 Points,,,,,,,,,,,,,,,,,0,52,52,52,,,,,,,,,,,k,1.789635624998482,,,43,2024-12-13_09h50.54.958,EPIDM,2023.1.2,None,
2480.jpg,5731.jpg,1 Point,4 Points,,,,,,,,,,,,,,,,,0,53,53,53,,,,,,,,,,,j,2.501567208993947,space,0.874542042001849,43,2024-12-13_09h50.54.958,EPIDM,2023.1.2,None,
2487.jpg,4598.jpg,2 Points,1 Point,,,,,,,,,,,,,,,,,0,54,54,54,,,,,,,,,,,d,1.947194959007902,,,43,2024-12-13_09h50.54.958,EPIDM,2023.1.2,None,
5470.jpg,2594.jpg,5 Points,0 Points,,,,,,,,,,,,,,,,,0,55,55,55,,,,,,,,,,,s,2.9407141669944394,,,43,2024-12-13_09h50.54.958,EPIDM,2023.1.2,None,
F369.jpg,6260.jpg,2 Points,3 Points,,,,,,,,,,,,,,,,,0,56,56,56,,,,,,,,,,,j,2.005299208976794,,,43,2024-12-13_09h50.54.958,EPIDM,2023.1.2,None,
7620.jpg,7182.jpg,1 Point,4 Points,,,,,,,,,,,,,,,,,0,57,57,57,,,,,,,,,,,d,1.8142410420114174,,,43,2024-12-13_09h50.54.958,EPIDM,2023.1.2,None,
5982.jpg,5760.jpg,5 Points,1 Point,,,,,,,,,,,,,,,,,0,58,58,58,,,,,,,,,,,j,2.209290124999825,,,43,2024-12-13_09h50.54.958,EPIDM,2023.1.2,None,
9700.jpg,7184.jpg,1 Points,4 Points,,,,,,,,,,,,,,,,,0,59,59,59,,,,,,,,,,,j,4.053541999979643,,,43,2024-12-13_09h50.54.958,EPIDM,2023.1.2,None,
F158.jpg,6550.jpg,3 Points,5 Points,,,,,,,,,,,,,,,,,0,60,60,60,,,,,,,,,,,j,4.831973041989841,,,43,2024-12-13_09h50.54.958,EPIDM,2023.1.2,None,
2389.jpg,7545.jpg,0 Points,5 Points,,,,,,,,,,,,,,,,,0,61,61,61,,,,,,,,,,,d,2.3252269579970744,,,43,2024-12-13_09h50.54.958,EPIDM,2023.1.2,None,
F032.jpg,1080.jpg,1 Point,4 Points,,,,,,,,,,,,,,,,,0,62,62,62,,,,,,,,,,,d,1.7598045419726986,,,43,2024-12-13_09h50.54.958,EPIDM,2023.1.2,None,
5700.jpg,5994.jpg,5 Points,0 Points,,,,,,,,,,,,,,,,,0,63,63,63,,,,,,,,,,,j,2.032989583996823,,,43,2024-12-13_09h50.54.958,EPIDM,2023.1.2,None,
7580.jpg,8340.jpg,3 Points,2 Points,,,,,,,,,,,,,,,,,0,64,64,64,,,,,,,,,,,k,2.987454667018028,,,43,2024-12-13_09h50.54.958,EPIDM,2023.1.2,None,
8010.jpg,2500.jpg,0 Points,5 Points,,,,,,,,,,,,,,,,,0,65,65,65,,,,,,,,,,,s,2.6656768750108313,,,43,2024-12-13_09h50.54.958,EPIDM,2023.1.2,None,
7280.jpg,2560.jpg,0 Points,4 Points,,,,,,,,,,,,,,,,,0,66,66,66,,,,,,,,,,,d,1.3667219169728924,,,43,2024-12-13_09h50.54.958,EPIDM,2023.1.2,None,
7211.jpg,6561.jpg,3 Points,2 Points,,,,,,,,,,,,,,,,,0,67,67,67,,,,,,,,,,,d,2.673644374968717,,,43,2024-12-13_09h50.54.958,EPIDM,2023.1.2,None,
2141.jpg,9611.jpg,5 Points,3 Points,,,,,,,,,,,,,,,,,0,68,68,68,,,,,,,,,,,j,3.366402332991129,,,43,2024-12-13_09h50.54.958,EPIDM,2023.1.2,None,
2810.jpg,7034.jpg,3 Points,2 Points,,,,,,,,,,,,,,,,,0,69,69,69,,,,,,,,,,,j,1.8532068750064354,space,0.9109338750131428,43,2024-12-13_09h50.54.958,EPIDM,2023.1.2,None,
1113.jpg,6300.jpg,3 Points,2 Points,,,,,,,,,,,,,,,,,0,70,70,70,,,,,,,,,,,k,4.475521332991775,,,43,2024-12-13_09h50.54.958,EPIDM,2023.1.2,None,
5831.jpg,8090.jpg,3 Points,2 Points,,,,,,,,,,,,,,,,,0,71,71,71,,,,,,,,,,,s,2.305161625990877,,,43,2024-12-13_09h50.54.958,EPIDM,2023.1.2,None,
8300.jpg,1910.jpg,3 Points,2 Points,,,,,,,,,,,,,,,,,0,72,72,72,,,,,,,,,,,j,2.4421461260062642,,,43,2024-12-13_09h50.54.958,EPIDM,2023.1.2,None,
6010.jpg,2683.jpg,2 Points,3 Points,,,,,,,,,,,,,,,,,0,73,73,73,,,,,,,,,,,d,3.025107333989581,,,43,2024-12-13_09h50.54.958,EPIDM,2023.1.2,None,
2260.jpg,7100.jpg,5 Points,3 Points,,,,,,,,,,,,,,,,,0,74,74,74,,,,,,,,,,,d,1.829333959001815,,,43,2024-12-13_09h50.54.958,EPIDM,2023.1.2,None,
9913.jpg,1310.jpg,1 Points,4 Points,,,,,,,,,,,,,,,,,0,75,75,75,,,,,,,,,,,k,3.7601733330229763,,,43,2024-12-13_09h50.54.958,EPIDM,2023.1.2,None,
2717.jpg,9330.jpg,4 Points,5 Points,,,,,,,,,,,,,,,,,0,76,76,76,,,,,,,,,,,d,2.2346439589746296,,,43,2024-12-13_09h50.54.958,EPIDM,2023.1.2,None,
2383.jpg,5720.jpg,2 Points,3 Points,,,,,,,,,,,,,,,,,0,77,77,77,,,,,,,,,,,j,1.926258626015624,,,43,2024-12-13_09h50.54.958,EPIDM,2023.1.2,None,
4100.jpg,4605.jpg,3 Points,4 Points,,,,,,,,,,,,,,,,,0,78,78,78,,,,,,,,,,,d,2.643542666977737,,,43,2024-12-13_09h50.54.958,EPIDM,2023.1.2,None,
F252.jpg,4510.jpg,0 Points,5 Points,,,,,,,,,,,,,,,,,0,79,79,79,,,,,,,,,,,d,3.604737291985657,,,43,2024-12-13_09h50.54.958,EPIDM,2023.1.2,None,
8210.jpg,8460.jpg,3 Points,0 Points,,,,,,,,,,,,,,,,,0,80,80,80,,,,,,,,,,,s,3.5725625829945784,,,43,2024-12-13_09h50.54.958,EPIDM,2023.1.2,None,
7002.jpg,7035.jpg,4 Points,1 Points,,,,,,,,,,,,,,,,,0,81,81,81,,,,,,,,,,,d,1.594305542006623,,,43,2024-12-13_09h50.54.958,EPIDM,2023.1.2,None,
1220.jpg,2692.jpg,1 Point,4 Points,,,,,,,,,,,,,,,,,0,82,82,82,,,,,,,,,,,k,3.611580374999903,,,43,2024-12-13_09h50.54.958,EPIDM,2023.1.2,None,
7286.jpg,7350.jpg,5 Points,0 Points,,,,,,,,,,,,,,,,,0,83,83,83,,,,,,,,,,,d,1.2420176249870565,,,43,2024-12-13_09h50.54.958,EPIDM,2023.1.2,None,
6560.jpg,9432.jpg,2 Points,5 Points,,,,,,,,,,,,,,,,,0,84,84,84,,,,,,,,,,,d,1.20485020900378,,,43,2024-12-13_09h50.54.958,EPIDM,2023.1.2,None,
5870.jpg,5629.jpg,5 Points,0 Points,,,,,,,,,,,,,,,,,0,85,85,85,,,,,,,,,,,l,4.181916125002317,space,0.8969978330133017,43,2024-12-13_09h50.54.958,EPIDM,2023.1.2,None,
5471.jpg,2240.jpg,2 Points,5 Points,,,,,,,,,,,,,,,,,0,86,86,86,,,,,,,,,,,d,1.4988328749896027,,,43,2024-12-13_09h50.54.958,EPIDM,2023.1.2,None,
5849.jpg,7282.jpg,2 Points,3 Points,,,,,,,,,,,,,,,,,0,87,87,87,,,,,,,,,,,d,0.8572377499949653,,,43,2024-12-13_09h50.54.958,EPIDM,2023.1.2,None,
2650.jpg,5621.jpg,5 Points,3 Points,,,,,,,,,,,,,,,,,0,88,88,88,,,,,,,,,,,a,4.912645667005563,,,43,2024-12-13_09h50.54.958,EPIDM,2023.1.2,None,
7503.jpg,5900.jpg,2 Points,3 Points,,,,,,,,,,,,,,,,,0,89,89,89,,,,,,,,,,,j,1.8528680840099696,,,43,2024-12-13_09h50.54.958,EPIDM,2023.1.2,None,
9007.jpg,1101.jpg,0 Points,3 Points,,,,,,,,,,,,,,,,,0,90,90,90,,,,,,,,,,,j,3.5274230419890955,,,43,2024-12-13_09h50.54.958,EPIDM,2023.1.2,None,
7110.jpg,6800.jpg,5 Points,0 Points,,,,,,,,,,,,,,,,,0,91,91,91,,,,,,,,,,,j,1.4799703749886248,,,43,2024-12-13_09h50.54.958,EPIDM,2023.1.2,None,
3500.jpg,6312.jpg,4 Points,2 Points,,,,,,,,,,,,,,,,,0,92,92,92,,,,,,,,,,,d,2.3234771249990445,,,43,2024-12-13_09h50.54.958,EPIDM,2023.1.2,None,
5600.jpg,5593.jpg,5 Points,0 Points,,,,,,,,,,,,,,,,,0,93,93,93,,,,,,,,,,,d,1.8950674590014387,,,43,2024-12-13_09h50.54.958,EPIDM,2023.1.2,None,
8350.jpg,5300.jpg,5 Points,1 Point,,,,,,,,,,,,,,,,,0,94,94,94,,,,,,,,,,,j,2.094268791988725,,,43,2024-12-13_09h50.54.958,EPIDM,2023.1.2,None,
5820.jpg,5200.jpg,5 Points,0 Points,,,,,,,,,,,,,,,,,0,95,95,95,,,,,,,,,,,j,1.8373752089974005,,,43,2024-12-13_09h50.54.958,EPIDM,2023.1.2,None,
9404.jpg,6212.jpg,5 Points,4 Points,,,,,,,,,,,,,,,,,0,96,96,96,,,,,,,,,,,d,1.8202001259778626,,,43,2024-12-13_09h50.54.958,EPIDM,2023.1.2,None,
5623.jpg,7233.jpg,5 Points,0 Points,,,,,,,,,,,,,,,,,0,97,97,97,,,,,,,,,,,d,2.1433357919740956,,,43,2024-12-13_09h50.54.958,EPIDM,2023.1.2,None,
2570.jpg,5520.jpg,3 Points,2 Points,,,,,,,,,,,,,,,,,0,98,98,98,,,,,,,,,,,j,1.7641762509883847,,,43,2024-12-13_09h50.54.958,EPIDM,2023.1.2,None,
1274.jpg,6350.jpg,1 Points,4 Points,,,,,,,,,,,,,,,,,0,99,99,99,,,,,,,,,,,d,2.073695125989616,,,43,2024-12-13_09h50.54.958,EPIDM,2023.1.2,None,
2220.jpg,2092.jpg,5 Points,0 Points,,,,,,,,,,,,,,,,,0,100,100,100,,,,,,,,,,,j,1.7542264169896953,,,43,2024-12-13_09h50.54.958,EPIDM,2023.1.2,None,
5780.jpg,5890.jpg,3 Points,2 Points,,,,,,,,,,,,,,,,,0,101,101,101,,,,,,,,,,,d,0.8730738339945674,space,0.9885262919997331,43,2024-12-13_09h50.54.958,EPIDM,2023.1.2,None,
1390.jpg,1051.jpg,2 Points,0 Points,,,,,,,,,,,,,,,,,0,102,102,102,,,,,,,,,,,j,1.0510142509883735,,,43,2024-12-13_09h50.54.958,EPIDM,2023.1.2,None,
1603.jpg,8180.jpg,1 Points,4 Points,,,,,,,,,,,,,,,,,0,103,103,103,,,,,,,,,,,j,1.8836635829939041,,,43,2024-12-13_09h50.54.958,EPIDM,2023.1.2,None,
4608.jpg,2514.jpg,1 Point,5 Points,,,,,,,,,,,,,,,,,0,104,104,104,,,,,,,,,,,d,1.5867712500039488,,,43,2024-12-13_09h50.54.958,EPIDM,2023.1.2,None,
9102.jpg,7224.jpg,3 Points,2 Points,,,,,,,,,,,,,,,,,0,105,105,105,,,,,,,,,,,s,2.917578374996083,,,43,2024-12-13_09h50.54.958,EPIDM,2023.1.2,None,
6242.jpg,3530.jpg,4 Points,1 Point,,,,,,,,,,,,,,,,,0,106,106,106,,,,,,,,,,,d,2.3998646249820013,,,43,2024-12-13_09h50.54.958,EPIDM,2023.1.2,None,
7130.jpg,3210.jpg,4 Points,1 Point,,,,,,,,,,,,,,,,,0,107,107,107,,,,,,,,,,,j,1.5729187919932883,,,43,2024-12-13_09h50.54.958,EPIDM,2023.1.2,None,
1650.jpg,7237.jpg,1 Points,4 Points,,,,,,,,,,,,,,,,,0,108,108,108,,,,,,,,,,,j,2.1683131669997238,,,43,2024-12-13_09h50.54.958,EPIDM,2023.1.2,None,
9584.jpg,7025.jpg,2 Points,3 Points,,,,,,,,,,,,,,,,,0,109,109,109,,,,,,,,,,,d,1.7114042089961004,,,43,2024-12-13_09h50.54.958,EPIDM,2023.1.2,None,
8220.jpg,4689.jpg,4 Points,5 Points,,,,,,,,,,,,,,,,,0,110,110,110,,,,,,,,,,,d,1.5632501670042984,,,43,2024-12-13_09h50.54.958,EPIDM,2023.1.2,None,
7031.jpg,1022.jpg,4 Points,1 Point,,,,,,,,,,,,,,,,,0,111,111,111,,,,,,,,,,,j,1.0835129999904893,,,43,2024-12-13_09h50.54.958,EPIDM,2023.1.2,None,
6510.jpg,6190.jpg,2 Points,5 Points,,,,,,,,,,,,,,,,,0,112,112,112,,,,,,,,,,,j,1.7419455840135925,,,43,2024-12-13_09h50.54.958,EPIDM,2023.1.2,None,
6838.jpg,9621.jpg,5 Points,0 Points,,,,,,,,,,,,,,,,,0,113,113,113,,,,,,,,,,,d,2.610351667011855,,,43,2024-12-13_09h50.54.958,EPIDM,2023.1.2,None,
3064.jpg,9070.jpg,4 Points,2 Points,,,,,,,,,,,,,,,,,0,114,114,114,,,,,,,,,,,j,1.7687755830120295,,,43,2024-12-13_09h50.54.958,EPIDM,2023.1.2,None,
9830.jpg,6410.jpg,4 Points,1 Point,,,,,,,,,,,,,,,,,0,115,115,115,,,,,,,,,,,j,1.4277333749923855,,,43,2024-12-13_09h50.54.958,EPIDM,2023.1.2,None,
1640.jpg,1720.jpg,3 Points,4 Points,,,,,,,,,,,,,,,,,0,116,116,116,,,,,,,,,,,k,2.3298159589758143,,,43,2024-12-13_09h50.54.958,EPIDM,2023.1.2,None,
2702.jpg,7140.jpg,5 Points,0 Points,,,,,,,,,,,,,,,,,0,117,117,117,,,,,,,,,,,j,1.4337127499748021,space,0.9260462499805726,43,2024-12-13_09h50.54.958,EPIDM,2023.1.2,None,
1947.jpg,4535.jpg,5 Points,1 Point,,,,,,,,,,,,,,,,,0,118,118,118,,,,,,,,,,,d,1.116512500011595,,,43,2024-12-13_09h50.54.958,EPIDM,2023.1.2,None,
7705.jpg,6250.1.jpg,5 Points,0 Points,,,,,,,,,,,,,,,,,0,119,119,119,,,,,,,,,,,j,0.6992427509685513,,,43,2024-12-13_09h50.54.958,EPIDM,2023.1.2,None,
2753.jpg,1090.jpg,0 Points,5 Points,,,,,,,,,,,,,,,,,0,120,120,120,,,,,,,,,,,j,0.8747302919800859,,,43,2024-12-13_09h50.54.958,EPIDM,2023.1.2,None,
7234.jpg,5626.jpg,3 Points,2 Points,,,,,,,,,,,,,,,,,0,121,121,121,,,,,,,,,,,d,1.776789375988301,,,43,2024-12-13_09h50.54.958,EPIDM,2023.1.2,None,
7260.jpg,8260.jpg,5 Points,3 Points,,,,,,,,,,,,,,,,,0,122,122,122,,,,,,,,,,,l,2.5914717499981634,,,43,2024-12-13_09h50.54.958,EPIDM,2023.1.2,None,
5950.jpg,9920.jpg,0 Points,5 Points,,,,,,,,,,,,,,,,,0,123,123,123,,,,,,,,,,,d,1.5304633339983411,,,43,2024-12-13_09h50.54.958,EPIDM,2023.1.2,None,
2840.jpg,8040.jpg,2 Points,1 Point,,,,,,,,,,,,,,,,,0,124,124,124,,,,,,,,,,,d,1.5404482079902664,,,43,2024-12-13_09h50.54.958,EPIDM,2023.1.2,None,
9360.jpg,7090.jpg,1 Point,4 Points,,,,,,,,,,,,,,,,,0,125,125,125,,,,,,,,,,,d,1.8541628750099335,,,43,2024-12-13_09h50.54.958,EPIDM,2023.1.2,None,
6540.jpg,1930.jpg,3 Points,1 Point,,,,,,,,,,,,,,,,,0,126,126,126,,,,,,,,,,,j,2.29061408402049,,,43,2024-12-13_09h50.54.958,EPIDM,2023.1.2,None,
9911.jpg,6610.jpg,5 Points,0 Points,,,,,,,,,,,,,,,,,0,127,127,127,,,,,,,,,,,j,0.9091199169924948,,,43,2024-12-13_09h50.54.958,EPIDM,2023.1.2,None,
4250.jpg,7830.jpg,5 Points,3 Points,,,,,,,,,,,,,,,,,0,128,128,128,,,,,,,,,,,d,1.9335818749968894,,,43,2024-12-13_09h50.54.958,EPIDM,2023.1.2,None,
1120.jpg,7010.jpg,3 Points,2 Points,,,,,,,,,,,,,,,,,0,129,129,129,,,,,,,,,,,k,3.0959569589758758,,,43,2024-12-13_09h50.54.958,EPIDM,2023.1.2,None,
4621.jpg,9270.jpg,2 Points,0 Points,,,,,,,,,,,,,,,,,0,130,130,130,,,,,,,,,,,j,3.5935154170147143,,,43,2024-12-13_09h50.54.958,EPIDM,2023.1.2,None,
7281.jpg,8117.jpg,0 Points,5 Points,,,,,,,,,,,,,,,,,0,131,131,131,,,,,,,,,,,k,2.216760292008985,,,43,2024-12-13_09h50.54.958,EPIDM,2023.1.2,None,
9592.jpg,6200.jpg,2 Points,5 Points,,,,,,,,,,,,,,,,,0,132,132,132,,,,,,,,,,,j,0.8057154169946443,,,43,2024-12-13_09h50.54.958,EPIDM,2023.1.2,None,
6314.jpg,3069.jpg,2 Points,3 Points,,,,,,,,,,,,,,,,,0,133,133,133,,,,,,,,,,,d,2.1747924169758335,space,1.1287704590067733,43,2024-12-13_09h50.54.958,EPIDM,2023.1.2,None,
2270.jpg,2000.jpg,2 Points,0 Points,,,,,,,,,,,,,,,,,0,134,134,134,,,,,,,,,,,d,1.5340132089913823,,,43,2024-12-13_09h50.54.958,EPIDM,2023.1.2,None,
7150.jpg,4532.jpg,2 Points,3 Points,,,,,,,,,,,,,,,,,0,135,135,135,,,,,,,,,,,j,0.9855528339976445,,,43,2024-12-13_09h50.54.958,EPIDM,2023.1.2,None,
1810.jpg,7238.jpg,3 Points,4 Points,,,,,,,,,,,,,,,,,0,136,136,136,,,,,,,,,,,d,1.816645624989178,,,43,2024-12-13_09h50.54.958,EPIDM,2023.1.2,None,
9800.jpg,7183.jpg,1 Point,4 Points,,,,,,,,,,,,,,,,,0,137,137,137,,,,,,,,,,,d,1.320669667009497,,,43,2024-12-13_09h50.54.958,EPIDM,2023.1.2,None,
9560.jpg,2700.jpg,1 Point,3 Points,,,,,,,,,,,,,,,,,0,138,138,138,,,,,,,,,,,d,0.8198454589874018,,,43,2024-12-13_09h50.54.958,EPIDM,2023.1.2,None,
6415.jpg,1112.jpg,2 Points,3 Points,,,,,,,,,,,,,,,,,0,139,139,139,,,,,,,,,,,j,1.714453249995131,,,43,2024-12-13_09h50.54.958,EPIDM,2023.1.2,None,
1110.jpg,1275.jpg,2 Points,1 Point,,,,,,,,,,,,,,,,,0,140,140,140,,,,,,,,,,,d,1.2954394579865038,,,43,2024-12-13_09h50.54.958,EPIDM,2023.1.2,None,
1040.jpg,7096.jpg,0 Points,5 Points,,,,,,,,,,,,,,,,,0,141,141,141,,,,,,,,,,,d,0.9274659589864314,,,43,2024-12-13_09h50.54.958,EPIDM,2023.1.2,None,
7270.jpg,4534.jpg,3 Points,0 Points,,,,,,,,,,,,,,,,,0,142,142,142,,,,,,,,,,,s,3.6787155420170166,,,43,2024-12-13_09h50.54.958,EPIDM,2023.1.2,None,
7495.jpg,5622.jpg,1 Points,4 Points,,,,,,,,,,,,,,,,,0,143,143,143,,,,,,,,,,,k,2.2668599169992376,,,43,2024-12-13_09h50.54.958,EPIDM,2023.1.2,None,
7175.jpg,8021.jpg,2 Points,4 Points,,,,,,,,,,,,,,,,,0,144,144,144,,,,,,,,,,,d,1.5816668340121396,,,43,2024-12-13_09h50.54.958,EPIDM,2023.1.2,None,
6821.jpg,7006.jpg,2 Points,3 Points,,,,,,,,,,,,,,,,,0,145,145,145,,,,,,,,,,,d,2.918803124979604,,,43,2024-12-13_09h50.54.958,EPIDM,2023.1.2,None,
2682.jpg,2710.jpg,5 Points,1 Point,,,,,,,,,,,,,,,,,0,146,146,146,,,,,,,,,,,j,3.0921758750046138,,,43,2024-12-13_09h50.54.958,EPIDM,2023.1.2,None,
5450.jpg,9010.jpg,5 Points,0 Points,,,,,,,,,,,,,,,,,0,147,147,147,,,,,,,,,,,j,1.6969610830128659,,,43,2024-12-13_09h50.54.958,EPIDM,2023.1.2,None,
7351.jpg,7950.jpg,4 Points,1 Point,,,,,,,,,,,,,,,,,0,148,148,148,,,,,,,,,,,d,1.7553318339923862,,,43,2024-12-13_09h50.54.958,EPIDM,2023.1.2,None,
9415.jpg,1932.jpg,4 Points,1 Points,,,,,,,,,,,,,,,,,0,149,149,149,,,,,,,,,,,j,2.116330958000617,space,2.278655624977546,43,2024-12-13_09h50.54.958,EPIDM,2023.1.2,None,
9410.jpg,9402.jpg,0 Points,2 Points,,,,,,,,,,,,,,,,,0,150,150,150,,,,,,,,,,,k,4.646664875006536,,,43,2024-12-13_09h50.54.958,EPIDM,2023.1.2,None,
7560.jpg,9220.jpg,4 Points,1 Point,,,,,,,,,,,,,,,,,0,151,151,151,,,,,,,,,,,d,1.7637719579797704,,,43,2024-12-13_09h50.54.958,EPIDM,2023.1.2,None,
1070.jpg,3220.jpg,2 Points,5 Points,,,,,,,,,,,,,,,,,0,152,152,152,,,,,,,,,,,d,1.468654707976384,,,43,2024-12-13_09h50.54.958,EPIDM,2023.1.2,None,
2751.jpg,7500.jpg,3 Points,2 Points,,,,,,,,,,,,,,,,,0,153,153,153,,,,,,,,,,,d,3.103242751007201,,,43,2024-12-13_09h50.54.958,EPIDM,2023.1.2,None,
2720.jpg,F203.jpg,4 Points,0 Points,,,,,,,,,,,,,,,,,0,154,154,154,,,,,,,,,,,k,2.414875166985439,,,43,2024-12-13_09h50.54.958,EPIDM,2023.1.2,None,
2515.jpg,1942.jpg,4 Points,1 Points,,,,,,,,,,,,,,,,,0,155,155,155,,,,,,,,,,,j,3.146030709001934,,,43,2024-12-13_09h50.54.958,EPIDM,2023.1.2,None,
9430.jpg,1931.jpg,5 Points,3 Points,,,,,,,,,,,,,,,,,0,156,156,156,,,,,,,,,,,j,2.6509393340093084,,,43,2024-12-13_09h50.54.958,EPIDM,2023.1.2,None,
1270.jpg,9921.jpg,4 Points,1 Points,,,,,,,,,,,,,,,,,0,157,157,157,,,,,,,,,,,j,1.6832012920058332,,,43,2024-12-13_09h50.54.958,EPIDM,2023.1.2,None,
8500.jpg,1121.jpg,4 Points,0 Points,,,,,,,,,,,,,,,,,0,158,158,158,,,,,,,,,,,s,2.860379167017527,,,43,2024-12-13_09h50.54.958,EPIDM,2023.1.2,None,
5532.jpg,2214.jpg,2 Points,3 Points,,,,,,,,,,,,,,,,,0,159,159,159,,,,,,,,,,,k,3.4934520419919863,,,43,2024-12-13_09h50.54.958,EPIDM,2023.1.2,None,
