L_Scene,R_Scene,L_Pts,R_Pts,Instructions_Loop.thisRepN,Instructions_Loop.thisTrialN,Instructions_Loop.thisN,Instructions_Loop.thisIndex,Redo_Instructions_Loop.thisRepN,Redo_Instructions_Loop.thisTrialN,Redo_Instructions_Loop.thisN,Redo_Instructions_Loop.thisIndex,Practice_Recognition_Loop.thisRepN,Practice_Recognition_Loop.thisTrialN,Practice_Recognition_Loop.thisN,Practice_Recognition_Loop.thisIndex,Practice_FB_Loop.thisRepN,Practice_FB_Loop.thisTrialN,Practice_FB_Loop.thisN,Practice_FB_Loop.thisIndex,RecStim_Loop.thisRepN,RecStim_Loop.thisTrialN,RecStim_Loop.thisN,RecStim_Loop.thisIndex,FB_Loop.thisRepN,FB_Loop.thisTrialN,FB_Loop.thisN,FB_Loop.thisIndex,RecBrk_Loop.thisRepN,RecBrk_Loop.thisTrialN,RecBrk_Loop.thisN,RecBrk_Loop.thisIndex,Transition_Enc.keys,Transition_Enc.rt,Encoding_Resp.keys,Encoding_Resp.rt,EncBrk_Resp.keys,EncBrk_Resp.rt,participant,date,expName,psychopyVersion,frameRate,
,,,,,,,,,,,,,,,,,,,,,,,,,,,,,,,,space,17.65250549998018,,,,,47,2024-12-17_12h51.35.409,EPIDM,2023.1.2,None,
F078.jpg,L130.jpg,,,,,,,,,,,0,0,0,0,,,,,,,,,,,,,,,,,,,j,6.285413082980085,,,47,2024-12-17_12h51.35.409,EPIDM,2023.1.2,None,
P036.jpg,P217.jpg,,,,,,,,,,,0,1,1,1,,,,,,,,,,,,,,,,,,,d,5.042807416990399,,,47,2024-12-17_12h51.35.409,EPIDM,2023.1.2,None,
O161.jpg,F218.jpg,,,,,,,,,,,0,2,2,2,,,,,,,,,,,,,,,,,,,j,3.297297458979301,,,47,2024-12-17_12h51.35.409,EPIDM,2023.1.2,None,
F279.jpg,A001.jpg,,,,,,,,,,,0,3,3,3,,,,,,,,,,,,,,,,,,,k,1.7056014579720795,,,47,2024-12-17_12h51.35.409,EPIDM,2023.1.2,None,
F273.jpg,A060.jpg,,,,,,,,,,,0,4,4,4,,,,,,,,,,,,,,,,,,,s,1.6597814999695402,,,47,2024-12-17_12h51.35.409,EPIDM,2023.1.2,None,
2393.jpg,L055.jpg,,,,,,,,,,,0,5,5,5,,,,,,,,,,,,,,,,,,,s,28.070463457988808,,,47,2024-12-17_12h51.35.409,EPIDM,2023.1.2,None,
1812.jpg,2593.jpg,,,,,,,,,,,0,6,6,6,,,,,,,,,,,,,,,,,,,a,8.346336624963442,,,47,2024-12-17_12h51.35.409,EPIDM,2023.1.2,None,
O013.jpg,A067.jpg,,,,,,,,,,,0,7,7,7,,,,,,,,,,,,,,,,,,,s,3.5958402079704683,,,47,2024-12-17_12h51.35.409,EPIDM,2023.1.2,None,
P033.jpg,P034.jpg,,,,,,,,,,,0,8,8,8,,,,,,,,,,,,,,,,,,,d,3.3142618339916226,,,47,2024-12-17_12h51.35.409,EPIDM,2023.1.2,None,
A104.jpg,8186.jpg,,,,,,,,,,,0,9,9,9,,,,,,,,,,,,,,,,,,,l,2.041280374978669,,,47,2024-12-17_12h51.35.409,EPIDM,2023.1.2,None,
,,,,,,,,,,,,,,,,,,,,,,,,,,,,,,,,space,12.090581124968594,,,,,47,2024-12-17_12h51.35.409,EPIDM,2023.1.2,None,
8041.jpg,9405.jpg,2 Points,3 Points,,,,,,,,,,,,,,,,,0,0,0,0,,,,,,,,,,,s,6.001109415985411,,,47,2024-12-17_12h51.35.409,EPIDM,2023.1.2,None,
2214.jpg,5532.jpg,3 Points,2 Points,,,,,,,,,,,,,,,,,0,1,1,1,,,,,,,,,,,d,5.749464915978024,,,47,2024-12-17_12h51.35.409,EPIDM,2023.1.2,None,
6360.jpg,6834.jpg,1 Point,5 Points,,,,,,,,,,,,,,,,,0,2,2,2,,,,,,,,,,,a,5.357336666958872,,,47,2024-12-17_12h51.35.409,EPIDM,2023.1.2,None,
9921.jpg,6370.jpg,1 Points,4 Points,,,,,,,,,,,,,,,,,0,3,3,3,,,,,,,,,,,l,7.547283333959058,,,47,2024-12-17_12h51.35.409,EPIDM,2023.1.2,None,
5220.jpg,7570.jpg,0 Points,5 Points,,,,,,,,,,,,,,,,,0,4,4,4,,,,,,,,,,,j,3.3687646669568494,,,47,2024-12-17_12h51.35.409,EPIDM,2023.1.2,None,
1942.jpg,2515.jpg,1 Points,4 Points,,,,,,,,,,,,,,,,,0,5,5,5,,,,,,,,,,,j,3.164740540989442,space,1.53455941597349,47,2024-12-17_12h51.35.409,EPIDM,2023.1.2,None,
5971.jpg,9050.jpg,5 Points,4 Points,,,,,,,,,,,,,,,,,0,6,6,6,,,,,,,,,,,d,4.158382333989721,,,47,2024-12-17_12h51.35.409,EPIDM,2023.1.2,None,
7500.jpg,2751.jpg,2 Points,3 Points,,,,,,,,,,,,,,,,,0,7,7,7,,,,,,,,,,,s,9.75803737496608,,,47,2024-12-17_12h51.35.409,EPIDM,2023.1.2,None,
9250.jpg,3080.jpg,0 Points,1 Points,,,,,,,,,,,,,,,,,0,8,8,8,,,,,,,,,,,k,4.752568207972217,,,47,2024-12-17_12h51.35.409,EPIDM,2023.1.2,None,
9530.jpg,7560.jpg,1 Point,4 Points,,,,,,,,,,,,,,,,,0,9,9,9,,,,,,,,,,,s,4.73182549997,,,47,2024-12-17_12h51.35.409,EPIDM,2023.1.2,None,
2518.jpg,8250.jpg,1 Point,4 Points,,,,,,,,,,,,,,,,,0,10,10,10,,,,,,,,,,,k,4.233716791990446,,,47,2024-12-17_12h51.35.409,EPIDM,2023.1.2,None,
1932.jpg,9415.jpg,1 Points,4 Points,,,,,,,,,,,,,,,,,0,11,11,11,,,,,,,,,,,j,10.19356170896208,,,47,2024-12-17_12h51.35.409,EPIDM,2023.1.2,None,
6836.jpg,9411.jpg,4 Points,0 Points,,,,,,,,,,,,,,,,,0,12,12,12,,,,,,,,,,,a,4.566533208970213,,,47,2024-12-17_12h51.35.409,EPIDM,2023.1.2,None,
9253.jpg,5450.jpg,0 Points,5 Points,,,,,,,,,,,,,,,,,0,13,13,13,,,,,,,,,,,k,4.914391165977577,,,47,2024-12-17_12h51.35.409,EPIDM,2023.1.2,None,
1540.jpg,1560.jpg,1 Point,0 Points,,,,,,,,,,,,,,,,,0,14,14,14,,,,,,,,,,,s,3.8662492499570362,,,47,2024-12-17_12h51.35.409,EPIDM,2023.1.2,None,
7006.jpg,9622.jpg,3 Points,2 Points,,,,,,,,,,,,,,,,,0,15,15,15,,,,,,,,,,,j,3.074003791960422,,,47,2024-12-17_12h51.35.409,EPIDM,2023.1.2,None,
1670.jpg,4274.jpg,3 Points,2 Points,,,,,,,,,,,,,,,,,0,16,16,16,,,,,,,,,,,j,5.986993499973323,,,47,2024-12-17_12h51.35.409,EPIDM,2023.1.2,None,
9156.jpg,7495.jpg,4 Points,1 Points,,,,,,,,,,,,,,,,,0,17,17,17,,,,,,,,,,,a,6.992478000000119,,,47,2024-12-17_12h51.35.409,EPIDM,2023.1.2,None,
6910.jpg,1200.jpg,0 Points,4 Points,,,,,,,,,,,,,,,,,0,18,18,18,,,,,,,,,,,j,8.461384541995358,,,47,2024-12-17_12h51.35.409,EPIDM,2023.1.2,None,
7096.jpg,1111.jpg,5 Points,0 Points,,,,,,,,,,,,,,,,,0,19,19,19,,,,,,,,,,,s,4.133574249979574,,,47,2024-12-17_12h51.35.409,EPIDM,2023.1.2,None,
9910.jpg,6241.jpg,2 Points,3 Points,,,,,,,,,,,,,,,,,0,20,20,20,,,,,,,,,,,l,5.440407374990173,,,47,2024-12-17_12h51.35.409,EPIDM,2023.1.2,None,
6230.jpg,6415.jpg,3 Points,2 Points,,,,,,,,,,,,,,,,,0,21,21,21,,,,,,,,,,,a,6.5775617499894,space,0.7948365829652175,47,2024-12-17_12h51.35.409,EPIDM,2023.1.2,None,
1740.jpg,4533.jpg,0 Points,3 Points,,,,,,,,,,,,,,,,,0,22,22,22,,,,,,,,,,,k,4.710052499984158,,,47,2024-12-17_12h51.35.409,EPIDM,2023.1.2,None,
7183.jpg,9433.jpg,4 Points,1 Point,,,,,,,,,,,,,,,,,0,23,23,23,,,,,,,,,,,s,4.333629749977263,,,47,2024-12-17_12h51.35.409,EPIDM,2023.1.2,None,
9210.jpg,9254.jpg,1 Point,2 Points,,,,,,,,,,,,,,,,,0,24,24,24,,,,,,,,,,,j,8.598799249972217,,,47,2024-12-17_12h51.35.409,EPIDM,2023.1.2,None,
4532.jpg,7150.jpg,3 Points,2 Points,,,,,,,,,,,,,,,,,0,25,25,25,,,,,,,,,,,s,7.47151962495991,,,47,2024-12-17_12h51.35.409,EPIDM,2023.1.2,None,
3022.jpg,6530.jpg,0 Points,1 Point,,,,,,,,,,,,,,,,,0,26,26,26,,,,,,,,,,,s,9.479208708973601,,,47,2024-12-17_12h51.35.409,EPIDM,2023.1.2,None,
3069.jpg,6314.jpg,3 Points,2 Points,,,,,,,,,,,,,,,,,0,27,27,27,,,,,,,,,,,k,5.664886791957542,,,47,2024-12-17_12h51.35.409,EPIDM,2023.1.2,None,
8465.jpg,2490.jpg,1 Point,4 Points,,,,,,,,,,,,,,,,,0,28,28,28,,,,,,,,,,,d,4.071847290964797,,,47,2024-12-17_12h51.35.409,EPIDM,2023.1.2,None,
8117.jpg,7281.jpg,5 Points,0 Points,,,,,,,,,,,,,,,,,0,29,29,29,,,,,,,,,,,a,4.322039249993395,,,47,2024-12-17_12h51.35.409,EPIDM,2023.1.2,None,
8311.jpg,8161.jpg,2 Points,4 Points,,,,,,,,,,,,,,,,,0,30,30,30,,,,,,,,,,,k,6.904614749975735,,,47,2024-12-17_12h51.35.409,EPIDM,2023.1.2,None,
7010.jpg,1120.jpg,2 Points,3 Points,,,,,,,,,,,,,,,,,0,31,31,31,,,,,,,,,,,d,5.983111915993504,,,47,2024-12-17_12h51.35.409,EPIDM,2023.1.2,None,
3300.jpg,9000.jpg,0 Points,4 Points,,,,,,,,,,,,,,,,,0,32,32,32,,,,,,,,,,,l,2.6489097079611383,,,47,2024-12-17_12h51.35.409,EPIDM,2023.1.2,None,
6610.jpg,9911.jpg,0 Points,5 Points,,,,,,,,,,,,,,,,,0,33,33,33,,,,,,,,,,,a,4.8104331249778625,,,47,2024-12-17_12h51.35.409,EPIDM,2023.1.2,None,
2752.jpg,3266.jpg,2 Points,1 Point,,,,,,,,,,,,,,,,,0,34,34,34,,,,,,,,,,,j,4.193467832985334,,,47,2024-12-17_12h51.35.409,EPIDM,2023.1.2,None,
7090.jpg,9360.jpg,4 Points,1 Point,,,,,,,,,,,,,,,,,0,35,35,35,,,,,,,,,,,k,3.7435149169759825,,,47,2024-12-17_12h51.35.409,EPIDM,2023.1.2,None,
4279.jpg,2030.jpg,5 Points,0 Points,,,,,,,,,,,,,,,,,0,36,36,36,,,,,,,,,,,a,5.204537165991496,,,47,2024-12-17_12h51.35.409,EPIDM,2023.1.2,None,
3068.jpg,5950.jpg,5 Points,0 Points,,,,,,,,,,,,,,,,,0,37,37,37,,,,,,,,,,,d,5.054583790973993,space,12.214970124972751,47,2024-12-17_12h51.35.409,EPIDM,2023.1.2,None,
9571.jpg,1945.jpg,2 Points,4 Points,,,,,,,,,,,,,,,,,0,38,38,38,,,,,,,,,,,j,4.219125457981136,,,47,2024-12-17_12h51.35.409,EPIDM,2023.1.2,None,
5626.jpg,5533.jpg,2 Points,3 Points,,,,,,,,,,,,,,,,,0,39,39,39,,,,,,,,,,,d,13.145882040989818,,,47,2024-12-17_12h51.35.409,EPIDM,2023.1.2,None,
6244.jpg,P211.jpg,0 Points,4 Points,,,,,,,,,,,,,,,,,0,40,40,40,,,,,,,,,,,s,3.0752053339674603,,,47,2024-12-17_12h51.35.409,EPIDM,2023.1.2,None,
3301.jpg,7705.jpg,0 Points,5 Points,,,,,,,,,,,,,,,,,0,41,41,41,,,,,,,,,,,j,6.702647791971685,,,47,2024-12-17_12h51.35.409,EPIDM,2023.1.2,None,
4536.jpg,7170.jpg,4 Points,2 Points,,,,,,,,,,,,,,,,,0,42,42,42,,,,,,,,,,,s,6.689401333977003,,,47,2024-12-17_12h51.35.409,EPIDM,2023.1.2,None,
7140.jpg,1590.jpg,0 Points,5 Points,,,,,,,,,,,,,,,,,0,43,43,43,,,,,,,,,,,l,7.478200291981921,,,47,2024-12-17_12h51.35.409,EPIDM,2023.1.2,None,
2661.jpg,8503.jpg,5 Points,2 Points,,,,,,,,,,,,,,,,,0,44,44,44,,,,,,,,,,,d,4.995975374971749,,,47,2024-12-17_12h51.35.409,EPIDM,2023.1.2,None,
8480.jpg,9830.jpg,1 Point,4 Points,,,,,,,,,,,,,,,,,0,45,45,45,,,,,,,,,,,k,3.7368650409625843,,,47,2024-12-17_12h51.35.409,EPIDM,2023.1.2,None,
3030.jpg,P237.jpg,0 Points,2 Points,,,,,,,,,,,,,,,,,0,46,46,46,,,,,,,,,,,s,4.633037333987886,,,47,2024-12-17_12h51.35.409,EPIDM,2023.1.2,None,
9621.jpg,6838.jpg,0 Points,5 Points,,,,,,,,,,,,,,,,,0,47,47,47,,,,,,,,,,,l,2.649445624963846,,,47,2024-12-17_12h51.35.409,EPIDM,2023.1.2,None,
P222.jpg,9110.jpg,2 Points,1 Point,,,,,,,,,,,,,,,,,0,48,48,48,,,,,,,,,,,s,3.071161374973599,,,47,2024-12-17_12h51.35.409,EPIDM,2023.1.2,None,
1022.jpg,7031.jpg,1 Point,4 Points,,,,,,,,,,,,,,,,,0,49,49,49,,,,,,,,,,,d,4.343391083966708,,,47,2024-12-17_12h51.35.409,EPIDM,2023.1.2,None,
5480.jpg,2722.jpg,4 Points,1 Points,,,,,,,,,,,,,,,,,0,50,50,50,,,,,,,,,,,s,7.947190749982838,,,47,2024-12-17_12h51.35.409,EPIDM,2023.1.2,None,
7025.jpg,3400.jpg,3 Points,2 Points,,,,,,,,,,,,,,,,,0,51,51,51,,,,,,,,,,,k,2.107584124954883,,,47,2024-12-17_12h51.35.409,EPIDM,2023.1.2,None,
1052.jpg,F365.jpg,3 Points,5 Points,,,,,,,,,,,,,,,,,0,52,52,52,,,,,,,,,,,l,3.4924413329572417,,,47,2024-12-17_12h51.35.409,EPIDM,2023.1.2,None,
3350.jpg,7130.jpg,1 Point,4 Points,,,,,,,,,,,,,,,,,0,53,53,53,,,,,,,,,,,s,4.51952687499579,space,28.52136462496128,47,2024-12-17_12h51.35.409,EPIDM,2023.1.2,None,
2487.jpg,4598.jpg,2 Points,1 Point,,,,,,,,,,,,,,,,,0,54,54,54,,,,,,,,,,,k,2.290132457972504,,,47,2024-12-17_12h51.35.409,EPIDM,2023.1.2,None,
7224.jpg,9102.jpg,2 Points,3 Points,,,,,,,,,,,,,,,,,0,55,55,55,,,,,,,,,,,k,1.5310829999798443,,,47,2024-12-17_12h51.35.409,EPIDM,2023.1.2,None,
3100.jpg,6260.jpg,2 Points,3 Points,,,,,,,,,,,,,,,,,0,56,56,56,,,,,,,,,,,l,1.1395919999631587,,,47,2024-12-17_12h51.35.409,EPIDM,2023.1.2,None,
8180.jpg,1603.jpg,4 Points,1 Points,,,,,,,,,,,,,,,,,0,57,57,57,,,,,,,,,,,k,3.1901991669728886,,,47,2024-12-17_12h51.35.409,EPIDM,2023.1.2,None,
5982.jpg,5760.jpg,5 Points,1 Point,,,,,,,,,,,,,,,,,0,58,58,58,,,,,,,,,,,a,6.5253867079736665,,,47,2024-12-17_12h51.35.409,EPIDM,2023.1.2,None,
5890.jpg,5990.jpg,2 Points,3 Points,,,,,,,,,,,,,,,,,0,59,59,59,,,,,,,,,,,j,2.425218790973304,,,47,2024-12-17_12h51.35.409,EPIDM,2023.1.2,None,
F158.jpg,6550.jpg,3 Points,5 Points,,,,,,,,,,,,,,,,,0,60,60,60,,,,,,,,,,,d,4.7594845419807825,,,47,2024-12-17_12h51.35.409,EPIDM,2023.1.2,None,
6350.jpg,1274.jpg,4 Points,1 Points,,,,,,,,,,,,,,,,,0,61,61,61,,,,,,,,,,,j,2.7492775839637034,,,47,2024-12-17_12h51.35.409,EPIDM,2023.1.2,None,
F032.jpg,1080.jpg,1 Point,4 Points,,,,,,,,,,,,,,,,,0,62,62,62,,,,,,,,,,,s,2.149186832946725,,,47,2024-12-17_12h51.35.409,EPIDM,2023.1.2,None,
7233.jpg,5623.jpg,0 Points,5 Points,,,,,,,,,,,,,,,,,0,63,63,63,,,,,,,,,,,k,2.6482810839661397,,,47,2024-12-17_12h51.35.409,EPIDM,2023.1.2,None,
7580.jpg,7546.jpg,3 Points,2 Points,,,,,,,,,,,,,,,,,0,64,64,64,,,,,,,,,,,d,6.007529874972533,,,47,2024-12-17_12h51.35.409,EPIDM,2023.1.2,None,
5200.jpg,5820.jpg,0 Points,5 Points,,,,,,,,,,,,,,,,,0,65,65,65,,,,,,,,,,,s,6.953174333961215,,,47,2024-12-17_12h51.35.409,EPIDM,2023.1.2,None,
7160.jpg,5270.jpg,0 Points,4 Points,,,,,,,,,,,,,,,,,0,66,66,66,,,,,,,,,,,j,2.500478582980577,,,47,2024-12-17_12h51.35.409,EPIDM,2023.1.2,None,
5593.jpg,5600.jpg,0 Points,5 Points,,,,,,,,,,,,,,,,,0,67,67,67,,,,,,,,,,,s,7.327016749972245,,,47,2024-12-17_12h51.35.409,EPIDM,2023.1.2,None,
2141.jpg,6211.jpg,5 Points,3 Points,,,,,,,,,,,,,,,,,0,68,68,68,,,,,,,,,,,a,3.712469082995085,,,47,2024-12-17_12h51.35.409,EPIDM,2023.1.2,None,
9190.jpg,7110.jpg,0 Points,5 Points,,,,,,,,,,,,,,,,,0,69,69,69,,,,,,,,,,,d,3.358370165951783,space,0.5439091659791302,47,2024-12-17_12h51.35.409,EPIDM,2023.1.2,None,
1113.jpg,6020.jpg,3 Points,2 Points,,,,,,,,,,,,,,,,,0,70,70,70,,,,,,,,,,,d,8.42988274997333,,,47,2024-12-17_12h51.35.409,EPIDM,2023.1.2,None,
5900.jpg,7503.jpg,3 Points,2 Points,,,,,,,,,,,,,,,,,0,71,71,71,,,,,,,,,,,j,2.388245249952888,,,47,2024-12-17_12h51.35.409,EPIDM,2023.1.2,None,
2580.jpg,1910.jpg,3 Points,2 Points,,,,,,,,,,,,,,,,,0,72,72,72,,,,,,,,,,,d,6.188166833977448,,,47,2024-12-17_12h51.35.409,EPIDM,2023.1.2,None,
7282.jpg,5849.jpg,3 Points,2 Points,,,,,,,,,,,,,,,,,0,73,73,73,,,,,,,,,,,d,3.2837564579676837,,,47,2024-12-17_12h51.35.409,EPIDM,2023.1.2,None,
2830.jpg,2681.jpg,5 Points,3 Points,,,,,,,,,,,,,,,,,0,74,74,74,,,,,,,,,,,a,4.093453124980442,,,47,2024-12-17_12h51.35.409,EPIDM,2023.1.2,None,
5629.jpg,5870.jpg,0 Points,5 Points,,,,,,,,,,,,,,,,,0,75,75,75,,,,,,,,,,,l,2.8654839169757906,,,47,2024-12-17_12h51.35.409,EPIDM,2023.1.2,None,
3061.jpg,3015.jpg,4 Points,5 Points,,,,,,,,,,,,,,,,,0,76,76,76,,,,,,,,,,,j,2.9829393749823794,,,47,2024-12-17_12h51.35.409,EPIDM,2023.1.2,None,
7350.jpg,7286.jpg,0 Points,5 Points,,,,,,,,,,,,,,,,,0,77,77,77,,,,,,,,,,,s,5.172996207955293,,,47,2024-12-17_12h51.35.409,EPIDM,2023.1.2,None,
6570.2.jpg,1510.jpg,3 Points,4 Points,,,,,,,,,,,,,,,,,0,78,78,78,,,,,,,,,,,k,2.4045988749712706,,,47,2024-12-17_12h51.35.409,EPIDM,2023.1.2,None,
7035.jpg,4660.jpg,1 Points,4 Points,,,,,,,,,,,,,,,,,0,79,79,79,,,,,,,,,,,l,2.2226327499956824,,,47,2024-12-17_12h51.35.409,EPIDM,2023.1.2,None,
5535.jpg,8460.jpg,3 Points,0 Points,,,,,,,,,,,,,,,,,0,80,80,80,,,,,,,,,,,k,2.726988124952186,,,47,2024-12-17_12h51.35.409,EPIDM,2023.1.2,None,
4510.jpg,F252.jpg,5 Points,0 Points,,,,,,,,,,,,,,,,,0,81,81,81,,,,,,,,,,,s,2.1389253749803174,,,47,2024-12-17_12h51.35.409,EPIDM,2023.1.2,None,
1220.jpg,8231.jpg,1 Point,4 Points,,,,,,,,,,,,,,,,,0,82,82,82,,,,,,,,,,,j,1.972192416957114,,,47,2024-12-17_12h51.35.409,EPIDM,2023.1.2,None,
5720.jpg,1616.jpg,3 Points,2 Points,,,,,,,,,,,,,,,,,0,83,83,83,,,,,,,,,,,d,5.254524791962467,,,47,2024-12-17_12h51.35.409,EPIDM,2023.1.2,None,
3170.jpg,6570.1.jpg,2 Points,5 Points,,,,,,,,,,,,,,,,,0,84,84,84,,,,,,,,,,,k,4.736329124978511,,,47,2024-12-17_12h51.35.409,EPIDM,2023.1.2,None,
1310.jpg,9913.jpg,4 Points,1 Points,,,,,,,,,,,,,,,,,0,85,85,85,,,,,,,,,,,d,4.605525040969951,space,1.079611290973844,47,2024-12-17_12h51.35.409,EPIDM,2023.1.2,None,
7352.jpg,2240.jpg,2 Points,5 Points,,,,,,,,,,,,,,,,,0,86,86,86,,,,,,,,,,,l,1.7779610419820528,,,47,2024-12-17_12h51.35.409,EPIDM,2023.1.2,None,
2683.jpg,7361.jpg,3 Points,2 Points,,,,,,,,,,,,,,,,,0,87,87,87,,,,,,,,,,,j,6.377906374953454,,,47,2024-12-17_12h51.35.409,EPIDM,2023.1.2,None,
2650.jpg,5621.jpg,5 Points,3 Points,,,,,,,,,,,,,,,,,0,88,88,88,,,,,,,,,,,a,4.381416957970941,,,47,2024-12-17_12h51.35.409,EPIDM,2023.1.2,None,
8090.jpg,5831.jpg,2 Points,3 Points,,,,,,,,,,,,,,,,,0,89,89,89,,,,,,,,,,,j,2.8660607089695986,,,47,2024-12-17_12h51.35.409,EPIDM,2023.1.2,None,
9007.jpg,1101.jpg,0 Points,3 Points,,,,,,,,,,,,,,,,,0,90,90,90,,,,,,,,,,,d,2.9321974169579335,,,47,2024-12-17_12h51.35.409,EPIDM,2023.1.2,None,
7034.jpg,9140.jpg,2 Points,3 Points,,,,,,,,,,,,,,,,,0,91,91,91,,,,,,,,,,,j,3.26614395796787,,,47,2024-12-17_12h51.35.409,EPIDM,2023.1.2,None,
3130.jpg,3230.jpg,4 Points,2 Points,,,,,,,,,,,,,,,,,0,92,92,92,,,,,,,,,,,s,3.43985137497657,,,47,2024-12-17_12h51.35.409,EPIDM,2023.1.2,None,
1525.jpg,7211.jpg,2 Points,3 Points,,,,,,,,,,,,,,,,,0,93,93,93,,,,,,,,,,,a,4.3496589589631185,,,47,2024-12-17_12h51.35.409,EPIDM,2023.1.2,None,
8350.jpg,5300.jpg,5 Points,1 Point,,,,,,,,,,,,,,,,,0,94,94,94,,,,,,,,,,,s,4.155989499966381,,,47,2024-12-17_12h51.35.409,EPIDM,2023.1.2,None,
2500.jpg,8010.jpg,5 Points,0 Points,,,,,,,,,,,,,,,,,0,95,95,95,,,,,,,,,,,d,3.2487242499773856,,,47,2024-12-17_12h51.35.409,EPIDM,2023.1.2,None,
F174.jpg,6212.jpg,5 Points,4 Points,,,,,,,,,,,,,,,,,0,96,96,96,,,,,,,,,,,k,2.225853916956112,,,47,2024-12-17_12h51.35.409,EPIDM,2023.1.2,None,
5994.jpg,5700.jpg,0 Points,5 Points,,,,,,,,,,,,,,,,,0,97,97,97,,,,,,,,,,,s,2.0769798339752015,,,47,2024-12-17_12h51.35.409,EPIDM,2023.1.2,None,
2570.jpg,5120.jpg,3 Points,2 Points,,,,,,,,,,,,,,,,,0,98,98,98,,,,,,,,,,,s,4.23164820796228,,,47,2024-12-17_12h51.35.409,EPIDM,2023.1.2,None,
7545.jpg,7320.jpg,5 Points,0 Points,,,,,,,,,,,,,,,,,0,99,99,99,,,,,,,,,,,d,2.442524999991292,,,47,2024-12-17_12h51.35.409,EPIDM,2023.1.2,None,
2220.jpg,2092.jpg,5 Points,0 Points,,,,,,,,,,,,,,,,,0,100,100,100,,,,,,,,,,,a,2.253378666966455,,,47,2024-12-17_12h51.35.409,EPIDM,2023.1.2,None,
9452.jpg,9700.jpg,4 Points,1 Points,,,,,,,,,,,,,,,,,0,101,101,101,,,,,,,,,,,d,6.265657958982047,space,0.8062585839943495,47,2024-12-17_12h51.35.409,EPIDM,2023.1.2,None,
1390.jpg,A025.jpg,2 Points,0 Points,,,,,,,,,,,,,,,,,0,102,102,102,,,,,,,,,,,k,2.282037874974776,,,47,2024-12-17_12h51.35.409,EPIDM,2023.1.2,None,
7182.jpg,7620.jpg,4 Points,1 Point,,,,,,,,,,,,,,,,,0,103,103,103,,,,,,,,,,,a,1.4350618749740534,,,47,2024-12-17_12h51.35.409,EPIDM,2023.1.2,None,
4608.jpg,2514.jpg,1 Point,5 Points,,,,,,,,,,,,,,,,,0,104,104,104,,,,,,,,,,,a,1.323222499981057,,,47,2024-12-17_12h51.35.409,EPIDM,2023.1.2,None,
2620.jpg,5470.jpg,0 Points,5 Points,,,,,,,,,,,,,,,,,0,105,105,105,,,,,,,,,,,l,1.953912874974776,,,47,2024-12-17_12h51.35.409,EPIDM,2023.1.2,None,
6242.jpg,3530.jpg,4 Points,1 Point,,,,,,,,,,,,,,,,,0,106,106,106,,,,,,,,,,,a,2.789786916982848,,,47,2024-12-17_12h51.35.409,EPIDM,2023.1.2,None,
5731.jpg,2480.jpg,4 Points,1 Point,,,,,,,,,,,,,,,,,0,107,107,107,,,,,,,,,,,j,3.386284165957477,,,47,2024-12-17_12h51.35.409,EPIDM,2023.1.2,None,
2130.jpg,7237.jpg,1 Points,4 Points,,,,,,,,,,,,,,,,,0,108,108,108,,,,,,,,,,,l,1.3543976249638945,,,47,2024-12-17_12h51.35.409,EPIDM,2023.1.2,None,
4770.jpg,5920.jpg,3 Points,2 Points,,,,,,,,,,,,,,,,,0,109,109,109,,,,,,,,,,,s,5.265125582984183,,,47,2024-12-17_12h51.35.409,EPIDM,2023.1.2,None,
8220.jpg,4689.jpg,4 Points,5 Points,,,,,,,,,,,,,,,,,0,110,110,110,,,,,,,,,,,k,2.3801608749781735,,,47,2024-12-17_12h51.35.409,EPIDM,2023.1.2,None,
7040.jpg,A041.jpg,4 Points,1 Point,,,,,,,,,,,,,,,,,0,111,111,111,,,,,,,,,,,s,2.6042235829809215,,,47,2024-12-17_12h51.35.409,EPIDM,2023.1.2,None,
6510.jpg,6190.jpg,2 Points,5 Points,,,,,,,,,,,,,,,,,0,112,112,112,,,,,,,,,,,k,2.49099212497822,,,47,2024-12-17_12h51.35.409,EPIDM,2023.1.2,None,
3060.jpg,7217.jpg,1 Point,4 Points,,,,,,,,,,,,,,,,,0,113,113,113,,,,,,,,,,,s,2.85170454197214,,,47,2024-12-17_12h51.35.409,EPIDM,2023.1.2,None,
3168.jpg,9070.jpg,4 Points,2 Points,,,,,,,,,,,,,,,,,0,114,114,114,,,,,,,,,,,a,4.290695332980249,,,47,2024-12-17_12h51.35.409,EPIDM,2023.1.2,None,
7207.jpg,2791.jpg,1 Points,4 Points,,,,,,,,,,,,,,,,,0,115,115,115,,,,,,,,,,,k,2.5751709579781163,,,47,2024-12-17_12h51.35.409,EPIDM,2023.1.2,None,
1640.jpg,1720.jpg,3 Points,4 Points,,,,,,,,,,,,,,,,,0,116,116,116,,,,,,,,,,,l,1.2221494169498328,,,47,2024-12-17_12h51.35.409,EPIDM,2023.1.2,None,
9300.jpg,7030.jpg,4 Points,1 Points,,,,,,,,,,,,,,,,,0,117,117,117,,,,,,,,,,,j,2.9371770419820677,space,0.8560078329755925,47,2024-12-17_12h51.35.409,EPIDM,2023.1.2,None,
1947.jpg,1811.jpg,5 Points,1 Point,,,,,,,,,,,,,,,,,0,118,118,118,,,,,,,,,,,s,1.999520749959629,,,47,2024-12-17_12h51.35.409,EPIDM,2023.1.2,None,
7020.jpg,2206.jpg,5 Points,0 Points,,,,,,,,,,,,,,,,,0,119,119,119,,,,,,,,,,,d,1.6105445829743985,,,47,2024-12-17_12h51.35.409,EPIDM,2023.1.2,None,
2753.jpg,P217.jpg,0 Points,5 Points,,,,,,,,,,,,,,,,,0,120,120,120,,,,,,,,,,,j,3.16846891597379,,,47,2024-12-17_12h51.35.409,EPIDM,2023.1.2,None,
3160.jpg,7080.jpg,1 Point,4 Points,,,,,,,,,,,,,,,,,0,121,121,121,,,,,,,,,,,j,1.9044904159673024,,,47,2024-12-17_12h51.35.409,EPIDM,2023.1.2,None,
2110.jpg,8260.jpg,5 Points,3 Points,,,,,,,,,,,,,,,,,0,122,122,122,,,,,,,,,,,l,1.887309749959968,,,47,2024-12-17_12h51.35.409,EPIDM,2023.1.2,None,
5740.jpg,7205.jpg,0 Points,5 Points,,,,,,,,,,,,,,,,,0,123,123,123,,,,,,,,,,,j,1.7861773339682259,,,47,2024-12-17_12h51.35.409,EPIDM,2023.1.2,None,
1660.jpg,7185.jpg,2 Points,1 Point,,,,,,,,,,,,,,,,,0,124,124,124,,,,,,,,,,,d,1.8305428749881685,,,47,2024-12-17_12h51.35.409,EPIDM,2023.1.2,None,
1450.jpg,5530.jpg,5 Points,0 Points,,,,,,,,,,,,,,,,,0,125,125,125,,,,,,,,,,,j,2.7552422089793254,,,47,2024-12-17_12h51.35.409,EPIDM,2023.1.2,None,
2276.jpg,9008.jpg,3 Points,1 Point,,,,,,,,,,,,,,,,,0,126,126,126,,,,,,,,,,,s,3.5402844999625813,,,47,2024-12-17_12h51.35.409,EPIDM,2023.1.2,None,
5628.jpg,5660.jpg,5 Points,0 Points,,,,,,,,,,,,,,,,,0,127,127,127,,,,,,,,,,,l,1.883236166991992,,,47,2024-12-17_12h51.35.409,EPIDM,2023.1.2,None,
4250.jpg,2499.jpg,5 Points,3 Points,,,,,,,,,,,,,,,,,0,128,128,128,,,,,,,,,,,a,1.7064818329527043,,,47,2024-12-17_12h51.35.409,EPIDM,2023.1.2,None,
2215.jpg,7050.jpg,1 Point,4 Points,,,,,,,,,,,,,,,,,0,129,129,129,,,,,,,,,,,d,2.041066707955906,,,47,2024-12-17_12h51.35.409,EPIDM,2023.1.2,None,
3550.jpg,9270.jpg,2 Points,0 Points,,,,,,,,,,,,,,,,,0,130,130,130,,,,,,,,,,,d,3.025998749973951,,,47,2024-12-17_12h51.35.409,EPIDM,2023.1.2,None,
5910.jpg,5800.jpg,5 Points,0 Points,,,,,,,,,,,,,,,,,0,131,131,131,,,,,,,,,,,j,7.860080791986547,,,47,2024-12-17_12h51.35.409,EPIDM,2023.1.2,None,
9592.jpg,3000.jpg,2 Points,5 Points,,,,,,,,,,,,,,,,,0,132,132,132,,,,,,,,,,,j,2.2291467920003925,,,47,2024-12-17_12h51.35.409,EPIDM,2023.1.2,None,
4233.jpg,5875.jpg,5 Points,0 Points,,,,,,,,,,,,,,,,,0,133,133,133,,,,,,,,,,,s,3.91013516599196,space,0.9758187089755666,47,2024-12-17_12h51.35.409,EPIDM,2023.1.2,None,
F273.jpg,2000.jpg,5 Points,0 Points,,,,,,,,,,,,,,,,,0,134,134,134,,,,,,,,,,,a,2.3547156669956166,,,47,2024-12-17_12h51.35.409,EPIDM,2023.1.2,None,
9600.jpg,7640.jpg,5 Points,0 Points,,,,,,,,,,,,,,,,,0,135,135,135,,,,,,,,,,,j,5.038204207958188,,,47,2024-12-17_12h51.35.409,EPIDM,2023.1.2,None,
1810.jpg,7238.jpg,3 Points,4 Points,,,,,,,,,,,,,,,,,0,136,136,136,,,,,,,,,,,l,1.0421849159756675,,,47,2024-12-17_12h51.35.409,EPIDM,2023.1.2,None,
9180.jpg,9630.jpg,3 Points,2 Points,,,,,,,,,,,,,,,,,0,137,137,137,,,,,,,,,,,d,2.32682195797679,,,47,2024-12-17_12h51.35.409,EPIDM,2023.1.2,None,
3071.jpg,2700.jpg,1 Point,3 Points,,,,,,,,,,,,,,,,,0,138,138,138,,,,,,,,,,,s,2.319856415997492,,,47,2024-12-17_12h51.35.409,EPIDM,2023.1.2,None,
7000.jpg,1321.jpg,2 Points,3 Points,,,,,,,,,,,,,,,,,0,139,139,139,,,,,,,,,,,k,1.8756612909492105,,,47,2024-12-17_12h51.35.409,EPIDM,2023.1.2,None,
1110.jpg,3150.jpg,2 Points,1 Point,,,,,,,,,,,,,,,,,0,140,140,140,,,,,,,,,,,k,3.015841707965592,,,47,2024-12-17_12h51.35.409,EPIDM,2023.1.2,None,
9400.jpg,9810.jpg,3 Points,2 Points,,,,,,,,,,,,,,,,,0,141,141,141,,,,,,,,,,,j,5.444452374998946,,,47,2024-12-17_12h51.35.409,EPIDM,2023.1.2,None,
8033.jpg,4534.jpg,3 Points,0 Points,,,,,,,,,,,,,,,,,0,142,142,142,,,,,,,,,,,d,8.721168791962555,,,47,2024-12-17_12h51.35.409,EPIDM,2023.1.2,None,
7502.jpg,9181.jpg,5 Points,0 Points,,,,,,,,,,,,,,,,,0,143,143,143,,,,,,,,,,,j,3.9210593339812476,,,47,2024-12-17_12h51.35.409,EPIDM,2023.1.2,None,
7175.jpg,8021.jpg,2 Points,4 Points,,,,,,,,,,,,,,,,,0,144,144,144,,,,,,,,,,,l,1.9498332079674583,,,47,2024-12-17_12h51.35.409,EPIDM,2023.1.2,None,
9280.jpg,9424.jpg,1 Point,4 Points,,,,,,,,,,,,,,,,,0,145,145,145,,,,,,,,,,,j,4.340927291981643,,,47,2024-12-17_12h51.35.409,EPIDM,2023.1.2,None,
2682.jpg,2710.jpg,5 Points,1 Point,,,,,,,,,,,,,,,,,0,146,146,146,,,,,,,,,,,s,2.7466139589669183,,,47,2024-12-17_12h51.35.409,EPIDM,2023.1.2,None,
7235.jpg,9182.jpg,3 Points,2 Points,,,,,,,,,,,,,,,,,0,147,147,147,,,,,,,,,,,k,3.1042041249747854,,,47,2024-12-17_12h51.35.409,EPIDM,2023.1.2,None,
7351.jpg,7187.jpg,4 Points,1 Point,,,,,,,,,,,,,,,,,0,148,148,148,,,,,,,,,,,a,2.8233114999893587,,,47,2024-12-17_12h51.35.409,EPIDM,2023.1.2,None,
9620.jpg,1230.jpg,1 Point,4 Points,,,,,,,,,,,,,,,,,0,149,149,149,,,,,,,,,,,d,2.1530922079691663,space,1.0443189579527825,47,2024-12-17_12h51.35.409,EPIDM,2023.1.2,None,
9410.jpg,9402.jpg,0 Points,2 Points,,,,,,,,,,,,,,,,,0,150,150,150,,,,,,,,,,,k,4.084865249984432,,,47,2024-12-17_12h51.35.409,EPIDM,2023.1.2,None,
2716.jpg,3250.jpg,2 Points,3 Points,,,,,,,,,,,,,,,,,0,151,151,151,,,,,,,,,,,d,5.629900290980004,,,47,2024-12-17_12h51.35.409,EPIDM,2023.1.2,None,
1070.jpg,3220.jpg,2 Points,5 Points,,,,,,,,,,,,,,,,,0,152,152,152,,,,,,,,,,,k,1.2612966669548769,,,47,2024-12-17_12h51.35.409,EPIDM,2023.1.2,None,
3053.jpg,7550.jpg,4 Points,1 Points,,,,,,,,,,,,,,,,,0,153,153,153,,,,,,,,,,,d,3.6675636249710806,,,47,2024-12-17_12h51.35.409,EPIDM,2023.1.2,None,
4613.jpg,1610.jpg,4 Points,0 Points,,,,,,,,,,,,,,,,,0,154,154,154,,,,,,,,,,,d,7.621295416989597,,,47,2024-12-17_12h51.35.409,EPIDM,2023.1.2,None,
5991.jpg,5750.jpg,0 Points,5 Points,,,,,,,,,,,,,,,,,0,155,155,155,,,,,,,,,,,k,4.384741791989654,,,47,2024-12-17_12h51.35.409,EPIDM,2023.1.2,None,
3010.jpg,1931.jpg,5 Points,3 Points,,,,,,,,,,,,,,,,,0,156,156,156,,,,,,,,,,,s,5.979456874949392,,,47,2024-12-17_12h51.35.409,EPIDM,2023.1.2,None,
6900.jpg,7095.jpg,4 Points,1 Points,,,,,,,,,,,,,,,,,0,157,157,157,,,,,,,,,,,k,2.095666208973853,,,47,2024-12-17_12h51.35.409,EPIDM,2023.1.2,None,
8500.jpg,1121.jpg,4 Points,0 Points,,,,,,,,,,,,,,,,,0,158,158,158,,,,,,,,,,,a,2.354091957968194,,,47,2024-12-17_12h51.35.409,EPIDM,2023.1.2,None,
7004.jpg,1019.jpg,5 Points,0 Points,,,,,,,,,,,,,,,,,0,159,159,159,,,,,,,,,,,j,1.0828173749905545,,,47,2024-12-17_12h51.35.409,EPIDM,2023.1.2,None,
