L_Scene,R_Scene,L_Pts,R_Pts,Instructions_Loop.thisRepN,Instructions_Loop.thisTrialN,Instructions_Loop.thisN,Instructions_Loop.thisIndex,Redo_Instructions_Loop.thisRepN,Redo_Instructions_Loop.thisTrialN,Redo_Instructions_Loop.thisN,Redo_Instructions_Loop.thisIndex,Practice_Recognition_Loop.thisRepN,Practice_Recognition_Loop.thisTrialN,Practice_Recognition_Loop.thisN,Practice_Recognition_Loop.thisIndex,Practice_FB_Loop.thisRepN,Practice_FB_Loop.thisTrialN,Practice_FB_Loop.thisN,Practice_FB_Loop.thisIndex,RecStim_Loop.thisRepN,RecStim_Loop.thisTrialN,RecStim_Loop.thisN,RecStim_Loop.thisIndex,FB_Loop.thisRepN,FB_Loop.thisTrialN,FB_Loop.thisN,FB_Loop.thisIndex,RecBrk_Loop.thisRepN,RecBrk_Loop.thisTrialN,RecBrk_Loop.thisN,RecBrk_Loop.thisIndex,Transition_Enc.keys,Transition_Enc.rt,Encoding_Resp.keys,Encoding_Resp.rt,EncBrk_Resp.keys,EncBrk_Resp.rt,participant,date,expName,psychopyVersion,frameRate,
,,,,,,,,,,,,,,,,,,,,,,,,,,,,,,,,space,9.073492625000654,,,,,61,2025-02-09_15h18.27.241,EPIDM,2023.1.2,None,
F078.jpg,L130.jpg,,,,,,,,,,,0,0,0,0,,,,,,,,,,,,,,,,,,,k,7.740696500000922,,,61,2025-02-09_15h18.27.241,EPIDM,2023.1.2,None,
P036.jpg,P217.jpg,,,,,,,,,,,0,1,1,1,,,,,,,,,,,,,,,,,,,d,6.593876833001559,,,61,2025-02-09_15h18.27.241,EPIDM,2023.1.2,None,
O161.jpg,F218.jpg,,,,,,,,,,,0,2,2,2,,,,,,,,,,,,,,,,,,,s,7.1844322500001,,,61,2025-02-09_15h18.27.241,EPIDM,2023.1.2,None,
F279.jpg,A001.jpg,,,,,,,,,,,0,3,3,3,,,,,,,,,,,,,,,,,,,s,4.867273500003648,,,61,2025-02-09_15h18.27.241,EPIDM,2023.1.2,None,
F273.jpg,A060.jpg,,,,,,,,,,,0,4,4,4,,,,,,,,,,,,,,,,,,,k,7.029682000003959,,,61,2025-02-09_15h18.27.241,EPIDM,2023.1.2,None,
2393.jpg,L055.jpg,,,,,,,,,,,0,5,5,5,,,,,,,,,,,,,,,,,,,j,4.50563350000084,,,61,2025-02-09_15h18.27.241,EPIDM,2023.1.2,None,
1812.jpg,2593.jpg,,,,,,,,,,,0,6,6,6,,,,,,,,,,,,,,,,,,,s,5.904970042000059,,,61,2025-02-09_15h18.27.241,EPIDM,2023.1.2,None,
O013.jpg,A067.jpg,,,,,,,,,,,0,7,7,7,,,,,,,,,,,,,,,,,,,j,6.261739292003767,,,61,2025-02-09_15h18.27.241,EPIDM,2023.1.2,None,
P033.jpg,P034.jpg,,,,,,,,,,,0,8,8,8,,,,,,,,,,,,,,,,,,,k,4.637131791001593,,,61,2025-02-09_15h18.27.241,EPIDM,2023.1.2,None,
A104.jpg,8186.jpg,,,,,,,,,,,0,9,9,9,,,,,,,,,,,,,,,,,,,k,4.73709216700081,,,61,2025-02-09_15h18.27.241,EPIDM,2023.1.2,None,
,,,,,,,,,,,,,,,,,,,,,,,,,,,,,,,,space,10.899875667000742,,,,,61,2025-02-09_15h18.27.241,EPIDM,2023.1.2,None,
2271.jpg,9405.jpg,2 Points,3 Points,,,,,,,,,,,,,,,,,0,0,0,0,,,,,,,,,,,d,7.927390625001863,,,61,2025-02-09_15h18.27.241,EPIDM,2023.1.2,None,
2120.jpg,7004.jpg,0 Points,5 Points,,,,,,,,,,,,,,,,,0,1,1,1,,,,,,,,,,,j,23.126718916002574,,,61,2025-02-09_15h18.27.241,EPIDM,2023.1.2,None,
6360.jpg,6834.jpg,1 Point,5 Points,,,,,,,,,,,,,,,,,0,2,2,2,,,,,,,,,,,j,11.774059041999863,,,61,2025-02-09_15h18.27.241,EPIDM,2023.1.2,None,
7095.jpg,6900.jpg,1 Points,4 Points,,,,,,,,,,,,,,,,,0,3,3,3,,,,,,,,,,,s,11.896803750001709,,,61,2025-02-09_15h18.27.241,EPIDM,2023.1.2,None,
5455.jpg,7570.jpg,0 Points,5 Points,,,,,,,,,,,,,,,,,0,4,4,4,,,,,,,,,,,l,4.376806625001336,,,61,2025-02-09_15h18.27.241,EPIDM,2023.1.2,None,
5594.jpg,5991.jpg,5 Points,0 Points,,,,,,,,,,,,,,,,,0,5,5,5,,,,,,,,,,,a,5.900948667003831,space,6.097316999999748,61,2025-02-09_15h18.27.241,EPIDM,2023.1.2,None,
9912.jpg,9050.jpg,5 Points,4 Points,,,,,,,,,,,,,,,,,0,6,6,6,,,,,,,,,,,j,18.028380291001668,,,61,2025-02-09_15h18.27.241,EPIDM,2023.1.2,None,
7550.jpg,3053.jpg,1 Points,4 Points,,,,,,,,,,,,,,,,,0,7,7,7,,,,,,,,,,,s,12.557502209001541,,,61,2025-02-09_15h18.27.241,EPIDM,2023.1.2,None,
9250.jpg,6840.jpg,0 Points,1 Points,,,,,,,,,,,,,,,,,0,8,8,8,,,,,,,,,,,j,11.114660041002935,,,61,2025-02-09_15h18.27.241,EPIDM,2023.1.2,None,
3250.jpg,2716.jpg,3 Points,2 Points,,,,,,,,,,,,,,,,,0,9,9,9,,,,,,,,,,,s,7.449902750002366,,,61,2025-02-09_15h18.27.241,EPIDM,2023.1.2,None,
2518.jpg,1313.jpg,1 Point,4 Points,,,,,,,,,,,,,,,,,0,10,10,10,,,,,,,,,,,l,11.907373083002312,,,61,2025-02-09_15h18.27.241,EPIDM,2023.1.2,None,
1230.jpg,9620.jpg,4 Points,1 Point,,,,,,,,,,,,,,,,,0,11,11,11,,,,,,,,,,,d,8.043667084002664,,,61,2025-02-09_15h18.27.241,EPIDM,2023.1.2,None,
6000.jpg,5940.jpg,4 Points,0 Points,,,,,,,,,,,,,,,,,0,12,12,12,,,,,,,,,,,k,5.016127375001815,,,61,2025-02-09_15h18.27.241,EPIDM,2023.1.2,None,
9182.jpg,7235.jpg,2 Points,3 Points,,,,,,,,,,,,,,,,,0,13,13,13,,,,,,,,,,,j,10.764150209004583,,,61,2025-02-09_15h18.27.241,EPIDM,2023.1.2,None,
2600.jpg,1560.jpg,1 Point,0 Points,,,,,,,,,,,,,,,,,0,14,14,14,,,,,,,,,,,s,13.591459417002625,,,61,2025-02-09_15h18.27.241,EPIDM,2023.1.2,None,
9424.jpg,9280.jpg,4 Points,1 Point,,,,,,,,,,,,,,,,,0,15,15,15,,,,,,,,,,,d,8.18619575000048,,,61,2025-02-09_15h18.27.241,EPIDM,2023.1.2,None,
5030.jpg,8160.jpg,3 Points,2 Points,,,,,,,,,,,,,,,,,0,16,16,16,,,,,,,,,,,a,5.073651583003084,,,61,2025-02-09_15h18.27.241,EPIDM,2023.1.2,None,
9230.jpg,7502.jpg,0 Points,5 Points,,,,,,,,,,,,,,,,,0,17,17,17,,,,,,,,,,,k,32.07216595900172,,,61,2025-02-09_15h18.27.241,EPIDM,2023.1.2,None,
6910.jpg,9160.jpg,0 Points,4 Points,,,,,,,,,,,,,,,,,0,18,18,18,,,,,,,,,,,j,9.115260250004212,,,61,2025-02-09_15h18.27.241,EPIDM,2023.1.2,None,
9810.jpg,9400.jpg,2 Points,3 Points,,,,,,,,,,,,,,,,,0,19,19,19,,,,,,,,,,,k,8.295291250000446,,,61,2025-02-09_15h18.27.241,EPIDM,2023.1.2,None,
9910.jpg,9561.jpg,2 Points,3 Points,,,,,,,,,,,,,,,,,0,20,20,20,,,,,,,,,,,k,7.23861087500336,,,61,2025-02-09_15h18.27.241,EPIDM,2023.1.2,None,
1661.jpg,7000.jpg,3 Points,2 Points,,,,,,,,,,,,,,,,,0,21,21,21,,,,,,,,,,,s,7.303450375002285,space,4.465930958001991,61,2025-02-09_15h18.27.241,EPIDM,2023.1.2,None,
1740.jpg,2385.jpg,0 Points,3 Points,,,,,,,,,,,,,,,,,0,22,22,22,,,,,,,,,,,d,13.241511500000342,,,61,2025-02-09_15h18.27.241,EPIDM,2023.1.2,None,
9630.jpg,9180.jpg,2 Points,3 Points,,,,,,,,,,,,,,,,,0,23,23,23,,,,,,,,,,,d,4.11292300000423,,,61,2025-02-09_15h18.27.241,EPIDM,2023.1.2,None,
9210.jpg,9254.jpg,1 Point,2 Points,,,,,,,,,,,,,,,,,0,24,24,24,,,,,,,,,,,s,5.129432958005054,,,61,2025-02-09_15h18.27.241,EPIDM,2023.1.2,None,
7640.jpg,9600.jpg,0 Points,5 Points,,,,,,,,,,,,,,,,,0,25,25,25,,,,,,,,,,,j,8.976977917001932,,,61,2025-02-09_15h18.27.241,EPIDM,2023.1.2,None,
3022.jpg,6530.jpg,0 Points,1 Point,,,,,,,,,,,,,,,,,0,26,26,26,,,,,,,,,,,d,7.254455042002519,,,61,2025-02-09_15h18.27.241,EPIDM,2023.1.2,None,
5875.jpg,7285.jpg,0 Points,5 Points,,,,,,,,,,,,,,,,,0,27,27,27,,,,,,,,,,,s,6.147543875002157,,,61,2025-02-09_15h18.27.241,EPIDM,2023.1.2,None,
8465.jpg,2590.jpg,1 Point,4 Points,,,,,,,,,,,,,,,,,0,28,28,28,,,,,,,,,,,k,8.595395709002332,,,61,2025-02-09_15h18.27.241,EPIDM,2023.1.2,None,
5800.jpg,5910.jpg,0 Points,5 Points,,,,,,,,,,,,,,,,,0,29,29,29,,,,,,,,,,,j,5.341448457998922,,,61,2025-02-09_15h18.27.241,EPIDM,2023.1.2,None,
8311.jpg,8161.jpg,2 Points,4 Points,,,,,,,,,,,,,,,,,0,30,30,30,,,,,,,,,,,s,4.8400004579998495,,,61,2025-02-09_15h18.27.241,EPIDM,2023.1.2,None,
7050.jpg,2512.jpg,4 Points,1 Point,,,,,,,,,,,,,,,,,0,31,31,31,,,,,,,,,,,k,8.31873033300144,,,61,2025-02-09_15h18.27.241,EPIDM,2023.1.2,None,
3300.jpg,9000.jpg,0 Points,4 Points,,,,,,,,,,,,,,,,,0,32,32,32,,,,,,,,,,,d,17.611763458000496,,,61,2025-02-09_15h18.27.241,EPIDM,2023.1.2,None,
5660.jpg,5628.jpg,0 Points,5 Points,,,,,,,,,,,,,,,,,0,33,33,33,,,,,,,,,,,s,3.38946662500166,,,61,2025-02-09_15h18.27.241,EPIDM,2023.1.2,None,
2752.jpg,3266.jpg,2 Points,1 Point,,,,,,,,,,,,,,,,,0,34,34,34,,,,,,,,,,,a,6.224544625001727,,,61,2025-02-09_15h18.27.241,EPIDM,2023.1.2,None,
5530.jpg,1450.jpg,0 Points,5 Points,,,,,,,,,,,,,,,,,0,35,35,35,,,,,,,,,,,k,3.284814875001757,,,61,2025-02-09_15h18.27.241,EPIDM,2023.1.2,None,
8232.jpg,2495.jpg,5 Points,0 Points,,,,,,,,,,,,,,,,,0,36,36,36,,,,,,,,,,,j,9.266876041001524,,,61,2025-02-09_15h18.27.241,EPIDM,2023.1.2,None,
2100.jpg,5740.jpg,5 Points,0 Points,,,,,,,,,,,,,,,,,0,37,37,37,,,,,,,,,,,l,3.9684524170006625,space,9.201463291999971,61,2025-02-09_15h18.27.241,EPIDM,2023.1.2,None,
9571.jpg,1945.jpg,2 Points,4 Points,,,,,,,,,,,,,,,,,0,38,38,38,,,,,,,,,,,k,8.353585166001722,,,61,2025-02-09_15h18.27.241,EPIDM,2023.1.2,None,
7080.jpg,3160.jpg,4 Points,1 Point,,,,,,,,,,,,,,,,,0,39,39,39,,,,,,,,,,,s,2.9350099160001264,,,61,2025-02-09_15h18.27.241,EPIDM,2023.1.2,None,
9265.jpg,P211.jpg,0 Points,4 Points,,,,,,,,,,,,,,,,,0,40,40,40,,,,,,,,,,,s,4.426489250003215,,,61,2025-02-09_15h18.27.241,EPIDM,2023.1.2,None,
6150.jpg,7020.jpg,0 Points,5 Points,,,,,,,,,,,,,,,,,0,41,41,41,,,,,,,,,,,d,7.418641917000059,,,61,2025-02-09_15h18.27.241,EPIDM,2023.1.2,None,
2280.jpg,7170.jpg,4 Points,2 Points,,,,,,,,,,,,,,,,,0,42,42,42,,,,,,,,,,,a,5.931147750005039,,,61,2025-02-09_15h18.27.241,EPIDM,2023.1.2,None,
7030.jpg,9300.jpg,1 Points,4 Points,,,,,,,,,,,,,,,,,0,43,43,43,,,,,,,,,,,j,4.415917750004155,,,61,2025-02-09_15h18.27.241,EPIDM,2023.1.2,None,
2661.jpg,2520.jpg,5 Points,2 Points,,,,,,,,,,,,,,,,,0,44,44,44,,,,,,,,,,,j,3.5214283339992107,,,61,2025-02-09_15h18.27.241,EPIDM,2023.1.2,None,
2791.jpg,7207.jpg,4 Points,1 Points,,,,,,,,,,,,,,,,,0,45,45,45,,,,,,,,,,,d,6.759506958002021,,,61,2025-02-09_15h18.27.241,EPIDM,2023.1.2,None,
3030.jpg,P237.jpg,0 Points,2 Points,,,,,,,,,,,,,,,,,0,46,46,46,,,,,,,,,,,s,3.9645207500034303,,,61,2025-02-09_15h18.27.241,EPIDM,2023.1.2,None,
7217.jpg,P233.jpg,4 Points,1 Point,,,,,,,,,,,,,,,,,0,47,47,47,,,,,,,,,,,k,10.222645583002304,,,61,2025-02-09_15h18.27.241,EPIDM,2023.1.2,None,
P222.jpg,3051.jpg,2 Points,1 Point,,,,,,,,,,,,,,,,,0,48,48,48,,,,,,,,,,,j,3.9027393750038755,,,61,2025-02-09_15h18.27.241,EPIDM,2023.1.2,None,
A041.jpg,7040.jpg,1 Point,4 Points,,,,,,,,,,,,,,,,,0,49,49,49,,,,,,,,,,,j,5.065242958000454,,,61,2025-02-09_15h18.27.241,EPIDM,2023.1.2,None,
8200.jpg,2312.jpg,4 Points,1 Points,,,,,,,,,,,,,,,,,0,50,50,50,,,,,,,,,,,j,5.134887832999084,,,61,2025-02-09_15h18.27.241,EPIDM,2023.1.2,None,
5920.jpg,4770.jpg,2 Points,3 Points,,,,,,,,,,,,,,,,,0,51,51,51,,,,,,,,,,,l,3.023079541999323,,,61,2025-02-09_15h18.27.241,EPIDM,2023.1.2,None,
1052.jpg,F365.jpg,3 Points,5 Points,,,,,,,,,,,,,,,,,0,52,52,52,,,,,,,,,,,k,7.754074625001522,,,61,2025-02-09_15h18.27.241,EPIDM,2023.1.2,None,
2480.jpg,5731.jpg,1 Point,4 Points,,,,,,,,,,,,,,,,,0,53,53,53,,,,,,,,,,,d,3.511617917003605,space,13.54718800000046,61,2025-02-09_15h18.27.241,EPIDM,2023.1.2,None,
2487.jpg,4598.jpg,2 Points,1 Point,,,,,,,,,,,,,,,,,0,54,54,54,,,,,,,,,,,d,10.045503958001063,,,61,2025-02-09_15h18.27.241,EPIDM,2023.1.2,None,
5470.jpg,2620.jpg,5 Points,0 Points,,,,,,,,,,,,,,,,,0,55,55,55,,,,,,,,,,,a,3.9888073330039333,,,61,2025-02-09_15h18.27.241,EPIDM,2023.1.2,None,
3100.jpg,3062.jpg,2 Points,3 Points,,,,,,,,,,,,,,,,,0,56,56,56,,,,,,,,,,,j,4.773137917003623,,,61,2025-02-09_15h18.27.241,EPIDM,2023.1.2,None,
5395.jpg,7182.jpg,1 Point,4 Points,,,,,,,,,,,,,,,,,0,57,57,57,,,,,,,,,,,d,7.348438833003456,,,61,2025-02-09_15h18.27.241,EPIDM,2023.1.2,None,
5982.jpg,5760.jpg,5 Points,1 Point,,,,,,,,,,,,,,,,,0,58,58,58,,,,,,,,,,,k,5.482715500002087,,,61,2025-02-09_15h18.27.241,EPIDM,2023.1.2,None,
9700.jpg,9452.jpg,1 Points,4 Points,,,,,,,,,,,,,,,,,0,59,59,59,,,,,,,,,,,k,6.70891391600162,,,61,2025-02-09_15h18.27.241,EPIDM,2023.1.2,None,
F158.jpg,9582.jpg,3 Points,5 Points,,,,,,,,,,,,,,,,,0,60,60,60,,,,,,,,,,,s,4.171259000002465,,,61,2025-02-09_15h18.27.241,EPIDM,2023.1.2,None,
2389.jpg,7545.jpg,0 Points,5 Points,,,,,,,,,,,,,,,,,0,61,61,61,,,,,,,,,,,d,6.198494292002579,,,61,2025-02-09_15h18.27.241,EPIDM,2023.1.2,None,
F032.jpg,1080.jpg,1 Point,4 Points,,,,,,,,,,,,,,,,,0,62,62,62,,,,,,,,,,,d,13.785448667003948,,,61,2025-02-09_15h18.27.241,EPIDM,2023.1.2,None,
5700.jpg,5994.jpg,5 Points,0 Points,,,,,,,,,,,,,,,,,0,63,63,63,,,,,,,,,,,s,5.455763625002874,,,61,2025-02-09_15h18.27.241,EPIDM,2023.1.2,None,
7580.jpg,7546.jpg,3 Points,2 Points,,,,,,,,,,,,,,,,,0,64,64,64,,,,,,,,,,,d,2.7663286659990263,,,61,2025-02-09_15h18.27.241,EPIDM,2023.1.2,None,
8010.jpg,2500.jpg,0 Points,5 Points,,,,,,,,,,,,,,,,,0,65,65,65,,,,,,,,,,,j,3.0381419580044167,,,61,2025-02-09_15h18.27.241,EPIDM,2023.1.2,None,
7160.jpg,2560.jpg,0 Points,4 Points,,,,,,,,,,,,,,,,,0,66,66,66,,,,,,,,,,,s,4.338784625000699,,,61,2025-02-09_15h18.27.241,EPIDM,2023.1.2,None,
7211.jpg,6561.jpg,3 Points,2 Points,,,,,,,,,,,,,,,,,0,67,67,67,,,,,,,,,,,j,12.073078625002381,,,61,2025-02-09_15h18.27.241,EPIDM,2023.1.2,None,
6831.jpg,9611.jpg,5 Points,3 Points,,,,,,,,,,,,,,,,,0,68,68,68,,,,,,,,,,,s,4.247578250004153,,,61,2025-02-09_15h18.27.241,EPIDM,2023.1.2,None,
9140.jpg,7034.jpg,3 Points,2 Points,,,,,,,,,,,,,,,,,0,69,69,69,,,,,,,,,,,s,5.722217625003395,space,1.945482584000274,61,2025-02-09_15h18.27.241,EPIDM,2023.1.2,None,
1113.jpg,6300.jpg,3 Points,2 Points,,,,,,,,,,,,,,,,,0,70,70,70,,,,,,,,,,,k,8.771889458002988,,,61,2025-02-09_15h18.27.241,EPIDM,2023.1.2,None,
5831.jpg,7220.jpg,3 Points,2 Points,,,,,,,,,,,,,,,,,0,71,71,71,,,,,,,,,,,s,4.415207250003732,,,61,2025-02-09_15h18.27.241,EPIDM,2023.1.2,None,
2580.jpg,2575.jpg,3 Points,2 Points,,,,,,,,,,,,,,,,,0,72,72,72,,,,,,,,,,,k,5.173888250003074,,,61,2025-02-09_15h18.27.241,EPIDM,2023.1.2,None,
6010.jpg,2683.jpg,2 Points,3 Points,,,,,,,,,,,,,,,,,0,73,73,73,,,,,,,,,,,s,6.370478291999461,,,61,2025-02-09_15h18.27.241,EPIDM,2023.1.2,None,
2830.jpg,7100.jpg,5 Points,3 Points,,,,,,,,,,,,,,,,,0,74,74,74,,,,,,,,,,,k,4.127303166002093,,,61,2025-02-09_15h18.27.241,EPIDM,2023.1.2,None,
9913.jpg,3181.jpg,1 Points,4 Points,,,,,,,,,,,,,,,,,0,75,75,75,,,,,,,,,,,k,5.46254483300072,,,61,2025-02-09_15h18.27.241,EPIDM,2023.1.2,None,
2717.jpg,3015.jpg,4 Points,5 Points,,,,,,,,,,,,,,,,,0,76,76,76,,,,,,,,,,,d,3.7907067090018245,,,61,2025-02-09_15h18.27.241,EPIDM,2023.1.2,None,
2383.jpg,5720.jpg,2 Points,3 Points,,,,,,,,,,,,,,,,,0,77,77,77,,,,,,,,,,,j,12.792871708999883,,,61,2025-02-09_15h18.27.241,EPIDM,2023.1.2,None,
4100.jpg,4605.jpg,3 Points,4 Points,,,,,,,,,,,,,,,,,0,78,78,78,,,,,,,,,,,s,5.479784541003028,,,61,2025-02-09_15h18.27.241,EPIDM,2023.1.2,None,
F252.jpg,2230.jpg,0 Points,5 Points,,,,,,,,,,,,,,,,,0,79,79,79,,,,,,,,,,,k,5.227843167001993,,,61,2025-02-09_15h18.27.241,EPIDM,2023.1.2,None,
8210.jpg,8330.jpg,3 Points,0 Points,,,,,,,,,,,,,,,,,0,80,80,80,,,,,,,,,,,s,4.3646267500007525,,,61,2025-02-09_15h18.27.241,EPIDM,2023.1.2,None,
4660.jpg,7035.jpg,4 Points,1 Points,,,,,,,,,,,,,,,,,0,81,81,81,,,,,,,,,,,a,2.548424332999275,,,61,2025-02-09_15h18.27.241,EPIDM,2023.1.2,None,
7380.jpg,8231.jpg,1 Point,4 Points,,,,,,,,,,,,,,,,,0,82,82,82,,,,,,,,,,,a,4.656194666004012,,,61,2025-02-09_15h18.27.241,EPIDM,2023.1.2,None,
7286.jpg,2485.jpg,5 Points,0 Points,,,,,,,,,,,,,,,,,0,83,83,83,,,,,,,,,,,j,6.525144584000373,,,61,2025-02-09_15h18.27.241,EPIDM,2023.1.2,None,
3170.jpg,9432.jpg,2 Points,5 Points,,,,,,,,,,,,,,,,,0,84,84,84,,,,,,,,,,,l,3.4966396250019898,,,61,2025-02-09_15h18.27.241,EPIDM,2023.1.2,None,
5870.jpg,5629.jpg,5 Points,0 Points,,,,,,,,,,,,,,,,,0,85,85,85,,,,,,,,,,,d,4.716589292002027,space,3.7524221660023613,61,2025-02-09_15h18.27.241,EPIDM,2023.1.2,None,
7352.jpg,2240.jpg,2 Points,5 Points,,,,,,,,,,,,,,,,,0,86,86,86,,,,,,,,,,,d,6.622387334002269,,,61,2025-02-09_15h18.27.241,EPIDM,2023.1.2,None,
5849.jpg,2749.jpg,2 Points,3 Points,,,,,,,,,,,,,,,,,0,87,87,87,,,,,,,,,,,k,2.2531918339991535,,,61,2025-02-09_15h18.27.241,EPIDM,2023.1.2,None,
4531.jpg,5621.jpg,5 Points,3 Points,,,,,,,,,,,,,,,,,0,88,88,88,,,,,,,,,,,a,2.934231250001176,,,61,2025-02-09_15h18.27.241,EPIDM,2023.1.2,None,
2190.jpg,5900.jpg,2 Points,3 Points,,,,,,,,,,,,,,,,,0,89,89,89,,,,,,,,,,,s,3.116059750002023,,,61,2025-02-09_15h18.27.241,EPIDM,2023.1.2,None,
9320.jpg,2900.jpg,0 Points,3 Points,,,,,,,,,,,,,,,,,0,90,90,90,,,,,,,,,,,j,4.858140041000297,,,61,2025-02-09_15h18.27.241,EPIDM,2023.1.2,None,
7110.jpg,6800.jpg,5 Points,0 Points,,,,,,,,,,,,,,,,,0,91,91,91,,,,,,,,,,,j,3.580884667000646,,,61,2025-02-09_15h18.27.241,EPIDM,2023.1.2,None,
3130.jpg,6312.jpg,4 Points,2 Points,,,,,,,,,,,,,,,,,0,92,92,92,,,,,,,,,,,s,5.161974584003474,,,61,2025-02-09_15h18.27.241,EPIDM,2023.1.2,None,
5600.jpg,5593.jpg,5 Points,0 Points,,,,,,,,,,,,,,,,,0,93,93,93,,,,,,,,,,,l,2.7261139580004965,,,61,2025-02-09_15h18.27.241,EPIDM,2023.1.2,None,
7190.jpg,5300.jpg,5 Points,1 Point,,,,,,,,,,,,,,,,,0,94,94,94,,,,,,,,,,,s,3.3568217090032704,,,61,2025-02-09_15h18.27.241,EPIDM,2023.1.2,None,
5820.jpg,5020.jpg,5 Points,0 Points,,,,,,,,,,,,,,,,,0,95,95,95,,,,,,,,,,,k,2.3627318750004633,,,61,2025-02-09_15h18.27.241,EPIDM,2023.1.2,None,
F174.jpg,6830.jpg,5 Points,4 Points,,,,,,,,,,,,,,,,,0,96,96,96,,,,,,,,,,,l,2.8594024590020126,,,61,2025-02-09_15h18.27.241,EPIDM,2023.1.2,None,
1850.jpg,7233.jpg,5 Points,0 Points,,,,,,,,,,,,,,,,,0,97,97,97,,,,,,,,,,,a,3.672187375002977,,,61,2025-02-09_15h18.27.241,EPIDM,2023.1.2,None,
2570.jpg,5120.jpg,3 Points,2 Points,,,,,,,,,,,,,,,,,0,98,98,98,,,,,,,,,,,j,4.264257917002396,,,61,2025-02-09_15h18.27.241,EPIDM,2023.1.2,None,
1274.jpg,9440.jpg,1 Points,4 Points,,,,,,,,,,,,,,,,,0,99,99,99,,,,,,,,,,,k,2.3081780840002466,,,61,2025-02-09_15h18.27.241,EPIDM,2023.1.2,None,
2010.jpg,2210.jpg,5 Points,0 Points,,,,,,,,,,,,,,,,,0,100,100,100,,,,,,,,,,,a,4.176839000003383,,,61,2025-02-09_15h18.27.241,EPIDM,2023.1.2,None,
5990.jpg,5890.jpg,3 Points,2 Points,,,,,,,,,,,,,,,,,0,101,101,101,,,,,,,,,,,a,3.323786000000837,space,16.08019179200346,61,2025-02-09_15h18.27.241,EPIDM,2023.1.2,None,
9421.jpg,A025.jpg,2 Points,0 Points,,,,,,,,,,,,,,,,,0,102,102,102,,,,,,,,,,,j,14.169476750001195,,,61,2025-02-09_15h18.27.241,EPIDM,2023.1.2,None,
1603.jpg,5000.jpg,1 Points,4 Points,,,,,,,,,,,,,,,,,0,103,103,103,,,,,,,,,,,k,1.534725666999293,,,61,2025-02-09_15h18.27.241,EPIDM,2023.1.2,None,
4608.jpg,2514.jpg,1 Point,5 Points,,,,,,,,,,,,,,,,,0,104,104,104,,,,,,,,,,,d,0.07422845900146058,,,61,2025-02-09_15h18.27.241,EPIDM,2023.1.2,None,
7920.jpg,7224.jpg,3 Points,2 Points,,,,,,,,,,,,,,,,,0,105,105,105,,,,,,,,,,,k,3.773217708003358,,,61,2025-02-09_15h18.27.241,EPIDM,2023.1.2,None,
F034.jpg,3530.jpg,4 Points,1 Point,,,,,,,,,,,,,,,,,0,106,106,106,,,,,,,,,,,d,3.098935124999116,,,61,2025-02-09_15h18.27.241,EPIDM,2023.1.2,None,
7130.jpg,3210.jpg,4 Points,1 Point,,,,,,,,,,,,,,,,,0,107,107,107,,,,,,,,,,,k,5.8886075420014095,,,61,2025-02-09_15h18.27.241,EPIDM,2023.1.2,None,
2130.jpg,7237.jpg,1 Points,4 Points,,,,,,,,,,,,,,,,,0,108,108,108,,,,,,,,,,,k,5.840402833000553,,,61,2025-02-09_15h18.27.241,EPIDM,2023.1.2,None,
3400.jpg,7025.jpg,2 Points,3 Points,,,,,,,,,,,,,,,,,0,109,109,109,,,,,,,,,,,k,2.6402297080021526,,,61,2025-02-09_15h18.27.241,EPIDM,2023.1.2,None,
2410.jpg,7009.jpg,4 Points,5 Points,,,,,,,,,,,,,,,,,0,110,110,110,,,,,,,,,,,s,4.931215209002403,,,61,2025-02-09_15h18.27.241,EPIDM,2023.1.2,None,
7031.jpg,1022.jpg,4 Points,1 Point,,,,,,,,,,,,,,,,,0,111,111,111,,,,,,,,,,,j,3.825455750000401,,,61,2025-02-09_15h18.27.241,EPIDM,2023.1.2,None,
A074.jpg,3120.jpg,2 Points,5 Points,,,,,,,,,,,,,,,,,0,112,112,112,,,,,,,,,,,s,4.534466000004613,,,61,2025-02-09_15h18.27.241,EPIDM,2023.1.2,None,
6838.jpg,9621.jpg,5 Points,0 Points,,,,,,,,,,,,,,,,,0,113,113,113,,,,,,,,,,,s,5.089291416999913,,,61,2025-02-09_15h18.27.241,EPIDM,2023.1.2,None,
3064.jpg,9420.jpg,4 Points,2 Points,,,,,,,,,,,,,,,,,0,114,114,114,,,,,,,,,,,j,3.1021627910013194,,,61,2025-02-09_15h18.27.241,EPIDM,2023.1.2,None,
9830.jpg,8480.jpg,4 Points,1 Point,,,,,,,,,,,,,,,,,0,115,115,115,,,,,,,,,,,d,4.788027834001696,,,61,2025-02-09_15h18.27.241,EPIDM,2023.1.2,None,
5531.jpg,1720.jpg,3 Points,4 Points,,,,,,,,,,,,,,,,,0,116,116,116,,,,,,,,,,,k,7.235709334003332,,,61,2025-02-09_15h18.27.241,EPIDM,2023.1.2,None,
2702.jpg,7140.jpg,5 Points,0 Points,,,,,,,,,,,,,,,,,0,117,117,117,,,,,,,,,,,s,4.506868500000564,space,17.835490249999566,61,2025-02-09_15h18.27.241,EPIDM,2023.1.2,None,
1947.jpg,1811.jpg,5 Points,1 Point,,,,,,,,,,,,,,,,,0,118,118,118,,,,,,,,,,,k,4.760043083999335,,,61,2025-02-09_15h18.27.241,EPIDM,2023.1.2,None,
7705.jpg,6250.1.jpg,5 Points,0 Points,,,,,,,,,,,,,,,,,0,119,119,119,,,,,,,,,,,s,3.031087416002265,,,61,2025-02-09_15h18.27.241,EPIDM,2023.1.2,None,
9042.jpg,P217.jpg,0 Points,5 Points,,,,,,,,,,,,,,,,,0,120,120,120,,,,,,,,,,,s,3.626614750002773,,,61,2025-02-09_15h18.27.241,EPIDM,2023.1.2,None,
7234.jpg,5626.jpg,3 Points,2 Points,,,,,,,,,,,,,,,,,0,121,121,121,,,,,,,,,,,j,2.8155525000038324,,,61,2025-02-09_15h18.27.241,EPIDM,2023.1.2,None,
2110.jpg,8280.jpg,5 Points,3 Points,,,,,,,,,,,,,,,,,0,122,122,122,,,,,,,,,,,l,4.035745666002185,,,61,2025-02-09_15h18.27.241,EPIDM,2023.1.2,None,
5950.jpg,9920.jpg,0 Points,5 Points,,,,,,,,,,,,,,,,,0,123,123,123,,,,,,,,,,,k,4.027927250001085,,,61,2025-02-09_15h18.27.241,EPIDM,2023.1.2,None,
1660.jpg,7185.jpg,2 Points,1 Point,,,,,,,,,,,,,,,,,0,124,124,124,,,,,,,,,,,j,16.444172459003312,,,61,2025-02-09_15h18.27.241,EPIDM,2023.1.2,None,
2690.jpg,7090.jpg,1 Point,4 Points,,,,,,,,,,,,,,,,,0,125,125,125,,,,,,,,,,,d,1.8542193329994916,,,61,2025-02-09_15h18.27.241,EPIDM,2023.1.2,None,
2276.jpg,9008.jpg,3 Points,1 Point,,,,,,,,,,,,,,,,,0,126,126,126,,,,,,,,,,,d,9.542274874998839,,,61,2025-02-09_15h18.27.241,EPIDM,2023.1.2,None,
9911.jpg,9570.jpg,5 Points,0 Points,,,,,,,,,,,,,,,,,0,127,127,127,,,,,,,,,,,j,3.9027430420028395,,,61,2025-02-09_15h18.27.241,EPIDM,2023.1.2,None,
4250.jpg,2499.jpg,5 Points,3 Points,,,,,,,,,,,,,,,,,0,128,128,128,,,,,,,,,,,a,3.4977784590009833,,,61,2025-02-09_15h18.27.241,EPIDM,2023.1.2,None,
1120.jpg,7010.jpg,3 Points,2 Points,,,,,,,,,,,,,,,,,0,129,129,129,,,,,,,,,,,j,2.8414974170045753,,,61,2025-02-09_15h18.27.241,EPIDM,2023.1.2,None,
4621.jpg,9270.jpg,2 Points,0 Points,,,,,,,,,,,,,,,,,0,130,130,130,,,,,,,,,,,j,3.4563008330005687,,,61,2025-02-09_15h18.27.241,EPIDM,2023.1.2,None,
7281.jpg,2880.jpg,0 Points,5 Points,,,,,,,,,,,,,,,,,0,131,131,131,,,,,,,,,,,k,7.295466334002413,,,61,2025-02-09_15h18.27.241,EPIDM,2023.1.2,None,
9592.jpg,3000.jpg,2 Points,5 Points,,,,,,,,,,,,,,,,,0,132,132,132,,,,,,,,,,,a,3.3280224170011934,,,61,2025-02-09_15h18.27.241,EPIDM,2023.1.2,None,
6314.jpg,3069.jpg,2 Points,3 Points,,,,,,,,,,,,,,,,,0,133,133,133,,,,,,,,,,,s,4.915091625000059,space,13.152063042001828,61,2025-02-09_15h18.27.241,EPIDM,2023.1.2,None,
2270.jpg,1303.jpg,2 Points,0 Points,,,,,,,,,,,,,,,,,0,134,134,134,,,,,,,,,,,d,5.675315125001362,,,61,2025-02-09_15h18.27.241,EPIDM,2023.1.2,None,
7150.jpg,2850.jpg,2 Points,3 Points,,,,,,,,,,,,,,,,,0,135,135,135,,,,,,,,,,,k,3.0483642500003043,,,61,2025-02-09_15h18.27.241,EPIDM,2023.1.2,None,
1810.jpg,7238.jpg,3 Points,4 Points,,,,,,,,,,,,,,,,,0,136,136,136,,,,,,,,,,,s,3.5976387080008863,,,61,2025-02-09_15h18.27.241,EPIDM,2023.1.2,None,
9433.jpg,7183.jpg,1 Point,4 Points,,,,,,,,,,,,,,,,,0,137,137,137,,,,,,,,,,,j,4.066412542000762,,,61,2025-02-09_15h18.27.241,EPIDM,2023.1.2,None,
9560.jpg,1302.jpg,1 Point,3 Points,,,,,,,,,,,,,,,,,0,138,138,138,,,,,,,,,,,k,7.925229209002282,,,61,2025-02-09_15h18.27.241,EPIDM,2023.1.2,None,
6415.jpg,6230.jpg,2 Points,3 Points,,,,,,,,,,,,,,,,,0,139,139,139,,,,,,,,,,,d,8.730040000002191,,,61,2025-02-09_15h18.27.241,EPIDM,2023.1.2,None,
9331.jpg,3150.jpg,2 Points,1 Point,,,,,,,,,,,,,,,,,0,140,140,140,,,,,,,,,,,s,2.996287875004782,,,61,2025-02-09_15h18.27.241,EPIDM,2023.1.2,None,
1111.jpg,7096.jpg,0 Points,5 Points,,,,,,,,,,,,,,,,,0,141,141,141,,,,,,,,,,,k,4.3066416250039765,,,61,2025-02-09_15h18.27.241,EPIDM,2023.1.2,None,
7270.jpg,4534.jpg,3 Points,0 Points,,,,,,,,,,,,,,,,,0,142,142,142,,,,,,,,,,,l,2.0445855830039363,,,61,2025-02-09_15h18.27.241,EPIDM,2023.1.2,None,
7495.jpg,9156.jpg,1 Points,4 Points,,,,,,,,,,,,,,,,,0,143,143,143,,,,,,,,,,,d,4.382944375003717,,,61,2025-02-09_15h18.27.241,EPIDM,2023.1.2,None,
7490.jpg,8021.jpg,2 Points,4 Points,,,,,,,,,,,,,,,,,0,144,144,144,,,,,,,,,,,d,4.604431875002774,,,61,2025-02-09_15h18.27.241,EPIDM,2023.1.2,None,
6821.jpg,7006.jpg,2 Points,3 Points,,,,,,,,,,,,,,,,,0,145,145,145,,,,,,,,,,,j,7.699536125001032,,,61,2025-02-09_15h18.27.241,EPIDM,2023.1.2,None,
8230.jpg,9252.jpg,5 Points,1 Point,,,,,,,,,,,,,,,,,0,146,146,146,,,,,,,,,,,s,3.866583958002593,,,61,2025-02-09_15h18.27.241,EPIDM,2023.1.2,None,
5450.jpg,9010.jpg,5 Points,0 Points,,,,,,,,,,,,,,,,,0,147,147,147,,,,,,,,,,,k,3.74901250000039,,,61,2025-02-09_15h18.27.241,EPIDM,2023.1.2,None,
7351.jpg,7950.jpg,4 Points,1 Point,,,,,,,,,,,,,,,,,0,148,148,148,,,,,,,,,,,d,6.533945583003515,,,61,2025-02-09_15h18.27.241,EPIDM,2023.1.2,None,
2053.jpg,1932.jpg,4 Points,1 Points,,,,,,,,,,,,,,,,,0,149,149,149,,,,,,,,,,,k,3.0612441250013944,space,3.070667333999154,61,2025-02-09_15h18.27.241,EPIDM,2023.1.2,None,
9410.jpg,9402.jpg,0 Points,2 Points,,,,,,,,,,,,,,,,,0,150,150,150,,,,,,,,,,,j,3.816658208001172,,,61,2025-02-09_15h18.27.241,EPIDM,2023.1.2,None,
7560.jpg,9220.jpg,4 Points,1 Point,,,,,,,,,,,,,,,,,0,151,151,151,,,,,,,,,,,s,1.7468150000022433,,,61,2025-02-09_15h18.27.241,EPIDM,2023.1.2,None,
1301.jpg,3220.jpg,2 Points,5 Points,,,,,,,,,,,,,,,,,0,152,152,152,,,,,,,,,,,k,2.215709500003868,,,61,2025-02-09_15h18.27.241,EPIDM,2023.1.2,None,
2751.jpg,7500.jpg,3 Points,2 Points,,,,,,,,,,,,,,,,,0,153,153,153,,,,,,,,,,,j,4.777927375002037,,,61,2025-02-09_15h18.27.241,EPIDM,2023.1.2,None,
4613.jpg,F203.jpg,4 Points,0 Points,,,,,,,,,,,,,,,,,0,154,154,154,,,,,,,,,,,a,2.915795792003337,,,61,2025-02-09_15h18.27.241,EPIDM,2023.1.2,None,
2515.jpg,1942.jpg,4 Points,1 Points,,,,,,,,,,,,,,,,,0,155,155,155,,,,,,,,,,,j,2.69239912500052,,,61,2025-02-09_15h18.27.241,EPIDM,2023.1.2,None,
3010.jpg,1931.jpg,5 Points,3 Points,,,,,,,,,,,,,,,,,0,156,156,156,,,,,,,,,,,s,2.467389292003645,,,61,2025-02-09_15h18.27.241,EPIDM,2023.1.2,None,
1270.jpg,9921.jpg,4 Points,1 Points,,,,,,,,,,,,,,,,,0,157,157,157,,,,,,,,,,,s,4.864104625001346,,,61,2025-02-09_15h18.27.241,EPIDM,2023.1.2,None,
2516.jpg,7820.jpg,4 Points,0 Points,,,,,,,,,,,,,,,,,0,158,158,158,,,,,,,,,,,a,2.7545573330025945,,,61,2025-02-09_15h18.27.241,EPIDM,2023.1.2,None,
5532.jpg,2214.jpg,2 Points,3 Points,,,,,,,,,,,,,,,,,0,159,159,159,,,,,,,,,,,j,4.123393083002156,,,61,2025-02-09_15h18.27.241,EPIDM,2023.1.2,None,
