L_Scene,R_Scene,L_Pts,R_Pts,Instructions_Loop.thisRepN,Instructions_Loop.thisTrialN,Instructions_Loop.thisN,Instructions_Loop.thisIndex,Redo_Instructions_Loop.thisRepN,Redo_Instructions_Loop.thisTrialN,Redo_Instructions_Loop.thisN,Redo_Instructions_Loop.thisIndex,Practice_Recognition_Loop.thisRepN,Practice_Recognition_Loop.thisTrialN,Practice_Recognition_Loop.thisN,Practice_Recognition_Loop.thisIndex,Practice_FB_Loop.thisRepN,Practice_FB_Loop.thisTrialN,Practice_FB_Loop.thisN,Practice_FB_Loop.thisIndex,RecStim_Loop.thisRepN,RecStim_Loop.thisTrialN,RecStim_Loop.thisN,RecStim_Loop.thisIndex,FB_Loop.thisRepN,FB_Loop.thisTrialN,FB_Loop.thisN,FB_Loop.thisIndex,RecBrk_Loop.thisRepN,RecBrk_Loop.thisTrialN,RecBrk_Loop.thisN,RecBrk_Loop.thisIndex,Transition_Enc.keys,Transition_Enc.rt,Encoding_Resp.keys,Encoding_Resp.rt,EncBrk_Resp.keys,EncBrk_Resp.rt,participant,date,expName,psychopyVersion,frameRate,
,,,,,,,,,,,,,,,,,,,,,,,,,,,,,,,,space,5.970476041082293,,,,,7,2024-07-26_14h37.04.957,EPIDM,2023.1.2,None,
F078.jpg,L130.jpg,,,,,,,,,,,0,0,0,0,,,,,,,,,,,,,,,,,,,s,8.318435625173151,,,7,2024-07-26_14h37.04.957,EPIDM,2023.1.2,None,
P036.jpg,P217.jpg,,,,,,,,,,,0,1,1,1,,,,,,,,,,,,,,,,,,,k,6.402276874054223,,,7,2024-07-26_14h37.04.957,EPIDM,2023.1.2,None,
O161.jpg,F218.jpg,,,,,,,,,,,0,2,2,2,,,,,,,,,,,,,,,,,,,l,6.830286374082789,,,7,2024-07-26_14h37.04.957,EPIDM,2023.1.2,None,
F279.jpg,A001.jpg,,,,,,,,,,,0,3,3,3,,,,,,,,,,,,,,,,,,,a,4.611894082976505,,,7,2024-07-26_14h37.04.957,EPIDM,2023.1.2,None,
F273.jpg,A060.jpg,,,,,,,,,,,0,4,4,4,,,,,,,,,,,,,,,,,,,s,7.961924208095297,,,7,2024-07-26_14h37.04.957,EPIDM,2023.1.2,None,
2393.jpg,L055.jpg,,,,,,,,,,,0,5,5,5,,,,,,,,,,,,,,,,,,,a,5.133566000266001,,,7,2024-07-26_14h37.04.957,EPIDM,2023.1.2,None,
1812.jpg,2593.jpg,,,,,,,,,,,0,6,6,6,,,,,,,,,,,,,,,,,,,a,6.390916416188702,,,7,2024-07-26_14h37.04.957,EPIDM,2023.1.2,None,
O013.jpg,A067.jpg,,,,,,,,,,,0,7,7,7,,,,,,,,,,,,,,,,,,,k,4.61891720816493,,,7,2024-07-26_14h37.04.957,EPIDM,2023.1.2,None,
P033.jpg,P034.jpg,,,,,,,,,,,0,8,8,8,,,,,,,,,,,,,,,,,,,d,6.164486833149567,,,7,2024-07-26_14h37.04.957,EPIDM,2023.1.2,None,
A104.jpg,8186.jpg,,,,,,,,,,,0,9,9,9,,,,,,,,,,,,,,,,,,,k,3.4861993743106723,,,7,2024-07-26_14h37.04.957,EPIDM,2023.1.2,None,
,,,,,,,,,,,,,,,,,,,,,,,,,,,,,,,,space,1.65671358210966,,,,,7,2024-07-26_14h37.04.957,EPIDM,2023.1.2,None,
8041.jpg,6250.2.jpg,2 Points,3 Points,,,,,,,,,,,,,,,,,0,0,0,0,,,,,,,,,,,s,4.161738708149642,,,7,2024-07-26_14h37.04.957,EPIDM,2023.1.2,None,
1019.jpg,7004.jpg,0 Points,5 Points,,,,,,,,,,,,,,,,,0,1,1,1,,,,,,,,,,,s,7.500489749014378,,,7,2024-07-26_14h37.04.957,EPIDM,2023.1.2,None,
6360.jpg,6834.jpg,1 Point,5 Points,,,,,,,,,,,,,,,,,0,2,2,2,,,,,,,,,,,l,4.71639929106459,,,7,2024-07-26_14h37.04.957,EPIDM,2023.1.2,None,
7095.jpg,8531.jpg,1 Points,4 Points,,,,,,,,,,,,,,,,,0,3,3,3,,,,,,,,,,,k,4.957668083254248,,,7,2024-07-26_14h37.04.957,EPIDM,2023.1.2,None,
5220.jpg,7570.jpg,0 Points,5 Points,,,,,,,,,,,,,,,,,0,4,4,4,,,,,,,,,,,l,4.2640766659751534,,,7,2024-07-26_14h37.04.957,EPIDM,2023.1.2,None,
5594.jpg,5991.jpg,5 Points,0 Points,,,,,,,,,,,,,,,,,0,5,5,5,,,,,,,,,,,s,5.081612916197628,space,1.733524207258597,7,2024-07-26_14h37.04.957,EPIDM,2023.1.2,None,
5971.jpg,2750.jpg,5 Points,4 Points,,,,,,,,,,,,,,,,,0,6,6,6,,,,,,,,,,,s,3.761311916168779,,,7,2024-07-26_14h37.04.957,EPIDM,2023.1.2,None,
7550.jpg,2205.jpg,1 Points,4 Points,,,,,,,,,,,,,,,,,0,7,7,7,,,,,,,,,,,s,6.868134957039729,,,7,2024-07-26_14h37.04.957,EPIDM,2023.1.2,None,
9250.jpg,6840.jpg,0 Points,1 Points,,,,,,,,,,,,,,,,,0,8,8,8,,,,,,,,,,,s,6.226019499124959,,,7,2024-07-26_14h37.04.957,EPIDM,2023.1.2,None,
A053.jpg,2716.jpg,3 Points,2 Points,,,,,,,,,,,,,,,,,0,9,9,9,,,,,,,,,,,s,5.273259250214323,,,7,2024-07-26_14h37.04.957,EPIDM,2023.1.2,None,
2381.jpg,8250.jpg,1 Point,4 Points,,,,,,,,,,,,,,,,,0,10,10,10,,,,,,,,,,,k,3.876863957149908,,,7,2024-07-26_14h37.04.957,EPIDM,2023.1.2,None,
1230.jpg,9001.jpg,4 Points,1 Point,,,,,,,,,,,,,,,,,0,11,11,11,,,,,,,,,,,k,3.192704166052863,,,7,2024-07-26_14h37.04.957,EPIDM,2023.1.2,None,
6000.jpg,9411.jpg,4 Points,0 Points,,,,,,,,,,,,,,,,,0,12,12,12,,,,,,,,,,,k,3.0595957490149885,,,7,2024-07-26_14h37.04.957,EPIDM,2023.1.2,None,
7186.jpg,7235.jpg,2 Points,3 Points,,,,,,,,,,,,,,,,,0,13,13,13,,,,,,,,,,,s,2.778654874302447,,,7,2024-07-26_14h37.04.957,EPIDM,2023.1.2,None,
2600.jpg,8185.jpg,1 Point,0 Points,,,,,,,,,,,,,,,,,0,14,14,14,,,,,,,,,,,k,0.8122254579793662,,,7,2024-07-26_14h37.04.957,EPIDM,2023.1.2,None,
9424.jpg,9280.jpg,4 Points,1 Point,,,,,,,,,,,,,,,,,0,15,15,15,,,,,,,,,,,s,3.4294471240136772,,,7,2024-07-26_14h37.04.957,EPIDM,2023.1.2,None,
1670.jpg,4274.jpg,3 Points,2 Points,,,,,,,,,,,,,,,,,0,16,16,16,,,,,,,,,,,s,3.221497500082478,,,7,2024-07-26_14h37.04.957,EPIDM,2023.1.2,None,
9181.jpg,7502.jpg,0 Points,5 Points,,,,,,,,,,,,,,,,,0,17,17,17,,,,,,,,,,,s,2.753755583195016,,,7,2024-07-26_14h37.04.957,EPIDM,2023.1.2,None,
6910.jpg,9160.jpg,0 Points,4 Points,,,,,,,,,,,,,,,,,0,18,18,18,,,,,,,,,,,l,3.5240597911179066,,,7,2024-07-26_14h37.04.957,EPIDM,2023.1.2,None,
9810.jpg,9470.jpg,2 Points,3 Points,,,,,,,,,,,,,,,,,0,19,19,19,,,,,,,,,,,s,3.967124250018969,,,7,2024-07-26_14h37.04.957,EPIDM,2023.1.2,None,
9910.jpg,9561.jpg,2 Points,3 Points,,,,,,,,,,,,,,,,,0,20,20,20,,,,,,,,,,,k,2.6145766659174114,,,7,2024-07-26_14h37.04.957,EPIDM,2023.1.2,None,
1321.jpg,7000.jpg,3 Points,2 Points,,,,,,,,,,,,,,,,,0,21,21,21,,,,,,,,,,,a,3.8194270411040634,space,3.623475250089541,7,2024-07-26_14h37.04.957,EPIDM,2023.1.2,None,
1740.jpg,2385.jpg,0 Points,3 Points,,,,,,,,,,,,,,,,,0,22,22,22,,,,,,,,,,,k,2.8618037081323564,,,7,2024-07-26_14h37.04.957,EPIDM,2023.1.2,None,
9630.jpg,9046.jpg,2 Points,3 Points,,,,,,,,,,,,,,,,,0,23,23,23,,,,,,,,,,,k,3.5900134581606835,,,7,2024-07-26_14h37.04.957,EPIDM,2023.1.2,None,
9210.jpg,9290.jpg,1 Point,2 Points,,,,,,,,,,,,,,,,,0,24,24,24,,,,,,,,,,,a,2.568991540931165,,,7,2024-07-26_14h37.04.957,EPIDM,2023.1.2,None,
2691.jpg,9600.jpg,0 Points,5 Points,,,,,,,,,,,,,,,,,0,25,25,25,,,,,,,,,,,s,1.7917400831356645,,,7,2024-07-26_14h37.04.957,EPIDM,2023.1.2,None,
2352.2.jpg,6530.jpg,0 Points,1 Point,,,,,,,,,,,,,,,,,0,26,26,26,,,,,,,,,,,k,2.4372001660522074,,,7,2024-07-26_14h37.04.957,EPIDM,2023.1.2,None,
5875.jpg,4233.jpg,0 Points,5 Points,,,,,,,,,,,,,,,,,0,27,27,27,,,,,,,,,,,l,2.7724941251799464,,,7,2024-07-26_14h37.04.957,EPIDM,2023.1.2,None,
8400.jpg,2590.jpg,1 Point,4 Points,,,,,,,,,,,,,,,,,0,28,28,28,,,,,,,,,,,k,3.7734414162114263,,,7,2024-07-26_14h37.04.957,EPIDM,2023.1.2,None,
5460.jpg,5910.jpg,0 Points,5 Points,,,,,,,,,,,,,,,,,0,29,29,29,,,,,,,,,,,a,3.2921429991256446,,,7,2024-07-26_14h37.04.957,EPIDM,2023.1.2,None,
8311.jpg,1900.jpg,2 Points,4 Points,,,,,,,,,,,,,,,,,0,30,30,30,,,,,,,,,,,a,1.9330786240752786,,,7,2024-07-26_14h37.04.957,EPIDM,2023.1.2,None,
7050.jpg,2512.jpg,4 Points,1 Point,,,,,,,,,,,,,,,,,0,31,31,31,,,,,,,,,,,a,1.5150333740748465,,,7,2024-07-26_14h37.04.957,EPIDM,2023.1.2,None,
5970.jpg,9000.jpg,0 Points,4 Points,,,,,,,,,,,,,,,,,0,32,32,32,,,,,,,,,,,l,0.9325800412334502,,,7,2024-07-26_14h37.04.957,EPIDM,2023.1.2,None,
5201.jpg,5628.jpg,0 Points,5 Points,,,,,,,,,,,,,,,,,0,33,33,33,,,,,,,,,,,a,1.8334344162140042,,,7,2024-07-26_14h37.04.957,EPIDM,2023.1.2,None,
2752.jpg,7360.jpg,2 Points,1 Point,,,,,,,,,,,,,,,,,0,34,34,34,,,,,,,,,,,l,2.873501416295767,,,7,2024-07-26_14h37.04.957,EPIDM,2023.1.2,None,
5530.jpg,5410.jpg,0 Points,5 Points,,,,,,,,,,,,,,,,,0,35,35,35,,,,,,,,,,,l,0.7438220819458365,,,7,2024-07-26_14h37.04.957,EPIDM,2023.1.2,None,
8232.jpg,2495.jpg,5 Points,0 Points,,,,,,,,,,,,,,,,,0,36,36,36,,,,,,,,,,,l,1.2493492492940277,,,7,2024-07-26_14h37.04.957,EPIDM,2023.1.2,None,
7205.jpg,5740.jpg,5 Points,0 Points,,,,,,,,,,,,,,,,,0,37,37,37,,,,,,,,,,,l,0.6575612910091877,space,2.106882874155417,7,2024-07-26_14h37.04.957,EPIDM,2023.1.2,None,
9571.jpg,1945.jpg,2 Points,4 Points,,,,,,,,,,,,,,,,,0,38,38,38,,,,,,,,,,,a,1.08447349909693,,,7,2024-07-26_14h37.04.957,EPIDM,2023.1.2,None,
7080.jpg,6210.jpg,4 Points,1 Point,,,,,,,,,,,,,,,,,0,39,39,39,,,,,,,,,,,l,0.91905333311297,,,7,2024-07-26_14h37.04.957,EPIDM,2023.1.2,None,
9265.jpg,9041.jpg,0 Points,4 Points,,,,,,,,,,,,,,,,,0,40,40,40,,,,,,,,,,,l,1.476265833247453,,,7,2024-07-26_14h37.04.957,EPIDM,2023.1.2,None,
6150.jpg,7020.jpg,0 Points,5 Points,,,,,,,,,,,,,,,,,0,41,41,41,,,,,,,,,,,l,1.1666232489515096,,,7,2024-07-26_14h37.04.957,EPIDM,2023.1.2,None,
2280.jpg,7170.jpg,4 Points,2 Points,,,,,,,,,,,,,,,,,0,42,42,42,,,,,,,,,,,l,0.827468624105677,,,7,2024-07-26_14h37.04.957,EPIDM,2023.1.2,None,
7030.jpg,1050.jpg,1 Points,4 Points,,,,,,,,,,,,,,,,,0,43,43,43,,,,,,,,,,,a,1.246598499128595,,,7,2024-07-26_14h37.04.957,EPIDM,2023.1.2,None,
2870.jpg,2520.jpg,5 Points,2 Points,,,,,,,,,,,,,,,,,0,44,44,44,,,,,,,,,,,a,1.221826750319451,,,7,2024-07-26_14h37.04.957,EPIDM,2023.1.2,None,
2791.jpg,7207.jpg,4 Points,1 Points,,,,,,,,,,,,,,,,,0,45,45,45,,,,,,,,,,,l,0.8427292071282864,,,7,2024-07-26_14h37.04.957,EPIDM,2023.1.2,None,
3030.jpg,6571.jpg,0 Points,2 Points,,,,,,,,,,,,,,,,,0,46,46,46,,,,,,,,,,,l,1.091608624206856,,,7,2024-07-26_14h37.04.957,EPIDM,2023.1.2,None,
7217.jpg,3060.jpg,4 Points,1 Point,,,,,,,,,,,,,,,,,0,47,47,47,,,,,,,,,,,a,0.6224437071941793,,,7,2024-07-26_14h37.04.957,EPIDM,2023.1.2,None,
9401.jpg,9110.jpg,2 Points,1 Point,,,,,,,,,,,,,,,,,0,48,48,48,,,,,,,,,,,a,1.1802930410485715,,,7,2024-07-26_14h37.04.957,EPIDM,2023.1.2,None,
P077.jpg,7040.jpg,1 Point,4 Points,,,,,,,,,,,,,,,,,0,49,49,49,,,,,,,,,,,l,0.5077828750945628,,,7,2024-07-26_14h37.04.957,EPIDM,2023.1.2,None,
5480.jpg,2312.jpg,4 Points,1 Points,,,,,,,,,,,,,,,,,0,50,50,50,,,,,,,,,,,l,0.47304324992001057,,,7,2024-07-26_14h37.04.957,EPIDM,2023.1.2,None,
5920.jpg,4770.jpg,2 Points,3 Points,,,,,,,,,,,,,,,,,0,51,51,51,,,,,,,,,,,l,2.8999275001697242,,,7,2024-07-26_14h37.04.957,EPIDM,2023.1.2,None,
1052.jpg,3180.jpg,3 Points,5 Points,,,,,,,,,,,,,,,,,0,52,52,52,,,,,,,,,,,a,1.1042775411624461,,,7,2024-07-26_14h37.04.957,EPIDM,2023.1.2,None,
2480.jpg,5731.jpg,1 Point,4 Points,,,,,,,,,,,,,,,,,0,53,53,53,,,,,,,,,,,l,1.1133838752284646,space,1.3385522072203457,7,2024-07-26_14h37.04.957,EPIDM,2023.1.2,None,
7195.jpg,4598.jpg,2 Points,1 Point,,,,,,,,,,,,,,,,,0,54,54,54,,,,,,,,,,,l,1.0616898753214628,,,7,2024-07-26_14h37.04.957,EPIDM,2023.1.2,None,
5470.jpg,2594.jpg,5 Points,0 Points,,,,,,,,,,,,,,,,,0,55,55,55,,,,,,,,,,,a,0.9817472491413355,,,7,2024-07-26_14h37.04.957,EPIDM,2023.1.2,None,
F369.jpg,6260.jpg,2 Points,3 Points,,,,,,,,,,,,,,,,,0,56,56,56,,,,,,,,,,,l,0.7728810820262879,,,7,2024-07-26_14h37.04.957,EPIDM,2023.1.2,None,
7620.jpg,7182.jpg,1 Point,4 Points,,,,,,,,,,,,,,,,,0,57,57,57,,,,,,,,,,,l,0.6261697912123054,,,7,2024-07-26_14h37.04.957,EPIDM,2023.1.2,None,
5260.jpg,1602.jpg,5 Points,1 Point,,,,,,,,,,,,,,,,,0,58,58,58,,,,,,,,,,,l,0.4983660411089659,,,7,2024-07-26_14h37.04.957,EPIDM,2023.1.2,None,
9700.jpg,7184.jpg,1 Points,4 Points,,,,,,,,,,,,,,,,,0,59,59,59,,,,,,,,,,,l,2.5091799162328243,,,7,2024-07-26_14h37.04.957,EPIDM,2023.1.2,None,
F158.jpg,9582.jpg,3 Points,5 Points,,,,,,,,,,,,,,,,,0,60,60,60,,,,,,,,,,,a,0.7274289571214467,,,7,2024-07-26_14h37.04.957,EPIDM,2023.1.2,None,
2389.jpg,7545.jpg,0 Points,5 Points,,,,,,,,,,,,,,,,,0,61,61,61,,,,,,,,,,,a,0.9089878331869841,,,7,2024-07-26_14h37.04.957,EPIDM,2023.1.2,None,
F032.jpg,1080.jpg,1 Point,4 Points,,,,,,,,,,,,,,,,,0,62,62,62,,,,,,,,,,,l,1.129791082115844,,,7,2024-07-26_14h37.04.957,EPIDM,2023.1.2,None,
5700.jpg,5390.jpg,5 Points,0 Points,,,,,,,,,,,,,,,,,0,63,63,63,,,,,,,,,,,l,0.7574450829997659,,,7,2024-07-26_14h37.04.957,EPIDM,2023.1.2,None,
7580.jpg,7546.jpg,3 Points,2 Points,,,,,,,,,,,,,,,,,0,64,64,64,,,,,,,,,,,l,1.4391201662365347,,,7,2024-07-26_14h37.04.957,EPIDM,2023.1.2,None,
2630.jpg,2500.jpg,0 Points,5 Points,,,,,,,,,,,,,,,,,0,65,65,65,,,,,,,,,,,l,2.8138087489642203,,,7,2024-07-26_14h37.04.957,EPIDM,2023.1.2,None,
7160.jpg,5270.jpg,0 Points,4 Points,,,,,,,,,,,,,,,,,0,66,66,66,,,,,,,,,,,l,1.48631054116413,,,7,2024-07-26_14h37.04.957,EPIDM,2023.1.2,None,
7211.jpg,6561.jpg,3 Points,2 Points,,,,,,,,,,,,,,,,,0,67,67,67,,,,,,,,,,,a,1.1749935820698738,,,7,2024-07-26_14h37.04.957,EPIDM,2023.1.2,None,
2141.jpg,9611.jpg,5 Points,3 Points,,,,,,,,,,,,,,,,,0,68,68,68,,,,,,,,,,,a,3.8669446241110563,,,7,2024-07-26_14h37.04.957,EPIDM,2023.1.2,None,
2810.jpg,7034.jpg,3 Points,2 Points,,,,,,,,,,,,,,,,,0,69,69,69,,,,,,,,,,,l,0.9706622490193695,space,1.1836560410447419,7,2024-07-26_14h37.04.957,EPIDM,2023.1.2,None,
1240.jpg,6300.jpg,3 Points,2 Points,,,,,,,,,,,,,,,,,0,70,70,70,,,,,,,,,,,l,0.7767170409206301,,,7,2024-07-26_14h37.04.957,EPIDM,2023.1.2,None,
5831.jpg,8090.jpg,3 Points,2 Points,,,,,,,,,,,,,,,,,0,71,71,71,,,,,,,,,,,l,0.5499787910375744,,,7,2024-07-26_14h37.04.957,EPIDM,2023.1.2,None,
8300.jpg,2575.jpg,3 Points,2 Points,,,,,,,,,,,,,,,,,0,72,72,72,,,,,,,,,,,a,1.285914249252528,,,7,2024-07-26_14h37.04.957,EPIDM,2023.1.2,None,
7361.jpg,2683.jpg,2 Points,3 Points,,,,,,,,,,,,,,,,,0,73,73,73,,,,,,,,,,,l,0.8301007912959903,,,7,2024-07-26_14h37.04.957,EPIDM,2023.1.2,None,
2260.jpg,7100.jpg,5 Points,3 Points,,,,,,,,,,,,,,,,,0,74,74,74,,,,,,,,,,,l,0.9129454160574824,,,7,2024-07-26_14h37.04.957,EPIDM,2023.1.2,None,
9913.jpg,3181.jpg,1 Points,4 Points,,,,,,,,,,,,,,,,,0,75,75,75,,,,,,,,,,,a,1.1613187910988927,,,7,2024-07-26_14h37.04.957,EPIDM,2023.1.2,None,
2717.jpg,9330.jpg,4 Points,5 Points,,,,,,,,,,,,,,,,,0,76,76,76,,,,,,,,,,,l,1.4672642080113292,,,7,2024-07-26_14h37.04.957,EPIDM,2023.1.2,None,
1616.jpg,5720.jpg,2 Points,3 Points,,,,,,,,,,,,,,,,,0,77,77,77,,,,,,,,,,,l,0.6790571662131697,,,7,2024-07-26_14h37.04.957,EPIDM,2023.1.2,None,
6570.2.jpg,1510.jpg,3 Points,4 Points,,,,,,,,,,,,,,,,,0,78,78,78,,,,,,,,,,,l,1.4548437490593642,,,7,2024-07-26_14h37.04.957,EPIDM,2023.1.2,None,
F252.jpg,2230.jpg,0 Points,5 Points,,,,,,,,,,,,,,,,,0,79,79,79,,,,,,,,,,,a,0.8386453741695732,,,7,2024-07-26_14h37.04.957,EPIDM,2023.1.2,None,
8210.jpg,8330.jpg,3 Points,0 Points,,,,,,,,,,,,,,,,,0,80,80,80,,,,,,,,,,,l,0.8547746662516147,,,7,2024-07-26_14h37.04.957,EPIDM,2023.1.2,None,
1525.jpg,7035.jpg,2 Points,3 Points,,,,,,,,,,,,,,,,,0,81,81,81,,,,,,,,,,,l,0.8271780831273645,,,7,2024-07-26_14h37.04.957,EPIDM,2023.1.2,None,
1220.jpg,2692.jpg,1 Point,4 Points,,,,,,,,,,,,,,,,,0,82,82,82,,,,,,,,,,,a,2.5075199571438134,,,7,2024-07-26_14h37.04.957,EPIDM,2023.1.2,None,
7286.jpg,7350.jpg,5 Points,0 Points,,,,,,,,,,,,,,,,,0,83,83,83,,,,,,,,,,,a,2.30778200016357,,,7,2024-07-26_14h37.04.957,EPIDM,2023.1.2,None,
6560.jpg,9432.jpg,2 Points,5 Points,,,,,,,,,,,,,,,,,0,84,84,84,,,,,,,,,,,l,1.5218876663129777,,,7,2024-07-26_14h37.04.957,EPIDM,2023.1.2,None,
5870.jpg,5629.jpg,5 Points,0 Points,,,,,,,,,,,,,,,,,0,85,85,85,,,,,,,,,,,a,0.6824140411335975,space,5.985298791201785,7,2024-07-26_14h37.04.957,EPIDM,2023.1.2,None,
7352.jpg,5010.jpg,2 Points,5 Points,,,,,,,,,,,,,,,,,0,86,86,86,,,,,,,,,,,l,0.9989557911176234,,,7,2024-07-26_14h37.04.957,EPIDM,2023.1.2,None,
5849.jpg,7282.jpg,2 Points,3 Points,,,,,,,,,,,,,,,,,0,87,87,87,,,,,,,,,,,l,1.7540471241809428,,,7,2024-07-26_14h37.04.957,EPIDM,2023.1.2,None,
4531.jpg,5534.jpg,5 Points,3 Points,,,,,,,,,,,,,,,,,0,88,88,88,,,,,,,,,,,l,1.1284317490644753,,,7,2024-07-26_14h37.04.957,EPIDM,2023.1.2,None,
7503.jpg,5900.jpg,2 Points,3 Points,,,,,,,,,,,,,,,,,0,89,89,89,,,,,,,,,,,l,2.2616808742750436,,,7,2024-07-26_14h37.04.957,EPIDM,2023.1.2,None,
9007.jpg,1101.jpg,0 Points,3 Points,,,,,,,,,,,,,,,,,0,90,90,90,,,,,,,,,,,l,1.0397701251786202,,,7,2024-07-26_14h37.04.957,EPIDM,2023.1.2,None,
7110.jpg,9190.jpg,5 Points,0 Points,,,,,,,,,,,,,,,,,0,91,91,91,,,,,,,,,,,a,1.104376583127305,,,7,2024-07-26_14h37.04.957,EPIDM,2023.1.2,None,
3500.jpg,3230.jpg,4 Points,2 Points,,,,,,,,,,,,,,,,,0,92,92,92,,,,,,,,,,,l,2.88986474997364,,,7,2024-07-26_14h37.04.957,EPIDM,2023.1.2,None,
9080.jpg,5593.jpg,5 Points,0 Points,,,,,,,,,,,,,,,,,0,93,93,93,,,,,,,,,,,l,3.0642881661187857,,,7,2024-07-26_14h37.04.957,EPIDM,2023.1.2,None,
7190.jpg,2372.jpg,5 Points,1 Point,,,,,,,,,,,,,,,,,0,94,94,94,,,,,,,,,,,l,0.9903775821439922,,,7,2024-07-26_14h37.04.957,EPIDM,2023.1.2,None,
5820.jpg,5020.jpg,5 Points,0 Points,,,,,,,,,,,,,,,,,0,95,95,95,,,,,,,,,,,l,0.28208725014701486,,,7,2024-07-26_14h37.04.957,EPIDM,2023.1.2,None,
9404.jpg,6212.jpg,5 Points,4 Points,,,,,,,,,,,,,,,,,0,96,96,96,,,,,,,,,,,a,1.2364175412803888,,,7,2024-07-26_14h37.04.957,EPIDM,2023.1.2,None,
5623.jpg,7233.jpg,5 Points,0 Points,,,,,,,,,,,,,,,,,0,97,97,97,,,,,,,,,,,l,1.1091882910113782,,,7,2024-07-26_14h37.04.957,EPIDM,2023.1.2,None,
5500.jpg,5520.jpg,3 Points,2 Points,,,,,,,,,,,,,,,,,0,98,98,98,,,,,,,,,,,l,0.1033418751321733,,,7,2024-07-26_14h37.04.957,EPIDM,2023.1.2,None,
1274.jpg,6350.jpg,1 Points,4 Points,,,,,,,,,,,,,,,,,0,99,99,99,,,,,,,,,,,a,1.1553906660992652,,,7,2024-07-26_14h37.04.957,EPIDM,2023.1.2,None,
2010.jpg,2210.jpg,5 Points,0 Points,,,,,,,,,,,,,,,,,0,100,100,100,,,,,,,,,,,l,1.5517746242694557,,,7,2024-07-26_14h37.04.957,EPIDM,2023.1.2,None,
5780.jpg,5890.jpg,3 Points,2 Points,,,,,,,,,,,,,,,,,0,101,101,101,,,,,,,,,,,a,0.8624686242546886,space,1.386127666104585,7,2024-07-26_14h37.04.957,EPIDM,2023.1.2,None,
9421.jpg,1051.jpg,2 Points,0 Points,,,,,,,,,,,,,,,,,0,102,102,102,,,,,,,,,,,l,0.7623598331119865,,,7,2024-07-26_14h37.04.957,EPIDM,2023.1.2,None,
1603.jpg,8180.jpg,1 Points,4 Points,,,,,,,,,,,,,,,,,0,103,103,103,,,,,,,,,,,l,0.5455974582582712,,,7,2024-07-26_14h37.04.957,EPIDM,2023.1.2,None,
8320.jpg,5510.jpg,1 Point,5 Points,,,,,,,,,,,,,,,,,0,104,104,104,,,,,,,,,,,l,0.09337533311918378,,,7,2024-07-26_14h37.04.957,EPIDM,2023.1.2,None,
7920.jpg,7224.jpg,3 Points,2 Points,,,,,,,,,,,,,,,,,0,105,105,105,,,,,,,,,,,l,1.2048522911500186,,,7,2024-07-26_14h37.04.957,EPIDM,2023.1.2,None,
F034.jpg,6213.jpg,4 Points,1 Point,,,,,,,,,,,,,,,,,0,106,106,106,,,,,,,,,,,l,1.1636758332606405,,,7,2024-07-26_14h37.04.957,EPIDM,2023.1.2,None,
7130.jpg,3210.jpg,4 Points,1 Point,,,,,,,,,,,,,,,,,0,107,107,107,,,,,,,,,,,a,1.2271475410088897,,,7,2024-07-26_14h37.04.957,EPIDM,2023.1.2,None,
2130.jpg,8510.jpg,1 Points,4 Points,,,,,,,,,,,,,,,,,0,108,108,108,,,,,,,,,,,l,0.522037748945877,,,7,2024-07-26_14h37.04.957,EPIDM,2023.1.2,None,
3400.jpg,7025.jpg,2 Points,3 Points,,,,,,,,,,,,,,,,,0,109,109,109,,,,,,,,,,,l,0.23197529115714133,,,7,2024-07-26_14h37.04.957,EPIDM,2023.1.2,None,
2410.jpg,7009.jpg,4 Points,5 Points,,,,,,,,,,,,,,,,,0,110,110,110,,,,,,,,,,,l,0.7876121250446886,,,7,2024-07-26_14h37.04.957,EPIDM,2023.1.2,None,
7031.jpg,6930.jpg,4 Points,1 Point,,,,,,,,,,,,,,,,,0,111,111,111,,,,,,,,,,,l,0.5106436661444604,,,7,2024-07-26_14h37.04.957,EPIDM,2023.1.2,None,
A074.jpg,3120.jpg,2 Points,5 Points,,,,,,,,,,,,,,,,,0,112,112,112,,,,,,,,,,,l,0.1093020411208272,,,7,2024-07-26_14h37.04.957,EPIDM,2023.1.2,None,
6838.jpg,9621.jpg,5 Points,0 Points,,,,,,,,,,,,,,,,,0,113,113,113,,,,,,,,,,,a,0.8615339992102236,,,7,2024-07-26_14h37.04.957,EPIDM,2023.1.2,None,
3168.jpg,9420.jpg,4 Points,2 Points,,,,,,,,,,,,,,,,,0,114,114,114,,,,,,,,,,,l,0.5400427081622183,,,7,2024-07-26_14h37.04.957,EPIDM,2023.1.2,None,
9830.jpg,6410.jpg,4 Points,1 Point,,,,,,,,,,,,,,,,,0,115,115,115,,,,,,,,,,,l,0.5915924580767751,,,7,2024-07-26_14h37.04.957,EPIDM,2023.1.2,None,
5531.jpg,1720.jpg,3 Points,4 Points,,,,,,,,,,,,,,,,,0,116,116,116,,,,,,,,,,,a,0.46725216624327004,,,7,2024-07-26_14h37.04.957,EPIDM,2023.1.2,None,
1590.jpg,7140.jpg,5 Points,0 Points,,,,,,,,,,,,,,,,,0,117,117,117,,,,,,,,,,,a,0.9858975412789732,space,1.173624583054334,7,2024-07-26_14h37.04.957,EPIDM,2023.1.2,None,
1947.jpg,4535.jpg,5 Points,1 Point,,,,,,,,,,,,,,,,,0,118,118,118,,,,,,,,,,,l,0.6612826660275459,,,7,2024-07-26_14h37.04.957,EPIDM,2023.1.2,None,
7705.jpg,3301.jpg,5 Points,0 Points,,,,,,,,,,,,,,,,,0,119,119,119,,,,,,,,,,,a,0.8042529581580311,,,7,2024-07-26_14h37.04.957,EPIDM,2023.1.2,None,
2753.jpg,1090.jpg,0 Points,5 Points,,,,,,,,,,,,,,,,,0,120,120,120,,,,,,,,,,,s,1.0600276249460876,,,7,2024-07-26_14h37.04.957,EPIDM,2023.1.2,None,
5533.jpg,5626.jpg,3 Points,2 Points,,,,,,,,,,,,,,,,,0,121,121,121,,,,,,,,,,,l,0.6324080000631511,,,7,2024-07-26_14h37.04.957,EPIDM,2023.1.2,None,
7260.jpg,8260.jpg,5 Points,3 Points,,,,,,,,,,,,,,,,,0,122,122,122,,,,,,,,,,,l,0.764094915939495,,,7,2024-07-26_14h37.04.957,EPIDM,2023.1.2,None,
5950.jpg,3068.jpg,0 Points,5 Points,,,,,,,,,,,,,,,,,0,123,123,123,,,,,,,,,,,a,0.6445759159978479,,,7,2024-07-26_14h37.04.957,EPIDM,2023.1.2,None,
2840.jpg,7185.jpg,2 Points,1 Point,,,,,,,,,,,,,,,,,0,124,124,124,,,,,,,,,,,a,0.5643282081000507,,,7,2024-07-26_14h37.04.957,EPIDM,2023.1.2,None,
9360.jpg,7090.jpg,1 Point,4 Points,,,,,,,,,,,,,,,,,0,125,125,125,,,,,,,,,,,a,0.44915650016628206,,,7,2024-07-26_14h37.04.957,EPIDM,2023.1.2,None,
6540.jpg,9008.jpg,3 Points,1 Point,,,,,,,,,,,,,,,,,0,126,126,126,,,,,,,,,,,a,0.33838954102247953,,,7,2024-07-26_14h37.04.957,EPIDM,2023.1.2,None,
9911.jpg,6610.jpg,5 Points,0 Points,,,,,,,,,,,,,,,,,0,127,127,127,,,,,,,,,,,l,0.43625741614960134,,,7,2024-07-26_14h37.04.957,EPIDM,2023.1.2,None,
7060.jpg,7830.jpg,5 Points,3 Points,,,,,,,,,,,,,,,,,0,128,128,128,,,,,,,,,,,l,0.7052304579410702,,,7,2024-07-26_14h37.04.957,EPIDM,2023.1.2,None,
1120.jpg,7010.jpg,3 Points,2 Points,,,,,,,,,,,,,,,,,0,129,129,129,,,,,,,,,,,l,0.5509257491212338,,,7,2024-07-26_14h37.04.957,EPIDM,2023.1.2,None,
3550.jpg,9270.jpg,2 Points,0 Points,,,,,,,,,,,,,,,,,0,130,130,130,,,,,,,,,,,l,0.6121046249754727,,,7,2024-07-26_14h37.04.957,EPIDM,2023.1.2,None,
7281.jpg,2880.jpg,0 Points,5 Points,,,,,,,,,,,,,,,,,0,131,131,131,,,,,,,,,,,l,0.5208481240551919,,,7,2024-07-26_14h37.04.957,EPIDM,2023.1.2,None,
1300.jpg,6200.jpg,2 Points,5 Points,,,,,,,,,,,,,,,,,0,132,132,132,,,,,,,,,,,l,0.7117441243026406,,,7,2024-07-26_14h37.04.957,EPIDM,2023.1.2,None,
O022.jpg,3069.jpg,2 Points,3 Points,,,,,,,,,,,,,,,,,0,133,133,133,,,,,,,,,,,a,0.4740305820014328,space,1.1307233332190663,7,2024-07-26_14h37.04.957,EPIDM,2023.1.2,None,
2270.jpg,2000.jpg,2 Points,0 Points,,,,,,,,,,,,,,,,,0,134,134,134,,,,,,,,,,,l,0.6491953742224723,,,7,2024-07-26_14h37.04.957,EPIDM,2023.1.2,None,
7150.jpg,4532.jpg,2 Points,3 Points,,,,,,,,,,,,,,,,,0,135,135,135,,,,,,,,,,,l,0.7348012910224497,,,7,2024-07-26_14h37.04.957,EPIDM,2023.1.2,None,
1810.jpg,7238.jpg,3 Points,4 Points,,,,,,,,,,,,,,,,,0,136,136,136,,,,,,,,,,,l,0.1802750830538571,,,7,2024-07-26_14h37.04.957,EPIDM,2023.1.2,None,
9433.jpg,7183.jpg,1 Point,4 Points,,,,,,,,,,,,,,,,,0,137,137,137,,,,,,,,,,,l,0.6541020411532372,,,7,2024-07-26_14h37.04.957,EPIDM,2023.1.2,None,
9560.jpg,2700.jpg,1 Point,3 Points,,,,,,,,,,,,,,,,,0,138,138,138,,,,,,,,,,,l,0.8706402492243797,,,7,2024-07-26_14h37.04.957,EPIDM,2023.1.2,None,
6415.jpg,6230.jpg,2 Points,3 Points,,,,,,,,,,,,,,,,,0,139,139,139,,,,,,,,,,,l,0.8913171661552042,,,7,2024-07-26_14h37.04.957,EPIDM,2023.1.2,None,
9331.jpg,3150.jpg,2 Points,1 Point,,,,,,,,,,,,,,,,,0,140,140,140,,,,,,,,,,,a,0.5748185412958264,,,7,2024-07-26_14h37.04.957,EPIDM,2023.1.2,None,
1040.jpg,7096.jpg,0 Points,5 Points,,,,,,,,,,,,,,,,,0,141,141,141,,,,,,,,,,,l,0.8185750832781196,,,7,2024-07-26_14h37.04.957,EPIDM,2023.1.2,None,
7270.jpg,4534.jpg,3 Points,0 Points,,,,,,,,,,,,,,,,,0,142,142,142,,,,,,,,,,,l,0.5781376659870148,,,7,2024-07-26_14h37.04.957,EPIDM,2023.1.2,None,
7495.jpg,9156.jpg,1 Points,4 Points,,,,,,,,,,,,,,,,,0,143,143,143,,,,,,,,,,,l,0.3769039991311729,,,7,2024-07-26_14h37.04.957,EPIDM,2023.1.2,None,
7175.jpg,8021.jpg,2 Points,4 Points,,,,,,,,,,,,,,,,,0,144,144,144,,,,,,,,,,,a,0.6255754581652582,,,7,2024-07-26_14h37.04.957,EPIDM,2023.1.2,None,
9622.jpg,7006.jpg,2 Points,3 Points,,,,,,,,,,,,,,,,,0,145,145,145,,,,,,,,,,,l,0.7525021242909133,,,7,2024-07-26_14h37.04.957,EPIDM,2023.1.2,None,
2682.jpg,9252.jpg,5 Points,1 Point,,,,,,,,,,,,,,,,,0,146,146,146,,,,,,,,,,,l,0.12518799910321832,,,7,2024-07-26_14h37.04.957,EPIDM,2023.1.2,None,
5450.jpg,9253.jpg,5 Points,0 Points,,,,,,,,,,,,,,,,,0,147,147,147,,,,,,,,,,,l,0.030237999046221375,,,7,2024-07-26_14h37.04.957,EPIDM,2023.1.2,None,
2440.jpg,7950.jpg,4 Points,1 Point,,,,,,,,,,,,,,,,,0,148,148,148,,,,,,,,,,,l,0.48942708200775087,,,7,2024-07-26_14h37.04.957,EPIDM,2023.1.2,None,
9415.jpg,1932.jpg,4 Points,1 Points,,,,,,,,,,,,,,,,,0,149,149,149,,,,,,,,,,,l,0.19794345810078084,space,1.1461027080658823,7,2024-07-26_14h37.04.957,EPIDM,2023.1.2,None,
9410.jpg,9402.jpg,0 Points,2 Points,,,,,,,,,,,,,,,,,0,150,150,150,,,,,,,,,,,l,1.268405457958579,,,7,2024-07-26_14h37.04.957,EPIDM,2023.1.2,None,
7560.jpg,9220.jpg,4 Points,1 Point,,,,,,,,,,,,,,,,,0,151,151,151,,,,,,,,,,,a,0.7651772911194712,,,7,2024-07-26_14h37.04.957,EPIDM,2023.1.2,None,
1070.jpg,3063.jpg,2 Points,5 Points,,,,,,,,,,,,,,,,,0,152,152,152,,,,,,,,,,,l,0.5230167079716921,,,7,2024-07-26_14h37.04.957,EPIDM,2023.1.2,None,
6313.jpg,7500.jpg,3 Points,2 Points,,,,,,,,,,,,,,,,,0,153,153,153,,,,,,,,,,,l,0.9551264161709696,,,7,2024-07-26_14h37.04.957,EPIDM,2023.1.2,None,
2720.jpg,F203.jpg,4 Points,0 Points,,,,,,,,,,,,,,,,,0,154,154,154,,,,,,,,,,,l,0.6878257910721004,,,7,2024-07-26_14h37.04.957,EPIDM,2023.1.2,None,
2515.jpg,2890.jpg,4 Points,1 Points,,,,,,,,,,,,,,,,,0,155,155,155,,,,,,,,,,,a,2.2629867491777986,,,7,2024-07-26_14h37.04.957,EPIDM,2023.1.2,None,
9430.jpg,1931.jpg,5 Points,3 Points,,,,,,,,,,,,,,,,,0,156,156,156,,,,,,,,,,,l,0.6312500000931323,,,7,2024-07-26_14h37.04.957,EPIDM,2023.1.2,None,
6370.jpg,9921.jpg,4 Points,1 Points,,,,,,,,,,,,,,,,,0,157,157,157,,,,,,,,,,,l,0.6732067081611603,,,7,2024-07-26_14h37.04.957,EPIDM,2023.1.2,None,
8500.jpg,1121.jpg,4 Points,0 Points,,,,,,,,,,,,,,,,,0,158,158,158,,,,,,,,,,,a,0.811528833117336,,,7,2024-07-26_14h37.04.957,EPIDM,2023.1.2,None,
5532.jpg,4500.jpg,2 Points,3 Points,,,,,,,,,,,,,,,,,0,159,159,159,,,,,,,,,,,l,0.7325390412006527,,,7,2024-07-26_14h37.04.957,EPIDM,2023.1.2,None,
