L_Scene,R_Scene,L_Pts,R_Pts,Instructions_Loop.thisRepN,Instructions_Loop.thisTrialN,Instructions_Loop.thisN,Instructions_Loop.thisIndex,Redo_Instructions_Loop.thisRepN,Redo_Instructions_Loop.thisTrialN,Redo_Instructions_Loop.thisN,Redo_Instructions_Loop.thisIndex,Practice_Recognition_Loop.thisRepN,Practice_Recognition_Loop.thisTrialN,Practice_Recognition_Loop.thisN,Practice_Recognition_Loop.thisIndex,Practice_FB_Loop.thisRepN,Practice_FB_Loop.thisTrialN,Practice_FB_Loop.thisN,Practice_FB_Loop.thisIndex,RecStim_Loop.thisRepN,RecStim_Loop.thisTrialN,RecStim_Loop.thisN,RecStim_Loop.thisIndex,FB_Loop.thisRepN,FB_Loop.thisTrialN,FB_Loop.thisN,FB_Loop.thisIndex,RecBrk_Loop.thisRepN,RecBrk_Loop.thisTrialN,RecBrk_Loop.thisN,RecBrk_Loop.thisIndex,Transition_Enc.keys,Transition_Enc.rt,Encoding_Resp.keys,Encoding_Resp.rt,EncBrk_Resp.keys,EncBrk_Resp.rt,participant,date,expName,psychopyVersion,frameRate,
,,,,,,,,,,,,,,,,,,,,,,,,,,,,,,,,space,24.378431874793023,,,,,8,2024-07-26_15h32.04.955,EPIDM,2023.1.2,None,
F078.jpg,L130.jpg,,,,,,,,,,,0,0,0,0,,,,,,,,,,,,,,,,,,,s,4.7132352909538895,,,8,2024-07-26_15h32.04.955,EPIDM,2023.1.2,None,
P036.jpg,P217.jpg,,,,,,,,,,,0,1,1,1,,,,,,,,,,,,,,,,,,,k,12.388714582892135,,,8,2024-07-26_15h32.04.955,EPIDM,2023.1.2,None,
O161.jpg,F218.jpg,,,,,,,,,,,0,2,2,2,,,,,,,,,,,,,,,,,,,k,8.915727708023041,,,8,2024-07-26_15h32.04.955,EPIDM,2023.1.2,None,
F279.jpg,A001.jpg,,,,,,,,,,,0,3,3,3,,,,,,,,,,,,,,,,,,,s,8.590210374910384,,,8,2024-07-26_15h32.04.955,EPIDM,2023.1.2,None,
F273.jpg,A060.jpg,,,,,,,,,,,0,4,4,4,,,,,,,,,,,,,,,,,,,a,20.102137707872316,,,8,2024-07-26_15h32.04.955,EPIDM,2023.1.2,None,
2393.jpg,L055.jpg,,,,,,,,,,,0,5,5,5,,,,,,,,,,,,,,,,,,,j,12.698663417017087,,,8,2024-07-26_15h32.04.955,EPIDM,2023.1.2,None,
1812.jpg,2593.jpg,,,,,,,,,,,0,6,6,6,,,,,,,,,,,,,,,,,,,a,17.958955041132867,,,8,2024-07-26_15h32.04.955,EPIDM,2023.1.2,None,
O013.jpg,A067.jpg,,,,,,,,,,,0,7,7,7,,,,,,,,,,,,,,,,,,,k,5.341350582893938,,,8,2024-07-26_15h32.04.955,EPIDM,2023.1.2,None,
P033.jpg,P034.jpg,,,,,,,,,,,0,8,8,8,,,,,,,,,,,,,,,,,,,j,9.558675625128672,,,8,2024-07-26_15h32.04.955,EPIDM,2023.1.2,None,
A104.jpg,8186.jpg,,,,,,,,,,,0,9,9,9,,,,,,,,,,,,,,,,,,,a,5.550508541986346,,,8,2024-07-26_15h32.04.955,EPIDM,2023.1.2,None,
,,,,,,,,,,,,,,,,,,,,,,,,,,,,,,,,space,4.634518457809463,,,,,8,2024-07-26_15h32.04.955,EPIDM,2023.1.2,None,
8041.jpg,9405.jpg,2 Points,3 Points,,,,,,,,,,,,,,,,,0,0,0,0,,,,,,,,,,,a,4.383925125002861,,,8,2024-07-26_15h32.04.955,EPIDM,2023.1.2,None,
4500.jpg,5532.jpg,3 Points,2 Points,,,,,,,,,,,,,,,,,0,1,1,1,,,,,,,,,,,a,4.786174874985591,,,8,2024-07-26_15h32.04.955,EPIDM,2023.1.2,None,
9500.jpg,6834.jpg,1 Point,5 Points,,,,,,,,,,,,,,,,,0,2,2,2,,,,,,,,,,,k,4.5063157081604,,,8,2024-07-26_15h32.04.955,EPIDM,2023.1.2,None,
9921.jpg,1270.jpg,1 Points,4 Points,,,,,,,,,,,,,,,,,0,3,3,3,,,,,,,,,,,l,4.016385416034609,,,8,2024-07-26_15h32.04.955,EPIDM,2023.1.2,None,
5220.jpg,7230.jpg,0 Points,5 Points,,,,,,,,,,,,,,,,,0,4,4,4,,,,,,,,,,,l,4.124040207825601,,,8,2024-07-26_15h32.04.955,EPIDM,2023.1.2,None,
1942.jpg,2515.jpg,1 Points,4 Points,,,,,,,,,,,,,,,,,0,5,5,5,,,,,,,,,,,s,7.975805040914565,space,3.705858124187216,8,2024-07-26_15h32.04.955,EPIDM,2023.1.2,None,
5971.jpg,2750.jpg,5 Points,4 Points,,,,,,,,,,,,,,,,,0,6,6,6,,,,,,,,,,,l,7.846083665965125,,,8,2024-07-26_15h32.04.955,EPIDM,2023.1.2,None,
7500.jpg,6313.jpg,2 Points,3 Points,,,,,,,,,,,,,,,,,0,7,7,7,,,,,,,,,,,d,7.4062458330299705,,,8,2024-07-26_15h32.04.955,EPIDM,2023.1.2,None,
9250.jpg,6840.jpg,0 Points,1 Points,,,,,,,,,,,,,,,,,0,8,8,8,,,,,,,,,,,d,9.104843624867499,,,8,2024-07-26_15h32.04.955,EPIDM,2023.1.2,None,
9220.jpg,7560.jpg,1 Point,4 Points,,,,,,,,,,,,,,,,,0,9,9,9,,,,,,,,,,,j,7.654981749132276,,,8,2024-07-26_15h32.04.955,EPIDM,2023.1.2,None,
2381.jpg,1313.jpg,1 Point,4 Points,,,,,,,,,,,,,,,,,0,10,10,10,,,,,,,,,,,d,5.966665957821533,,,8,2024-07-26_15h32.04.955,EPIDM,2023.1.2,None,
1932.jpg,2053.jpg,1 Points,4 Points,,,,,,,,,,,,,,,,,0,11,11,11,,,,,,,,,,,j,11.428890499984846,,,8,2024-07-26_15h32.04.955,EPIDM,2023.1.2,None,
6000.jpg,9411.jpg,4 Points,0 Points,,,,,,,,,,,,,,,,,0,12,12,12,,,,,,,,,,,l,5.5784215410239995,,,8,2024-07-26_15h32.04.955,EPIDM,2023.1.2,None,
9010.jpg,5450.jpg,0 Points,5 Points,,,,,,,,,,,,,,,,,0,13,13,13,,,,,,,,,,,l,10.03100295807235,,,8,2024-07-26_15h32.04.955,EPIDM,2023.1.2,None,
1540.jpg,8185.jpg,1 Point,0 Points,,,,,,,,,,,,,,,,,0,14,14,14,,,,,,,,,,,a,2.9324270409997553,,,8,2024-07-26_15h32.04.955,EPIDM,2023.1.2,None,
7006.jpg,6821.jpg,3 Points,2 Points,,,,,,,,,,,,,,,,,0,15,15,15,,,,,,,,,,,j,7.0702754580415785,,,8,2024-07-26_15h32.04.955,EPIDM,2023.1.2,None,
1670.jpg,4274.jpg,3 Points,2 Points,,,,,,,,,,,,,,,,,0,16,16,16,,,,,,,,,,,d,4.879500791197643,,,8,2024-07-26_15h32.04.955,EPIDM,2023.1.2,None,
5622.jpg,7495.jpg,4 Points,1 Points,,,,,,,,,,,,,,,,,0,17,17,17,,,,,,,,,,,a,2.808980999980122,,,8,2024-07-26_15h32.04.955,EPIDM,2023.1.2,None,
6910.jpg,1200.jpg,0 Points,4 Points,,,,,,,,,,,,,,,,,0,18,18,18,,,,,,,,,,,l,5.73593316716142,,,8,2024-07-26_15h32.04.955,EPIDM,2023.1.2,None,
7096.jpg,1111.jpg,5 Points,0 Points,,,,,,,,,,,,,,,,,0,19,19,19,,,,,,,,,,,a,3.148647166090086,,,8,2024-07-26_15h32.04.955,EPIDM,2023.1.2,None,
9910.jpg,9561.jpg,2 Points,3 Points,,,,,,,,,,,,,,,,,0,20,20,20,,,,,,,,,,,j,4.00502987485379,,,8,2024-07-26_15h32.04.955,EPIDM,2023.1.2,None,
1112.jpg,6415.jpg,3 Points,2 Points,,,,,,,,,,,,,,,,,0,21,21,21,,,,,,,,,,,a,2.609814250143245,space,1.60671699908562,8,2024-07-26_15h32.04.955,EPIDM,2023.1.2,None,
7480.jpg,2385.jpg,0 Points,3 Points,,,,,,,,,,,,,,,,,0,22,22,22,,,,,,,,,,,l,3.2543596250470728,,,8,2024-07-26_15h32.04.955,EPIDM,2023.1.2,None,
7183.jpg,9800.jpg,4 Points,1 Point,,,,,,,,,,,,,,,,,0,23,23,23,,,,,,,,,,,d,5.234553999034688,,,8,2024-07-26_15h32.04.955,EPIDM,2023.1.2,None,
9210.jpg,9290.jpg,1 Point,2 Points,,,,,,,,,,,,,,,,,0,24,24,24,,,,,,,,,,,d,6.022611208027229,,,8,2024-07-26_15h32.04.955,EPIDM,2023.1.2,None,
4532.jpg,7150.jpg,3 Points,2 Points,,,,,,,,,,,,,,,,,0,25,25,25,,,,,,,,,,,s,4.940136292017996,,,8,2024-07-26_15h32.04.955,EPIDM,2023.1.2,None,
2352.2.jpg,6530.jpg,0 Points,1 Point,,,,,,,,,,,,,,,,,0,26,26,26,,,,,,,,,,,l,7.937747332965955,,,8,2024-07-26_15h32.04.955,EPIDM,2023.1.2,None,
3069.jpg,O022.jpg,3 Points,2 Points,,,,,,,,,,,,,,,,,0,27,27,27,,,,,,,,,,,d,4.218371833208948,,,8,2024-07-26_15h32.04.955,EPIDM,2023.1.2,None,
8400.jpg,2490.jpg,1 Point,4 Points,,,,,,,,,,,,,,,,,0,28,28,28,,,,,,,,,,,d,11.166134708095342,,,8,2024-07-26_15h32.04.955,EPIDM,2023.1.2,None,
2880.jpg,7281.jpg,5 Points,0 Points,,,,,,,,,,,,,,,,,0,29,29,29,,,,,,,,,,,a,3.2513472919818014,,,8,2024-07-26_15h32.04.955,EPIDM,2023.1.2,None,
4609.jpg,1900.jpg,2 Points,4 Points,,,,,,,,,,,,,,,,,0,30,30,30,,,,,,,,,,,k,3.833258042111993,,,8,2024-07-26_15h32.04.955,EPIDM,2023.1.2,None,
7010.jpg,1120.jpg,2 Points,3 Points,,,,,,,,,,,,,,,,,0,31,31,31,,,,,,,,,,,d,2.1994914170354605,,,8,2024-07-26_15h32.04.955,EPIDM,2023.1.2,None,
3300.jpg,3110.jpg,0 Points,4 Points,,,,,,,,,,,,,,,,,0,32,32,32,,,,,,,,,,,k,3.4539199171122164,,,8,2024-07-26_15h32.04.955,EPIDM,2023.1.2,None,
6610.jpg,9911.jpg,0 Points,5 Points,,,,,,,,,,,,,,,,,0,33,33,33,,,,,,,,,,,j,3.1346127081196755,,,8,2024-07-26_15h32.04.955,EPIDM,2023.1.2,None,
2752.jpg,7360.jpg,2 Points,1 Point,,,,,,,,,,,,,,,,,0,34,34,34,,,,,,,,,,,j,10.238361707888544,,,8,2024-07-26_15h32.04.955,EPIDM,2023.1.2,None,
7090.jpg,2690.jpg,4 Points,1 Point,,,,,,,,,,,,,,,,,0,35,35,35,,,,,,,,,,,l,3.3902707488741726,,,8,2024-07-26_15h32.04.955,EPIDM,2023.1.2,None,
4279.jpg,2030.jpg,5 Points,0 Points,,,,,,,,,,,,,,,,,0,36,36,36,,,,,,,,,,,k,4.982125665992498,,,8,2024-07-26_15h32.04.955,EPIDM,2023.1.2,None,
3068.jpg,5950.jpg,5 Points,0 Points,,,,,,,,,,,,,,,,,0,37,37,37,,,,,,,,,,,j,5.3793970418628305,space,1.5480346661061049,8,2024-07-26_15h32.04.955,EPIDM,2023.1.2,None,
9101.jpg,1945.jpg,2 Points,4 Points,,,,,,,,,,,,,,,,,0,38,38,38,,,,,,,,,,,k,8.253794000018388,,,8,2024-07-26_15h32.04.955,EPIDM,2023.1.2,None,
5626.jpg,5533.jpg,2 Points,3 Points,,,,,,,,,,,,,,,,,0,39,39,39,,,,,,,,,,,l,2.5926840000320226,,,8,2024-07-26_15h32.04.955,EPIDM,2023.1.2,None,
9265.jpg,9041.jpg,0 Points,4 Points,,,,,,,,,,,,,,,,,0,40,40,40,,,,,,,,,,,k,9.500760124064982,,,8,2024-07-26_15h32.04.955,EPIDM,2023.1.2,None,
3301.jpg,7705.jpg,0 Points,5 Points,,,,,,,,,,,,,,,,,0,41,41,41,,,,,,,,,,,s,4.9577508750371635,,,8,2024-07-26_15h32.04.955,EPIDM,2023.1.2,None,
4536.jpg,2170.jpg,4 Points,2 Points,,,,,,,,,,,,,,,,,0,42,42,42,,,,,,,,,,,d,11.45422733318992,,,8,2024-07-26_15h32.04.955,EPIDM,2023.1.2,None,
7140.jpg,2702.jpg,0 Points,5 Points,,,,,,,,,,,,,,,,,0,43,43,43,,,,,,,,,,,d,5.35848499997519,,,8,2024-07-26_15h32.04.955,EPIDM,2023.1.2,None,
2661.jpg,8503.jpg,5 Points,2 Points,,,,,,,,,,,,,,,,,0,44,44,44,,,,,,,,,,,a,5.268366249045357,,,8,2024-07-26_15h32.04.955,EPIDM,2023.1.2,None,
8480.jpg,9830.jpg,1 Point,4 Points,,,,,,,,,,,,,,,,,0,45,45,45,,,,,,,,,,,l,3.4363508329261094,,,8,2024-07-26_15h32.04.955,EPIDM,2023.1.2,None,
F149.jpg,P237.jpg,0 Points,2 Points,,,,,,,,,,,,,,,,,0,46,46,46,,,,,,,,,,,j,4.229719082824886,,,8,2024-07-26_15h32.04.955,EPIDM,2023.1.2,None,
9621.jpg,6838.jpg,0 Points,5 Points,,,,,,,,,,,,,,,,,0,47,47,47,,,,,,,,,,,d,5.982463749824092,,,8,2024-07-26_15h32.04.955,EPIDM,2023.1.2,None,
P222.jpg,3051.jpg,2 Points,1 Point,,,,,,,,,,,,,,,,,0,48,48,48,,,,,,,,,,,s,5.1439672079868615,,,8,2024-07-26_15h32.04.955,EPIDM,2023.1.2,None,
1022.jpg,7031.jpg,1 Point,4 Points,,,,,,,,,,,,,,,,,0,49,49,49,,,,,,,,,,,a,3.009702750016004,,,8,2024-07-26_15h32.04.955,EPIDM,2023.1.2,None,
8200.jpg,2312.jpg,4 Points,1 Points,,,,,,,,,,,,,,,,,0,50,50,50,,,,,,,,,,,a,3.00895349890925,,,8,2024-07-26_15h32.04.955,EPIDM,2023.1.2,None,
7025.jpg,3400.jpg,3 Points,2 Points,,,,,,,,,,,,,,,,,0,51,51,51,,,,,,,,,,,j,4.2090984580572695,,,8,2024-07-26_15h32.04.955,EPIDM,2023.1.2,None,
1201.jpg,3180.jpg,3 Points,5 Points,,,,,,,,,,,,,,,,,0,52,52,52,,,,,,,,,,,a,4.78575100004673,,,8,2024-07-26_15h32.04.955,EPIDM,2023.1.2,None,
3210.jpg,7130.jpg,1 Point,4 Points,,,,,,,,,,,,,,,,,0,53,53,53,,,,,,,,,,,j,4.267792499857023,space,1.0995031241327524,8,2024-07-26_15h32.04.955,EPIDM,2023.1.2,None,
7195.jpg,4598.jpg,2 Points,1 Point,,,,,,,,,,,,,,,,,0,54,54,54,,,,,,,,,,,k,3.6380962489638478,,,8,2024-07-26_15h32.04.955,EPIDM,2023.1.2,None,
7224.jpg,9102.jpg,2 Points,3 Points,,,,,,,,,,,,,,,,,0,55,55,55,,,,,,,,,,,l,2.060662833042443,,,8,2024-07-26_15h32.04.955,EPIDM,2023.1.2,None,
3100.jpg,3062.jpg,2 Points,3 Points,,,,,,,,,,,,,,,,,0,56,56,56,,,,,,,,,,,d,6.9068886251188815,,,8,2024-07-26_15h32.04.955,EPIDM,2023.1.2,None,
8180.jpg,1603.jpg,4 Points,1 Points,,,,,,,,,,,,,,,,,0,57,57,57,,,,,,,,,,,d,7.175259333103895,,,8,2024-07-26_15h32.04.955,EPIDM,2023.1.2,None,
5260.jpg,1602.jpg,5 Points,1 Point,,,,,,,,,,,,,,,,,0,58,58,58,,,,,,,,,,,d,2.736794498981908,,,8,2024-07-26_15h32.04.955,EPIDM,2023.1.2,None,
5890.jpg,5990.jpg,2 Points,3 Points,,,,,,,,,,,,,,,,,0,59,59,59,,,,,,,,,,,k,4.3424372498411685,,,8,2024-07-26_15h32.04.955,EPIDM,2023.1.2,None,
F158.jpg,9582.jpg,3 Points,5 Points,,,,,,,,,,,,,,,,,0,60,60,60,,,,,,,,,,,j,4.004860416054726,,,8,2024-07-26_15h32.04.955,EPIDM,2023.1.2,None,
9440.jpg,1274.jpg,4 Points,1 Points,,,,,,,,,,,,,,,,,0,61,61,61,,,,,,,,,,,a,3.351588415913284,,,8,2024-07-26_15h32.04.955,EPIDM,2023.1.2,None,
F032.jpg,9594.jpg,1 Point,4 Points,,,,,,,,,,,,,,,,,0,62,62,62,,,,,,,,,,,d,3.4447992080822587,,,8,2024-07-26_15h32.04.955,EPIDM,2023.1.2,None,
7233.jpg,5623.jpg,0 Points,5 Points,,,,,,,,,,,,,,,,,0,63,63,63,,,,,,,,,,,l,2.4431567911524326,,,8,2024-07-26_15h32.04.955,EPIDM,2023.1.2,None,
7580.jpg,8340.jpg,3 Points,2 Points,,,,,,,,,,,,,,,,,0,64,64,64,,,,,,,,,,,l,2.2713451250456274,,,8,2024-07-26_15h32.04.955,EPIDM,2023.1.2,None,
5020.jpg,5820.jpg,0 Points,5 Points,,,,,,,,,,,,,,,,,0,65,65,65,,,,,,,,,,,k,4.475235125049949,,,8,2024-07-26_15h32.04.955,EPIDM,2023.1.2,None,
7280.jpg,5270.jpg,0 Points,4 Points,,,,,,,,,,,,,,,,,0,66,66,66,,,,,,,,,,,l,3.433565416140482,,,8,2024-07-26_15h32.04.955,EPIDM,2023.1.2,None,
5593.jpg,5600.jpg,0 Points,5 Points,,,,,,,,,,,,,,,,,0,67,67,67,,,,,,,,,,,l,4.00986124901101,,,8,2024-07-26_15h32.04.955,EPIDM,2023.1.2,None,
6831.jpg,9611.jpg,5 Points,3 Points,,,,,,,,,,,,,,,,,0,68,68,68,,,,,,,,,,,l,3.4498804172035307,,,8,2024-07-26_15h32.04.955,EPIDM,2023.1.2,None,
9190.jpg,7110.jpg,0 Points,5 Points,,,,,,,,,,,,,,,,,0,69,69,69,,,,,,,,,,,s,3.2402070828247815,space,1.235700833145529,8,2024-07-26_15h32.04.955,EPIDM,2023.1.2,None,
1113.jpg,6020.jpg,3 Points,2 Points,,,,,,,,,,,,,,,,,0,70,70,70,,,,,,,,,,,l,5.895342375151813,,,8,2024-07-26_15h32.04.955,EPIDM,2023.1.2,None,
5900.jpg,7503.jpg,3 Points,2 Points,,,,,,,,,,,,,,,,,0,71,71,71,,,,,,,,,,,j,4.828969873953611,,,8,2024-07-26_15h32.04.955,EPIDM,2023.1.2,None,
8300.jpg,1910.jpg,3 Points,2 Points,,,,,,,,,,,,,,,,,0,72,72,72,,,,,,,,,,,d,2.56435616617091,,,8,2024-07-26_15h32.04.955,EPIDM,2023.1.2,None,
7282.jpg,5849.jpg,3 Points,2 Points,,,,,,,,,,,,,,,,,0,73,73,73,,,,,,,,,,,j,3.2738521250430495,,,8,2024-07-26_15h32.04.955,EPIDM,2023.1.2,None,
2830.jpg,7100.jpg,5 Points,3 Points,,,,,,,,,,,,,,,,,0,74,74,74,,,,,,,,,,,l,3.911282083019614,,,8,2024-07-26_15h32.04.955,EPIDM,2023.1.2,None,
5629.jpg,5870.jpg,0 Points,5 Points,,,,,,,,,,,,,,,,,0,75,75,75,,,,,,,,,,,l,2.2791129578836262,,,8,2024-07-26_15h32.04.955,EPIDM,2023.1.2,None,
2717.jpg,9330.jpg,4 Points,5 Points,,,,,,,,,,,,,,,,,0,76,76,76,,,,,,,,,,,d,5.1129363749641925,,,8,2024-07-26_15h32.04.955,EPIDM,2023.1.2,None,
7350.jpg,7286.jpg,0 Points,5 Points,,,,,,,,,,,,,,,,,0,77,77,77,,,,,,,,,,,k,3.3824333329685032,,,8,2024-07-26_15h32.04.955,EPIDM,2023.1.2,None,
4100.jpg,1510.jpg,3 Points,4 Points,,,,,,,,,,,,,,,,,0,78,78,78,,,,,,,,,,,a,2.19528920808807,,,8,2024-07-26_15h32.04.955,EPIDM,2023.1.2,None,
7035.jpg,4660.jpg,1 Points,4 Points,,,,,,,,,,,,,,,,,0,79,79,79,,,,,,,,,,,l,1.444851040840149,,,8,2024-07-26_15h32.04.955,EPIDM,2023.1.2,None,
5535.jpg,8460.jpg,3 Points,0 Points,,,,,,,,,,,,,,,,,0,80,80,80,,,,,,,,,,,d,3.3843346661888063,,,8,2024-07-26_15h32.04.955,EPIDM,2023.1.2,None,
4510.jpg,F252.jpg,5 Points,0 Points,,,,,,,,,,,,,,,,,0,81,81,81,,,,,,,,,,,k,5.405873375013471,,,8,2024-07-26_15h32.04.955,EPIDM,2023.1.2,None,
1220.jpg,8231.jpg,1 Point,4 Points,,,,,,,,,,,,,,,,,0,82,82,82,,,,,,,,,,,j,2.9895741660147905,,,8,2024-07-26_15h32.04.955,EPIDM,2023.1.2,None,
5720.jpg,1616.jpg,3 Points,2 Points,,,,,,,,,,,,,,,,,0,83,83,83,,,,,,,,,,,s,4.0773469160776585,,,8,2024-07-26_15h32.04.955,EPIDM,2023.1.2,None,
6560.jpg,9432.jpg,2 Points,5 Points,,,,,,,,,,,,,,,,,0,84,84,84,,,,,,,,,,,l,11.18253641598858,,,8,2024-07-26_15h32.04.955,EPIDM,2023.1.2,None,
1310.jpg,9913.jpg,4 Points,1 Points,,,,,,,,,,,,,,,,,0,85,85,85,,,,,,,,,,,d,3.908460750011727,space,0.9866501670330763,8,2024-07-26_15h32.04.955,EPIDM,2023.1.2,None,
7352.jpg,5010.jpg,2 Points,5 Points,,,,,,,,,,,,,,,,,0,86,86,86,,,,,,,,,,,l,2.436782500008121,,,8,2024-07-26_15h32.04.955,EPIDM,2023.1.2,None,
2683.jpg,7361.jpg,3 Points,2 Points,,,,,,,,,,,,,,,,,0,87,87,87,,,,,,,,,,,s,5.75009970809333,,,8,2024-07-26_15h32.04.955,EPIDM,2023.1.2,None,
2650.jpg,5621.jpg,5 Points,3 Points,,,,,,,,,,,,,,,,,0,88,88,88,,,,,,,,,,,d,4.107108208118007,,,8,2024-07-26_15h32.04.955,EPIDM,2023.1.2,None,
8090.jpg,5831.jpg,2 Points,3 Points,,,,,,,,,,,,,,,,,0,89,89,89,,,,,,,,,,,d,3.6670507499948144,,,8,2024-07-26_15h32.04.955,EPIDM,2023.1.2,None,
9007.jpg,1101.jpg,0 Points,3 Points,,,,,,,,,,,,,,,,,0,90,90,90,,,,,,,,,,,j,3.7157199990469962,,,8,2024-07-26_15h32.04.955,EPIDM,2023.1.2,None,
7034.jpg,2810.jpg,2 Points,3 Points,,,,,,,,,,,,,,,,,0,91,91,91,,,,,,,,,,,j,4.1212347079999745,,,8,2024-07-26_15h32.04.955,EPIDM,2023.1.2,None,
3500.jpg,6312.jpg,4 Points,2 Points,,,,,,,,,,,,,,,,,0,92,92,92,,,,,,,,,,,l,3.009611082961783,,,8,2024-07-26_15h32.04.955,EPIDM,2023.1.2,None,
6561.jpg,7211.jpg,2 Points,3 Points,,,,,,,,,,,,,,,,,0,93,93,93,,,,,,,,,,,k,2.7525974581949413,,,8,2024-07-26_15h32.04.955,EPIDM,2023.1.2,None,
8350.jpg,5300.jpg,5 Points,1 Point,,,,,,,,,,,,,,,,,0,94,94,94,,,,,,,,,,,k,5.961452458053827,,,8,2024-07-26_15h32.04.955,EPIDM,2023.1.2,None,
2500.jpg,2630.jpg,5 Points,0 Points,,,,,,,,,,,,,,,,,0,95,95,95,,,,,,,,,,,s,4.674496623920277,,,8,2024-07-26_15h32.04.955,EPIDM,2023.1.2,None,
F174.jpg,6830.jpg,5 Points,4 Points,,,,,,,,,,,,,,,,,0,96,96,96,,,,,,,,,,,k,3.043003417085856,,,8,2024-07-26_15h32.04.955,EPIDM,2023.1.2,None,
5994.jpg,5700.jpg,0 Points,5 Points,,,,,,,,,,,,,,,,,0,97,97,97,,,,,,,,,,,k,6.142997333081439,,,8,2024-07-26_15h32.04.955,EPIDM,2023.1.2,None,
5500.jpg,5520.jpg,3 Points,2 Points,,,,,,,,,,,,,,,,,0,98,98,98,,,,,,,,,,,a,1.9996325829997659,,,8,2024-07-26_15h32.04.955,EPIDM,2023.1.2,None,
7545.jpg,2389.jpg,5 Points,0 Points,,,,,,,,,,,,,,,,,0,99,99,99,,,,,,,,,,,s,2.4255180419422686,,,8,2024-07-26_15h32.04.955,EPIDM,2023.1.2,None,
2220.jpg,2092.jpg,5 Points,0 Points,,,,,,,,,,,,,,,,,0,100,100,100,,,,,,,,,,,a,5.140911374008283,,,8,2024-07-26_15h32.04.955,EPIDM,2023.1.2,None,
9452.jpg,9700.jpg,4 Points,1 Points,,,,,,,,,,,,,,,,,0,101,101,101,,,,,,,,,,,j,4.626778707839549,space,1.2868386660702527,8,2024-07-26_15h32.04.955,EPIDM,2023.1.2,None,
1390.jpg,1051.jpg,2 Points,0 Points,,,,,,,,,,,,,,,,,0,102,102,102,,,,,,,,,,,s,3.695190333062783,,,8,2024-07-26_15h32.04.955,EPIDM,2023.1.2,None,
7182.jpg,7620.jpg,4 Points,1 Point,,,,,,,,,,,,,,,,,0,103,103,103,,,,,,,,,,,s,3.513934957794845,,,8,2024-07-26_15h32.04.955,EPIDM,2023.1.2,None,
4608.jpg,5510.jpg,1 Point,5 Points,,,,,,,,,,,,,,,,,0,104,104,104,,,,,,,,,,,a,9.789356166031212,,,8,2024-07-26_15h32.04.955,EPIDM,2023.1.2,None,
2620.jpg,5470.jpg,0 Points,5 Points,,,,,,,,,,,,,,,,,0,105,105,105,,,,,,,,,,,a,1.9705664161592722,,,8,2024-07-26_15h32.04.955,EPIDM,2023.1.2,None,
6242.jpg,3530.jpg,4 Points,1 Point,,,,,,,,,,,,,,,,,0,106,106,106,,,,,,,,,,,a,5.715685833012685,,,8,2024-07-26_15h32.04.955,EPIDM,2023.1.2,None,
5731.jpg,2606.jpg,4 Points,1 Point,,,,,,,,,,,,,,,,,0,107,107,107,,,,,,,,,,,a,1.8593699580524117,,,8,2024-07-26_15h32.04.955,EPIDM,2023.1.2,None,
1650.jpg,8510.jpg,1 Points,4 Points,,,,,,,,,,,,,,,,,0,108,108,108,,,,,,,,,,,l,2.096098291920498,,,8,2024-07-26_15h32.04.955,EPIDM,2023.1.2,None,
4770.jpg,5920.jpg,3 Points,2 Points,,,,,,,,,,,,,,,,,0,109,109,109,,,,,,,,,,,a,1.442651875084266,,,8,2024-07-26_15h32.04.955,EPIDM,2023.1.2,None,
2410.jpg,4689.jpg,4 Points,5 Points,,,,,,,,,,,,,,,,,0,110,110,110,,,,,,,,,,,a,4.819808583008125,,,8,2024-07-26_15h32.04.955,EPIDM,2023.1.2,None,
7040.jpg,A041.jpg,4 Points,1 Point,,,,,,,,,,,,,,,,,0,111,111,111,,,,,,,,,,,j,3.0947133749723434,,,8,2024-07-26_15h32.04.955,EPIDM,2023.1.2,None,
A074.jpg,6190.jpg,2 Points,5 Points,,,,,,,,,,,,,,,,,0,112,112,112,,,,,,,,,,,k,2.512442498933524,,,8,2024-07-26_15h32.04.955,EPIDM,2023.1.2,None,
3060.jpg,7217.jpg,1 Point,4 Points,,,,,,,,,,,,,,,,,0,113,113,113,,,,,,,,,,,k,2.7413747501559556,,,8,2024-07-26_15h32.04.955,EPIDM,2023.1.2,None,
3168.jpg,9420.jpg,4 Points,2 Points,,,,,,,,,,,,,,,,,0,114,114,114,,,,,,,,,,,d,2.2963596251793206,,,8,2024-07-26_15h32.04.955,EPIDM,2023.1.2,None,
7207.jpg,2791.jpg,1 Points,4 Points,,,,,,,,,,,,,,,,,0,115,115,115,,,,,,,,,,,k,4.792705208063126,,,8,2024-07-26_15h32.04.955,EPIDM,2023.1.2,None,
5531.jpg,7283.jpg,3 Points,4 Points,,,,,,,,,,,,,,,,,0,116,116,116,,,,,,,,,,,d,3.452427624957636,,,8,2024-07-26_15h32.04.955,EPIDM,2023.1.2,None,
9300.jpg,7030.jpg,4 Points,1 Points,,,,,,,,,,,,,,,,,0,117,117,117,,,,,,,,,,,a,3.053229416022077,space,0.9591546668671072,8,2024-07-26_15h32.04.955,EPIDM,2023.1.2,None,
1947.jpg,1811.jpg,5 Points,1 Point,,,,,,,,,,,,,,,,,0,118,118,118,,,,,,,,,,,d,3.596408208133653,,,8,2024-07-26_15h32.04.955,EPIDM,2023.1.2,None,
7020.jpg,2206.jpg,5 Points,0 Points,,,,,,,,,,,,,,,,,0,119,119,119,,,,,,,,,,,d,5.074250457808375,,,8,2024-07-26_15h32.04.955,EPIDM,2023.1.2,None,
9042.jpg,P217.jpg,0 Points,5 Points,,,,,,,,,,,,,,,,,0,120,120,120,,,,,,,,,,,k,4.4502010410651565,,,8,2024-07-26_15h32.04.955,EPIDM,2023.1.2,None,
6210.jpg,7080.jpg,1 Point,4 Points,,,,,,,,,,,,,,,,,0,121,121,121,,,,,,,,,,,l,2.659284375142306,,,8,2024-07-26_15h32.04.955,EPIDM,2023.1.2,None,
7260.jpg,8280.jpg,5 Points,3 Points,,,,,,,,,,,,,,,,,0,122,122,122,,,,,,,,,,,s,4.145212249131873,,,8,2024-07-26_15h32.04.955,EPIDM,2023.1.2,None,
5740.jpg,7205.jpg,0 Points,5 Points,,,,,,,,,,,,,,,,,0,123,123,123,,,,,,,,,,,s,6.3670261250808835,,,8,2024-07-26_15h32.04.955,EPIDM,2023.1.2,None,
1660.jpg,7185.jpg,2 Points,1 Point,,,,,,,,,,,,,,,,,0,124,124,124,,,,,,,,,,,l,1.988167000003159,,,8,2024-07-26_15h32.04.955,EPIDM,2023.1.2,None,
1450.jpg,5530.jpg,5 Points,0 Points,,,,,,,,,,,,,,,,,0,125,125,125,,,,,,,,,,,d,2.370432124938816,,,8,2024-07-26_15h32.04.955,EPIDM,2023.1.2,None,
6540.jpg,1930.jpg,3 Points,1 Point,,,,,,,,,,,,,,,,,0,126,126,126,,,,,,,,,,,j,7.0426864579785615,,,8,2024-07-26_15h32.04.955,EPIDM,2023.1.2,None,
5628.jpg,5660.jpg,5 Points,0 Points,,,,,,,,,,,,,,,,,0,127,127,127,,,,,,,,,,,s,2.489028749987483,,,8,2024-07-26_15h32.04.955,EPIDM,2023.1.2,None,
4250.jpg,7830.jpg,5 Points,3 Points,,,,,,,,,,,,,,,,,0,128,128,128,,,,,,,,,,,k,3.4010981239844114,,,8,2024-07-26_15h32.04.955,EPIDM,2023.1.2,None,
2512.jpg,7050.jpg,1 Point,4 Points,,,,,,,,,,,,,,,,,0,129,129,129,,,,,,,,,,,j,2.6097552909050137,,,8,2024-07-26_15h32.04.955,EPIDM,2023.1.2,None,
4621.jpg,3280.jpg,2 Points,0 Points,,,,,,,,,,,,,,,,,0,130,130,130,,,,,,,,,,,k,3.9055274999700487,,,8,2024-07-26_15h32.04.955,EPIDM,2023.1.2,None,
5910.jpg,5460.jpg,5 Points,0 Points,,,,,,,,,,,,,,,,,0,131,131,131,,,,,,,,,,,a,3.1898341660853475,,,8,2024-07-26_15h32.04.955,EPIDM,2023.1.2,None,
1300.jpg,3000.jpg,2 Points,5 Points,,,,,,,,,,,,,,,,,0,132,132,132,,,,,,,,,,,a,3.673909500008449,,,8,2024-07-26_15h32.04.955,EPIDM,2023.1.2,None,
4233.jpg,5875.jpg,5 Points,0 Points,,,,,,,,,,,,,,,,,0,133,133,133,,,,,,,,,,,k,2.4766605829354376,space,2.17363820807077,8,2024-07-26_15h32.04.955,EPIDM,2023.1.2,None,
2270.jpg,2000.jpg,2 Points,0 Points,,,,,,,,,,,,,,,,,0,134,134,134,,,,,,,,,,,s,3.7168819159269333,,,8,2024-07-26_15h32.04.955,EPIDM,2023.1.2,None,
9600.jpg,7640.jpg,5 Points,0 Points,,,,,,,,,,,,,,,,,0,135,135,135,,,,,,,,,,,d,2.421587167074904,,,8,2024-07-26_15h32.04.955,EPIDM,2023.1.2,None,
1810.jpg,2616.jpg,3 Points,4 Points,,,,,,,,,,,,,,,,,0,136,136,136,,,,,,,,,,,j,10.274415082996711,,,8,2024-07-26_15h32.04.955,EPIDM,2023.1.2,None,
9180.jpg,9630.jpg,3 Points,2 Points,,,,,,,,,,,,,,,,,0,137,137,137,,,,,,,,,,,k,1.7010287081357092,,,8,2024-07-26_15h32.04.955,EPIDM,2023.1.2,None,
9560.jpg,1302.jpg,1 Point,3 Points,,,,,,,,,,,,,,,,,0,138,138,138,,,,,,,,,,,k,6.626686832867563,,,8,2024-07-26_15h32.04.955,EPIDM,2023.1.2,None,
7000.jpg,1321.jpg,2 Points,3 Points,,,,,,,,,,,,,,,,,0,139,139,139,,,,,,,,,,,d,2.601309958146885,,,8,2024-07-26_15h32.04.955,EPIDM,2023.1.2,None,
9331.jpg,1275.jpg,2 Points,1 Point,,,,,,,,,,,,,,,,,0,140,140,140,,,,,,,,,,,k,2.2840134580619633,,,8,2024-07-26_15h32.04.955,EPIDM,2023.1.2,None,
9400.jpg,9810.jpg,3 Points,2 Points,,,,,,,,,,,,,,,,,0,141,141,141,,,,,,,,,,,k,4.5426708329468966,,,8,2024-07-26_15h32.04.955,EPIDM,2023.1.2,None,
8033.jpg,7289.jpg,3 Points,0 Points,,,,,,,,,,,,,,,,,0,142,142,142,,,,,,,,,,,d,4.577482167165726,,,8,2024-07-26_15h32.04.955,EPIDM,2023.1.2,None,
7502.jpg,9230.jpg,5 Points,0 Points,,,,,,,,,,,,,,,,,0,143,143,143,,,,,,,,,,,d,4.584493667120114,,,8,2024-07-26_15h32.04.955,EPIDM,2023.1.2,None,
7490.jpg,8021.jpg,2 Points,4 Points,,,,,,,,,,,,,,,,,0,144,144,144,,,,,,,,,,,k,6.265172291081399,,,8,2024-07-26_15h32.04.955,EPIDM,2023.1.2,None,
9280.jpg,9424.jpg,1 Point,4 Points,,,,,,,,,,,,,,,,,0,145,145,145,,,,,,,,,,,s,2.3540805829688907,,,8,2024-07-26_15h32.04.955,EPIDM,2023.1.2,None,
2682.jpg,2710.jpg,5 Points,1 Point,,,,,,,,,,,,,,,,,0,146,146,146,,,,,,,,,,,s,3.3165730419568717,,,8,2024-07-26_15h32.04.955,EPIDM,2023.1.2,None,
7235.jpg,7186.jpg,3 Points,2 Points,,,,,,,,,,,,,,,,,0,147,147,147,,,,,,,,,,,a,1.938308082986623,,,8,2024-07-26_15h32.04.955,EPIDM,2023.1.2,None,
7351.jpg,7187.jpg,4 Points,1 Point,,,,,,,,,,,,,,,,,0,148,148,148,,,,,,,,,,,k,2.6629153329413384,,,8,2024-07-26_15h32.04.955,EPIDM,2023.1.2,None,
9001.jpg,1230.jpg,1 Point,4 Points,,,,,,,,,,,,,,,,,0,149,149,149,,,,,,,,,,,s,2.003114625113085,space,1.9375761658884585,8,2024-07-26_15h32.04.955,EPIDM,2023.1.2,None,
9410.jpg,1280.jpg,0 Points,2 Points,,,,,,,,,,,,,,,,,0,150,150,150,,,,,,,,,,,d,6.893473207950592,,,8,2024-07-26_15h32.04.955,EPIDM,2023.1.2,None,
2716.jpg,3250.jpg,2 Points,3 Points,,,,,,,,,,,,,,,,,0,151,151,151,,,,,,,,,,,j,2.708725499920547,,,8,2024-07-26_15h32.04.955,EPIDM,2023.1.2,None,
1301.jpg,3063.jpg,2 Points,5 Points,,,,,,,,,,,,,,,,,0,152,152,152,,,,,,,,,,,j,4.131211291067302,,,8,2024-07-26_15h32.04.955,EPIDM,2023.1.2,None,
3053.jpg,7550.jpg,4 Points,1 Points,,,,,,,,,,,,,,,,,0,153,153,153,,,,,,,,,,,k,2.2883403331506997,,,8,2024-07-26_15h32.04.955,EPIDM,2023.1.2,None,
4613.jpg,F203.jpg,4 Points,0 Points,,,,,,,,,,,,,,,,,0,154,154,154,,,,,,,,,,,a,2.4659302080981433,,,8,2024-07-26_15h32.04.955,EPIDM,2023.1.2,None,
5991.jpg,5750.jpg,0 Points,5 Points,,,,,,,,,,,,,,,,,0,155,155,155,,,,,,,,,,,j,2.9553293329663575,,,8,2024-07-26_15h32.04.955,EPIDM,2023.1.2,None,
9430.jpg,1931.jpg,5 Points,3 Points,,,,,,,,,,,,,,,,,0,156,156,156,,,,,,,,,,,k,2.5035190829075873,,,8,2024-07-26_15h32.04.955,EPIDM,2023.1.2,None,
8531.jpg,7095.jpg,4 Points,1 Points,,,,,,,,,,,,,,,,,0,157,157,157,,,,,,,,,,,k,4.810140499146655,,,8,2024-07-26_15h32.04.955,EPIDM,2023.1.2,None,
8500.jpg,7820.jpg,4 Points,0 Points,,,,,,,,,,,,,,,,,0,158,158,158,,,,,,,,,,,k,5.329927167156711,,,8,2024-07-26_15h32.04.955,EPIDM,2023.1.2,None,
7004.jpg,1019.jpg,5 Points,0 Points,,,,,,,,,,,,,,,,,0,159,159,159,,,,,,,,,,,d,1.7176583330146968,,,8,2024-07-26_15h32.04.955,EPIDM,2023.1.2,None,
