L_Scene,R_Scene,Points_L,Points_R,PtTotal,blockFile,Instructions_Loop.thisRepN,Instructions_Loop.thisTrialN,Instructions_Loop.thisN,Instructions_Loop.thisIndex,Redo_Instructions_Loop.thisRepN,Redo_Instructions_Loop.thisTrialN,Redo_Instructions_Loop.thisN,Redo_Instructions_Loop.thisIndex,Practice_Encoding_Loop.thisRepN,Practice_Encoding_Loop.thisTrialN,Practice_Encoding_Loop.thisN,Practice_Encoding_Loop.thisIndex,Practice_Response_Fail_Loop.thisRepN,Practice_Response_Fail_Loop.thisTrialN,Practice_Response_Fail_Loop.thisN,Practice_Response_Fail_Loop.thisIndex,Practice_FB_Loop.thisRepN,Practice_FB_Loop.thisTrialN,Practice_FB_Loop.thisN,Practice_FB_Loop.thisIndex,Practice_Attention_Loop.thisRepN,Practice_Attention_Loop.thisTrialN,Practice_Attention_Loop.thisN,Practice_Attention_Loop.thisIndex,Practice_EncBrk_Loop.thisRepN,Practice_EncBrk_Loop.thisTrialN,Practice_EncBrk_Loop.thisN,Practice_EncBrk_Loop.thisIndex,Encoding_Loop.thisRepN,Encoding_Loop.thisTrialN,Encoding_Loop.thisN,Encoding_Loop.thisIndex,EncStim_Loop.thisRepN,EncStim_Loop.thisTrialN,EncStim_Loop.thisN,EncStim_Loop.thisIndex,Response_Fail_Loop.thisRepN,Response_Fail_Loop.thisTrialN,Response_Fail_Loop.thisN,Response_Fail_Loop.thisIndex,FB_Loop.thisRepN,FB_Loop.thisTrialN,FB_Loop.thisN,FB_Loop.thisIndex,Attention_Loop.thisRepN,Attention_Loop.thisTrialN,Attention_Loop.thisN,Attention_Loop.thisIndex,EncBrk_Loop.thisRepN,EncBrk_Loop.thisTrialN,EncBrk_Loop.thisN,EncBrk_Loop.thisIndex,Transition_Enc.keys,Transition_Enc.rt,Encoding_Resp.started,Encoding_Resp.keys,Encoding_Resp.rt,R_Point_FB_Stim.started,Attn_resp.keys,Attn_resp.rt,Progress_Tracker.started,EncBrk_Resp.keys,EncBrk_Resp.rt,participant,Group,date,expName,psychopyVersion,frameRate,
,,,,,,,,,,,,,,,,,,,,,,,,,,,,,,,,,,,,,,,,,,,,,,,,,,,,,,,,,,space,10.280148167163134,,,,,,,,,,10,B,2024-08-01_10h01.59.407,EPIDM,2023.1.2,None,
A060.jpg,F041.jpg,5 Points,5 Points,5 Points,,,,,,,,,,0,0,0,0,,,,,,,,,,,,,,,,,,,,,,,,,,,,,,,,,,,,,,,,,,,182.33844679198228,None,,,,,,,,10,B,2024-08-01_10h01.59.407,EPIDM,2023.1.2,None,
O161.jpg,1812.jpg,2 Points,2 Points,7 Points,,,,,,,,,,0,1,1,1,,,,,,,,,,,,,,,,,,,,,,,,,,,,,,,,,,,,,,,,,,,189.83504229178652,q,0.7873624581843615,190.73685766686685,,,,,,10,B,2024-08-01_10h01.59.407,EPIDM,2023.1.2,None,
O013.jpg,A001.jpg,3 Points,3 Points,10 Points,,,,,,,,,,0,2,2,2,,,,,,,,,,,,,,,,,,,,,,,,,,,,,,,,,,,,,,,,,,,194.9394384578336,q,2.130351500120014,197.2116838749498,,,,,,10,B,2024-08-01_10h01.59.407,EPIDM,2023.1.2,None,
P036.jpg,F273.jpg,5 Points,5 Points,15 Points,,,,,,,,,,0,3,3,3,,,,,,,,,,,,,,,,,,,,,,,,,,,,,,,,,,,,,,,,,,,201.3812139169313,p,1.144744667224586,202.70455474988557,,,,,,10,B,2024-08-01_10h01.59.407,EPIDM,2023.1.2,None,
L130.jpg,2393.jpg,0 Points,0 Points,15 Points,,,,,,,,,,0,4,4,4,,,,,,,,,,,,,,,,,,,,,,,,,,,,,,,,,,,,,,,,,,,206.856042874977,p,1.7024912922643125,208.7026819998864,0,6.184589459327981,,,,10,B,2024-08-01_10h01.59.407,EPIDM,2023.1.2,None,
F279.jpg,P033.jpg,3 Points,3 Points,18 Points,,,,,,,,,,0,5,5,5,,,,,,,,,,,,,,,,,,,,,,,,,,,,,,,,,,,,,,,,,,,219.15793212479912,q,1.4729587079491466,220.7716808328405,,,,,,10,B,2024-08-01_10h01.59.407,EPIDM,2023.1.2,None,
A104.jpg,2593.jpg,2 Points,2 Points,20 Points,,,,,,,,,,0,6,6,6,,,,,,,,,,,,,,,,,,,,,,,,,,,,,,,,,,,,,,,,,,,224.94733112491667,p,1.443692833185196,226.51868633297272,,,,,,10,B,2024-08-01_10h01.59.407,EPIDM,2023.1.2,None,
2598.jpg,2605.jpg,0 Points,0 Points,20 Points,,,,,,,,,,0,7,7,7,,,,,,,,,,,,,,,,,,,,,,,,,,,,,,,,,,,,,,,,,,,230.70451629185118,q,0.6856597503647208,231.45410012477078,,,,,,10,B,2024-08-01_10h01.59.407,EPIDM,2023.1.2,None,
L005.jpg,O011.jpg,1 Points,1 Points,21 Points,,,,,,,,,,0,8,8,8,,,,,,,,,,,,,,,,,,,,,,,,,,,,,,,,,,,,,,,,,,,235.71191737498157,q,1.6139112922828645,237.46573133277707,,,,,,10,B,2024-08-01_10h01.59.407,EPIDM,2023.1.2,None,
8186.jpg,F078.jpg,2 Points,2 Points,23 Points,,,,,,,,,,0,9,9,9,,,,,,,,,,,,,,,,,,,,,,,,,,,,,,,,,,,,,,,,,,,241.653916249983,q,0.831512917065993,242.6205317499116,2,2.53914154227823,255.3780100417789,space,14.116373792290688,10,B,2024-08-01_10h01.59.407,EPIDM,2023.1.2,None,
,,,,,,,,,,,,,,,,,,,,,,,,,,,,,,,,,,,,,,,,,,,,,,,,,,,,,,,,,,space,5.872594958171248,,,,,,,,,,10,B,2024-08-01_10h01.59.407,EPIDM,2023.1.2,None,
7284.jpg,8021.jpg,4 Points,4 Points,4 Points,PS2_L1.csv,,,,,,,,,,,,,,,,,,,,,,,,,,,,,0,0,0,0,0,0,0,0,,,,,,,,,,,,,,,,,,,288.1667187497951,p,0.8461887501180172,289.1057689168956,,,,,,10,B,2024-08-01_10h01.59.407,EPIDM,2023.1.2,None,
2214.jpg,4500.jpg,3 Points,3 Points,7 points,PS2_L1.csv,,,,,,,,,,,,,,,,,,,,,,,,,,,,,0,0,0,0,0,1,1,1,,,,,,,,,,,,,,,,,,,293.33371466677636,q,0.9192909169942141,294.32551783300005,3,1.8411892091389745,,,,10,B,2024-08-01_10h01.59.407,EPIDM,2023.1.2,None,
1280.jpg,9402.jpg,2 Points,2 Points,9 points,PS2_L1.csv,,,,,,,,,,,,,,,,,,,,,,,,,,,,,0,0,0,0,0,2,2,2,,,,,,,,,,,,,,,,,,,300.4739225828089,p,1.114419792080298,301.65677804197185,,,,,,10,B,2024-08-01_10h01.59.407,EPIDM,2023.1.2,None,
1650.jpg,2130.jpg,1 Points,1 Points,10 points,PS2_L1.csv,,,,,,,,,,,,,,,,,,,,,,,,,,,,,0,0,0,0,0,3,3,3,,,,,,,,,,,,,,,,,,,305.9066759578418,q,0.40225329203531146,306.3853633329272,,,,,,10,B,2024-08-01_10h01.59.407,EPIDM,2023.1.2,None,
2221.jpg,2270.jpg,2 Points,2 Points,12 points,PS2_L1.csv,,,,,,,,,,,,,,,,,,,,,,,,,,,,,0,0,0,0,0,4,4,4,,,,,,,,,,,,,,,,,,,310.6326413329225,q,0.7950259582139552,311.4895101247821,,,,,,10,B,2024-08-01_10h01.59.407,EPIDM,2023.1.2,None,
9373.jpg,9410.jpg,0 Points,0 Points,12 points,PS2_L1.csv,,,,,,,,,,,,,,,,,,,,,,,,,,,,,0,0,0,0,0,5,5,5,,,,,,,,,,,,,,,,,,,315.7428895418998,q,0.34931995905935764,316.16973216691986,,,,,,10,B,2024-08-01_10h01.59.407,EPIDM,2023.1.2,None,
4250.jpg,7060.jpg,5 Points,5 Points,17 points,PS2_L1.csv,,,,,,,,,,,,,,,,,,,,,,,,,,,,,0,0,0,0,0,6,6,6,,,,,,,,,,,,,,,,,,,320.4229551667813,q,0.7970405002124608,321.2943379578646,,,,,,10,B,2024-08-01_10h01.59.407,EPIDM,2023.1.2,None,
5130.jpg,1810.jpg,3 Points,3 Points,20 points,PS2_L1.csv,,,,,,,,,,,,,,,,,,,,,,,,,,,,,0,0,0,0,0,7,7,7,,,,,,,,,,,,,,,,,,,325.54297149996273,p,0.2849072511307895,325.90729779191315,,,,,,10,B,2024-08-01_10h01.59.407,EPIDM,2023.1.2,None,
6370.jpg,1270.jpg,4 Points,4 Points,24 points,PS2_L1.csv,,,,,,,,,,,,,,,,,,,,,,,,,,,,,0,0,0,0,0,8,8,8,,,,,,,,,,,,,,,,,,,330.1486227919813,q,0.4555326672270894,330.682960791979,,,,,,10,B,2024-08-01_10h01.59.407,EPIDM,2023.1.2,None,
5480.jpg,8200.jpg,4 Points,4 Points,28 points,PS2_L1.csv,,,,,,,,,,,,,,,,,,,,,,,,,,,,,0,0,0,0,0,9,9,9,,,,,,,,,,,,,,,,,,,334.92829704191536,q,0.6050449581816792,335.61248183296993,,,,,,10,B,2024-08-01_10h01.59.407,EPIDM,2023.1.2,None,
2520.jpg,8503.jpg,2 Points,2 Points,30 points,PS2_L1.csv,,,,,,,,,,,,,,,,,,,,,,,,,,,,,0,0,0,0,0,10,10,10,,,,,,,,,,,,,,,,,,,339.85580337489955,q,0.515751084079966,340.45133429183625,,,,,,10,B,2024-08-01_10h01.59.407,EPIDM,2023.1.2,None,
5971.jpg,9912.jpg,5 Points,5 Points,35 points,PS2_L1.csv,,,,,,,,,,,,,,,,,,,,,,,,,,,,,0,0,0,0,0,11,11,11,,,,,,,,,,,,,,,,,,,344.69715670798905,p,0.5706808750983328,345.3359537918586,,,,,,10,B,2024-08-01_10h01.59.407,EPIDM,2023.1.2,None,
7195.jpg,2487.jpg,2 Points,2 Points,37 points,PS2_L1.csv,,,,,,,,,,,,,,,,,,,,,,,,,,,,,0,0,0,0,0,12,12,12,,,,,,,,,,,,,,,,,,,349.58527154196054,q,0.4027157921809703,350.0631414579693,,,,,,10,B,2024-08-01_10h01.59.407,EPIDM,2023.1.2,None,
6840.jpg,3080.jpg,1 Points,1 Points,38 points,PS2_L1.csv,,,,,,,,,,,,,,,,,,,,,,,,,,,,,0,0,0,0,0,13,13,13,,,,,,,,,,,,,,,,,,,354.3202670000028,q,0.45939783309586346,354.85542104183696,1,1.4998572091571987,,,,10,B,2024-08-01_10h01.59.407,EPIDM,2023.1.2,None,
5510.jpg,2514.jpg,5 Points,5 Points,43 points,PS2_L1.csv,,,,,,,,,,,,,,,,,,,,,,,,,,,,,0,0,0,0,0,14,14,14,,,,,,,,,,,,,,,,,,,360.6811913747806,p,0.7307720012031496,361.48519329191186,,,,,,10,B,2024-08-01_10h01.59.407,EPIDM,2023.1.2,None,
7170.jpg,2170.jpg,2 Points,2 Points,45 points,PS2_L1.csv,,,,,,,,,,,,,,,,,,,,,,,,,,,,,0,0,0,0,0,15,15,15,,,,,,,,,,,,,,,,,,,365.7419397919439,q,0.6216647922992706,366.4419199998956,,,,,,10,B,2024-08-01_10h01.59.407,EPIDM,2023.1.2,None,
6020.jpg,6300.jpg,2 Points,2 Points,47 points,PS2_L1.csv,,,,,,,,,,,,,,,,,,,,,,,,,,,,,0,0,0,0,0,16,16,16,,,,,,,,,,,,,,,,,,,370.68465904193,q,0.4388097091577947,371.1953169167973,,,,,,10,B,2024-08-01_10h01.59.407,EPIDM,2023.1.2,None,
1942.jpg,2890.jpg,1 Points,1 Points,48 points,PS2_L1.csv,,,,,,,,,,,,,,,,,,,,,,,,,,,,,0,0,0,0,0,17,17,17,,,,,,,,,,,,,,,,,,,375.44160541682504,p,0.24096791725605726,375.7424736248795,,,,,,10,B,2024-08-01_10h01.59.407,EPIDM,2023.1.2,None,
6241.jpg,9561.jpg,3 Points,3 Points,51 points,PS2_L1.csv,,,,,,,,,,,,,,,,,,,,,,,,,,,,,0,0,0,0,0,18,18,18,,,,,,,,,,,,,,,,,,,380.0012561669573,q,1.0650878341402858,381.13866887497716,,,,,,10,B,2024-08-01_10h01.59.407,EPIDM,2023.1.2,None,
4536.jpg,2280.jpg,4 Points,4 Points,55 points,PS2_L1.csv,,,,,,,,,,,,,,,,,,,,,,,,,,,,,0,0,0,0,0,19,19,19,,,,,,,,,,,,,,,,,,,385.3810516248923,q,0.41356583405286074,385.86851629195735,,,,,,10,B,2024-08-01_10h01.59.407,EPIDM,2023.1.2,None,
6000.jpg,6836.jpg,4 Points,4 Points,59 points,PS2_L1.csv,,,,,,,,,,,,,,,,,,,,,,,,,,,,,0,0,0,0,0,20,20,20,,,,,,,,,,,,,,,,,,,390.11684491694905,q,0.5583270012866706,390.751924791839,,,,,,10,B,2024-08-01_10h01.59.407,EPIDM,2023.1.2,None,
8232.jpg,4279.jpg,5 Points,5 Points,64 points,PS2_L1.csv,,,,,,,,,,,,,,,,,,,,,,,,,,,,,0,0,0,0,0,21,21,21,,,,,,,,,,,,,,,,,,,394.9985576248728,q,0.49238225002773106,395.56284791696817,,,,,,10,B,2024-08-01_10h01.59.407,EPIDM,2023.1.2,None,
2312.jpg,2722.jpg,1 Points,1 Points,65 points,PS2_L1.csv,,,,,,,,,,,,,,,,,,,,,,,,,,,,,0,0,0,0,0,22,22,22,,,,,,,,,,,,,,,,,,,399.8090324578807,p,1.0412332511041313,400.92036383296363,,,,,,10,B,2024-08-01_10h01.59.407,EPIDM,2023.1.2,None,
2750.jpg,9050.jpg,4 Points,4 Points,69 points,PS2_L1.csv,,,,,,,,,,,,,,,,,,,,,,,,,,,,,0,0,0,0,0,23,23,23,,,,,,,,,,,,,,,,,,,405.17052341694944,q,0.3518463331274688,405.5818954168353,,,416.0873060829472,space,19.514768126187846,10,B,2024-08-01_10h01.59.407,EPIDM,2023.1.2,None,
1113.jpg,1240.jpg,3 Points,3 Points,72 points,PS2_L2.csv,,,,,,,,,,,,,,,,,,,,,,,,,,,,,0,1,1,1,0,0,0,0,,,,,,,,,,,,,,,,,,,438.9235831669066,q,0.37468483322300017,439.37281849980354,,,,,,10,B,2024-08-01_10h01.59.407,EPIDM,2023.1.2,None,
8220.jpg,2410.jpg,4 Points,4 Points,76 points,PS2_L2.csv,,,,,,,,,,,,,,,,,,,,,,,,,,,,,0,1,1,1,0,1,1,1,,,,,,,,,,,,,,,,,,,443.6157328749541,q,0.4426509172189981,444.1301353329327,4,1.3485002922825515,,,,10,B,2024-08-01_10h01.59.407,EPIDM,2023.1.2,None,
4621.jpg,3550.jpg,2 Points,2 Points,78 points,PS2_L2.csv,,,,,,,,,,,,,,,,,,,,,,,,,,,,,0,1,1,1,0,2,2,2,,,,,,,,,,,,,,,,,,,449.7747340418864,q,0.9462067501153797,450.78240083297715,,,,,,10,B,2024-08-01_10h01.59.407,EPIDM,2023.1.2,None,
2751.jpg,6313.jpg,3 Points,3 Points,81 points,PS2_L2.csv,,,,,,,,,,,,,,,,,,,,,,,,,,,,,0,1,1,1,0,3,3,3,,,,,,,,,,,,,,,,,,,455.0400760828052,q,0.5775240832008421,455.6804859167896,,,,,,10,B,2024-08-01_10h01.59.407,EPIDM,2023.1.2,None,
4689.jpg,7009.jpg,5 Points,5 Points,86 points,PS2_L2.csv,,,,,,,,,,,,,,,,,,,,,,,,,,,,,0,1,1,1,0,4,4,4,,,,,,,,,,,,,,,,,,,459.9414761669468,q,0.34753320924937725,460.3569539578166,,,,,,10,B,2024-08-01_10h01.59.407,EPIDM,2023.1.2,None,
6831.jpg,2141.jpg,5 Points,5 Points,91 points,PS2_L2.csv,,,,,,,,,,,,,,,,,,,,,,,,,,,,,0,1,1,1,0,5,5,5,,,,,,,,,,,,,,,,,,,464.60987020796165,q,0.21392883406952024,464.8787471249234,,,,,,10,B,2024-08-01_10h01.59.407,EPIDM,2023.1.2,None,
9417.jpg,6530.jpg,1 Point,1 Point,92 points,PS2_L2.csv,,,,,,,,,,,,,,,,,,,,,,,,,,,,,0,1,1,1,0,6,6,6,,,,,,,,,,,,,,,,,,,469.1498692079913,q,0.4579382922966033,469.65953337494284,,,,,,10,B,2024-08-01_10h01.59.407,EPIDM,2023.1.2,None,
7237.jpg,8510.jpg,4 Points,4 Points,96 points,PS2_L2.csv,,,,,,,,,,,,,,,,,,,,,,,,,,,,,0,1,1,1,0,7,7,7,,,,,,,,,,,,,,,,,,,473.9247182079125,q,0.7562050002161413,474.73937362479046,,,,,,10,B,2024-08-01_10h01.59.407,EPIDM,2023.1.2,None,
4608.jpg,8320.jpg,1 Point,1 Point,97 points,PS2_L2.csv,,,,,,,,,,,,,,,,,,,,,,,,,,,,,0,1,1,1,0,8,8,8,,,,,,,,,,,,,,,,,,,479.0059202918783,q,0.6742038330994546,479.73157874983735,,,,,,10,B,2024-08-01_10h01.59.407,EPIDM,2023.1.2,None,
9254.jpg,9290.jpg,2 Points,2 Points,99 points,PS2_L2.csv,,,,,,,,,,,,,,,,,,,,,,,,,,,,,0,1,1,1,0,9,9,9,,,,,,,,,,,,,,,,,,,484.0109375829343,q,0.9885864171665162,485.04376412485726,,,,,,10,B,2024-08-01_10h01.59.407,EPIDM,2023.1.2,None,
9530.jpg,9220.jpg,1 Point,1 Point,100 points,PS2_L2.csv,,,,,,,,,,,,,,,,,,,,,,,,,,,,,0,1,1,1,0,10,10,10,,,,,,,,,,,,,,,,,,,489.3328910828568,p,0.2664991673082113,489.6422925419174,,,,,,10,B,2024-08-01_10h01.59.407,EPIDM,2023.1.2,None,
2092.jpg,2210.jpg,0 Points,0 Points,100 points,PS2_L2.csv,,,,,,,,,,,,,,,,,,,,,,,,,,,,,0,1,1,1,0,11,11,11,,,,,,,,,,,,,,,,,,,493.9227978747804,p,0.38137937523424625,494.3470282498747,,,,,,10,B,2024-08-01_10h01.59.407,EPIDM,2023.1.2,None,
9500.jpg,6360.jpg,1 Point,1 Point,101 points,PS2_L2.csv,,,,,,,,,,,,,,,,,,,,,,,,,,,,,0,1,1,1,0,12,12,12,,,,,,,,,,,,,,,,,,,498.62401529191993,q,0.2559849170502275,498.9533237919677,,,,,,10,B,2024-08-01_10h01.59.407,EPIDM,2023.1.2,None,
2220.jpg,2010.jpg,5 Points,5 Points,106 points,PS2_L2.csv,,,,,,,,,,,,,,,,,,,,,,,,,,,,,0,1,1,1,0,13,13,13,,,,,,,,,,,,,,,,,,,503.2064825419802,q,0.3126560002565384,503.6017864579335,5,1.514798125019297,,,,10,B,2024-08-01_10h01.59.407,EPIDM,2023.1.2,None,
5940.jpg,9411.jpg,0 Points,0 Points,106 points,PS2_L2.csv,,,,,,,,,,,,,,,,,,,,,,,,,,,,,0,1,1,1,0,14,14,14,,,,,,,,,,,,,,,,,,,509.4228211247828,q,0.9683409172575921,510.45972483279184,,,,,,10,B,2024-08-01_10h01.59.407,EPIDM,2023.1.2,None,
4533.jpg,2385.jpg,3 Points,3 Points,109 points,PS2_L2.csv,,,,,,,,,,,,,,,,,,,,,,,,,,,,,0,1,1,1,0,15,15,15,,,,,,,,,,,,,,,,,,,514.7126052919775,q,0.1839606671128422,514.9742475829553,,,,,,10,B,2024-08-01_10h01.59.407,EPIDM,2023.1.2,None,
9340.jpg,6910.jpg,0 Points,0 Points,109 points,PS2_L2.csv,,,,,,,,,,,,,,,,,,,,,,,,,,,,,0,1,1,1,0,16,16,16,,,,,,,,,,,,,,,,,,,519.2153869578615,q,0.48752937535755336,519.7801739999559,,,,,,10,B,2024-08-01_10h01.59.407,EPIDM,2023.1.2,None,
8350.jpg,7190.jpg,5 Points,5 Points,114 points,PS2_L2.csv,,,,,,,,,,,,,,,,,,,,,,,,,,,,,0,1,1,1,0,17,17,17,,,,,,,,,,,,,,,,,,,524.0284252918791,p,0.30764445825479925,524.415226874873,,,,,,10,B,2024-08-01_10h01.59.407,EPIDM,2023.1.2,None,
6211.jpg,9611.jpg,3 Points,3 Points,117 points ,PS2_L2.csv,,,,,,,,,,,,,,,,,,,,,,,,,,,,,0,1,1,1,0,18,18,18,,,,,,,,,,,,,,,,,,,528.6682076668367,p,0.2667580421548337,529.0091925829183,,,,,,10,B,2024-08-01_10h01.59.407,EPIDM,2023.1.2,None,
2053.jpg,9415.jpg,4 Points,4 Points,121 points,PS2_L2.csv,,,,,,,,,,,,,,,,,,,,,,,,,,,,,0,1,1,1,0,19,19,19,,,,,,,,,,,,,,,,,,,533.2647905419581,q,1.1665021672379225,534.4966064579785,,,,,,10,B,2024-08-01_10h01.59.407,EPIDM,2023.1.2,None,
2110.jpg,7260.jpg,5 Points,5 Points,126 points,PS2_L2.csv,,,,,,,,,,,,,,,,,,,,,,,,,,,,,0,1,1,1,0,20,20,20,,,,,,,,,,,,,,,,,,,538.7508902919944,q,0.5126721672713757,539.3327086667996,,,,,,10,B,2024-08-01_10h01.59.407,EPIDM,2023.1.2,None,
2030.jpg,2495.jpg,0 Points,0 Points,126 points,PS2_L2.csv,,,,,,,,,,,,,,,,,,,,,,,,,,,,,0,1,1,1,0,21,21,21,,,,,,,,,,,,,,,,,,,543.5805870417971,q,0.5065121261868626,544.1578709578607,,,,,,10,B,2024-08-01_10h01.59.407,EPIDM,2023.1.2,None,
1302.jpg,2700.jpg,3 Points,3 Points,129 points,PS2_L2.csv,,,,,,,,,,,,,,,,,,,,,,,,,,,,,0,1,1,1,0,22,22,22,,,,,,,,,,,,,,,,,,,548.3957194997929,p,0.9623341260012239,549.4345099169295,,,,,,10,B,2024-08-01_10h01.59.407,EPIDM,2023.1.2,None,
9010.jpg,9253.jpg,0 Points,0 Points,129 points,PS2_L2.csv,,,,,,,,,,,,,,,,,,,,,,,,,,,,,0,1,1,1,0,23,23,23,,,,,,,,,,,,,,,,,,,553.6803597919643,q,1.141972126206383,554.8983674999326,,,565.4067342919298,space,7.304040709277615,10,B,2024-08-01_10h01.59.407,EPIDM,2023.1.2,None,
1303.jpg,2000.jpg,0 Points,0 Points,129 points,PS2_L3.csv,,,,,,,,,,,,,,,,,,,,,,,,,,,,,0,2,2,2,0,0,0,0,,,,,,,,,,,,,,,,,,,576.0469527498353,q,0.8148726671934128,576.9366221667733,,,,,,10,B,2024-08-01_10h01.59.407,EPIDM,2023.1.2,None,
2200.jpg,4598.jpg,1 Point,1 Point,130 points,PS2_L3.csv,,,,,,,,,,,,,,,,,,,,,,,,,,,,,0,2,2,2,0,1,1,1,,,,,,,,,,,,,,,,,,,581.1707483748905,q,0.2656778763048351,581.5093193748035,1,1.8284540420863777,,,,10,B,2024-08-01_10h01.59.407,EPIDM,2023.1.2,None,
6190.jpg,3120.jpg,5 Points,5 Points,135 points,PS2_L3.csv,,,,,,,,,,,,,,,,,,,,,,,,,,,,,0,2,2,2,0,2,2,2,,,,,,,,,,,,,,,,,,,587.6899688330013,q,1.1381645421497524,588.9681658749469,,,,,,10,B,2024-08-01_10h01.59.407,EPIDM,2023.1.2,None,
2570.jpg,5500.jpg,3 Points,3 Points,138 points,PS2_L3.csv,,,,,,,,,,,,,,,,,,,,,,,,,,,,,0,2,2,2,0,3,3,3,,,,,,,,,,,,,,,,,,,593.1576213329099,q,0.6322930841706693,593.8868777079042,,,,,,10,B,2024-08-01_10h01.59.407,EPIDM,2023.1.2,None,
8460.jpg,8330.jpg,0 Points,0 Points,138 points,PS2_L3.csv,,,,,,,,,,,,,,,,,,,,,,,,,,,,,0,2,2,2,0,4,4,4,,,,,,,,,,,,,,,,,,,598.106049957918,q,0.4434281252324581,598.6211811248213,,,,,,10,B,2024-08-01_10h01.59.407,EPIDM,2023.1.2,None,
9320.jpg,9007.jpg,0 Points,0 Points,138 points,PS2_L3.csv,,,,,,,,,,,,,,,,,,,,,,,,,,,,,0,2,2,2,0,5,5,5,,,,,,,,,,,,,,,,,,,602.8697662078775,q,0.8630954590626061,603.7999289168511,,,,,,10,B,2024-08-01_10h01.59.407,EPIDM,2023.1.2,None,
2650.jpg,4531.jpg,5 Points,5 Points,143 points,PS2_L3.csv,,,,,,,,,,,,,,,,,,,,,,,,,,,,,0,2,2,2,0,6,6,6,,,,,,,,,,,,,,,,,,,608.0546587498393,q,0.3016211672220379,608.4439477080014,,,,,,10,B,2024-08-01_10h01.59.407,EPIDM,2023.1.2,None,
4100.jpg,6570.2.jpg,3 Points,3 Points,146 points,PS2_L3.csv,,,,,,,,,,,,,,,,,,,,,,,,,,,,,0,2,2,2,0,7,7,7,,,,,,,,,,,,,,,,,,,612.6828270829283,q,0.6274233341682702,613.3893210419919,,,,,,10,B,2024-08-01_10h01.59.407,EPIDM,2023.1.2,None,
3102.jpg,F032.jpg,1 Point,1 Point,147 points,PS2_L3.csv,,,,,,,,,,,,,,,,,,,,,,,,,,,,,0,2,2,2,0,8,8,8,,,,,,,,,,,,,,,,,,,617.6313005418051,q,0.3794146250002086,618.1750438748859,,,,,,10,B,2024-08-01_10h01.59.407,EPIDM,2023.1.2,None,
2240.jpg,5010.jpg,5 Points,5 Points,152 points,PS2_L3.csv,,,,,,,,,,,,,,,,,,,,,,,,,,,,,0,2,2,2,0,9,9,9,,,,,,,,,,,,,,,,,,,622.3434349168092,q,0.3948430421296507,622.8943682918325,,,,,,10,B,2024-08-01_10h01.59.407,EPIDM,2023.1.2,None,
4605.jpg,1510.jpg,4 Points,4 Points,156 points,PS2_L3.csv,,,,,,,,,,,,,,,,,,,,,,,,,,,,,0,2,2,2,0,10,10,10,,,,,,,,,,,,,,,,,,,627.0486150828656,p,0.9712559171020985,628.0996402078308,,,,,,10,B,2024-08-01_10h01.59.407,EPIDM,2023.1.2,None,
9490.jpg,9210.jpg,1 Point,1 Point,157 points,PS2_L3.csv,,,,,,,,,,,,,,,,,,,,,,,,,,,,,0,2,2,2,0,11,11,11,,,,,,,,,,,,,,,,,,,632.3392102918588,p,1.024236834142357,633.432002666872,,,,,,10,B,2024-08-01_10h01.59.407,EPIDM,2023.1.2,None,
6821.jpg,9622.jpg,2 Points,2 Points,159 points,PS2_L3.csv,,,,,,,,,,,,,,,,,,,,,,,,,,,,,0,2,2,2,0,12,12,12,,,,,,,,,,,,,,,,,,,637.6873274168465,q,0.396755917230621,638.1418236668687,,,,,,10,B,2024-08-01_10h01.59.407,EPIDM,2023.1.2,None,
2681.jpg,7100.jpg,3 Points,3 Points,162 points,PS2_L3.csv,,,,,,,,,,,,,,,,,,,,,,,,,,,,,0,2,2,2,0,13,13,13,,,,,,,,,,,,,,,,,,,642.4014585828409,q,0.34684229199774563,642.8226262917742,3,2.704396625282243,,,,10,B,2024-08-01_10h01.59.407,EPIDM,2023.1.2,None,
5622.jpg,9156.jpg,4 Points,4 Points,166 points,PS2_L3.csv,,,,,,,,,,,,,,,,,,,,,,,,,,,,,0,2,2,2,0,14,14,14,,,,,,,,,,,,,,,,,,,649.8511819168925,q,1.288894875207916,651.2230281669181,,,,,,10,B,2024-08-01_10h01.59.407,EPIDM,2023.1.2,None,
1111.jpg,1040.jpg,0 Points,0 Points,166 points,PS2_L3.csv,,,,,,,,,,,,,,,,,,,,,,,,,,,,,0,2,2,2,0,15,15,15,,,,,,,,,,,,,,,,,,,655.4675285827834,p,1.0646209591068327,656.6115161248017,,,,,,10,B,2024-08-01_10h01.59.407,EPIDM,2023.1.2,None,
1112.jpg,6230.jpg,3 Points,3 Points,169 points,PS2_L3.csv,,,,,,,,,,,,,,,,,,,,,,,,,,,,,0,2,2,2,0,16,16,16,,,,,,,,,,,,,,,,,,,660.8528685828205,p,0.8464220841415226,661.7662041247822,,,,,,10,B,2024-08-01_10h01.59.407,EPIDM,2023.1.2,None,
8161.jpg,1900.jpg,4 Points,4 Points,173 points,PS2_L3.csv,,,,,,,,,,,,,,,,,,,,,,,,,,,,,0,2,2,2,0,17,17,17,,,,,,,,,,,,,,,,,,,666.0110397078097,q,0.3999605842400342,666.4753951667808,,,,,,10,B,2024-08-01_10h01.59.407,EPIDM,2023.1.2,None,
9800.jpg,9433.jpg,1 Point,1 Point,174 points,PS2_L3.csv,,,,,,,,,,,,,,,,,,,,,,,,,,,,,0,2,2,2,0,18,18,18,,,,,,,,,,,,,,,,,,,670.7202599579468,q,0.9229058341588825,671.6999641668517,,,,,,10,B,2024-08-01_10h01.59.407,EPIDM,2023.1.2,None,
1390.jpg,9421.jpg,2 Points,2 Points,176 points,PS2_L3.csv,,,,,,,,,,,,,,,,,,,,,,,,,,,,,0,2,2,2,0,19,19,19,,,,,,,,,,,,,,,,,,,675.9612115419004,q,0.5853278341237456,676.617776791798,,,,,,10,B,2024-08-01_10h01.59.407,EPIDM,2023.1.2,None,
2850.jpg,4532.jpg,3 Points,3 Points,179 points,PS2_L3.csv,,,,,,,,,,,,,,,,,,,,,,,,,,,,,0,2,2,2,0,20,20,20,,,,,,,,,,,,,,,,,,,680.8613497498445,q,0.36592150130309165,681.2896273329388,,,,,,10,B,2024-08-01_10h01.59.407,EPIDM,2023.1.2,None,
1560.jpg,8185.jpg,0 Points,0 Points,179 points,PS2_L3.csv,,,,,,,,,,,,,,,,,,,,,,,,,,,,,0,2,2,2,0,21,21,21,,,,,,,,,,,,,,,,,,,685.5526126248296,q,1.1060848331544548,686.731853291858,,,,,,10,B,2024-08-01_10h01.59.407,EPIDM,2023.1.2,None,
6314.jpg,O022.jpg,2 Points,2 Points,181 points,PS2_L3.csv,,,,,,,,,,,,,,,,,,,,,,,,,,,,,0,2,2,2,0,22,22,22,,,,,,,,,,,,,,,,,,,690.9937703327741,q,0.5301857502199709,691.6268921669107,,,,,,10,B,2024-08-01_10h01.59.407,EPIDM,2023.1.2,None,
4274.jpg,8160.jpg,2 Points,2 Points,183 points,PS2_L3.csv,,,,,,,,,,,,,,,,,,,,,,,,,,,,,0,2,2,2,0,23,23,23,,,,,,,,,,,,,,,,,,,695.8436722918414,q,0.5989086253102869,696.5440402079839,,,707.0575209169183,space,8.720796042121947,10,B,2024-08-01_10h01.59.407,EPIDM,2023.1.2,None,
8117.jpg,2880.jpg,5 Points,5 Points,188 points,PS2_L4.csv,,,,,,,,,,,,,,,,,,,,,,,,,,,,,0,3,3,3,0,0,0,0,,,,,,,,,,,,,,,,,,,719.0957922497764,q,0.7388302502222359,719.9105869578198,,,,,,10,B,2024-08-01_10h01.59.407,EPIDM,2023.1.2,None,
3220.jpg,3063.jpg,5 Points,5 Points,193 points,PS2_L4.csv,,,,,,,,,,,,,,,,,,,,,,,,,,,,,0,3,3,3,0,1,1,1,,,,,,,,,,,,,,,,,,,724.1464103749022,q,0.5521566250827163,724.757067249855,5,1.9023962921928614,,,,10,B,2024-08-01_10h01.59.407,EPIDM,2023.1.2,None,
9040.jpg,1120.jpg,3 Points,3 Points,196 points,PS2_L4.csv,,,,,,,,,,,,,,,,,,,,,,,,,,,,,0,3,3,3,0,2,2,2,,,,,,,,,,,,,,,,,,,730.9797714578453,q,0.5336376251652837,731.5829096669331,,,,,,10,B,2024-08-01_10h01.59.407,EPIDM,2023.1.2,None,
5030.jpg,1670.jpg,3 Points,3 Points,199 points,PS2_L4.csv,,,,,,,,,,,,,,,,,,,,,,,,,,,,,0,3,3,3,0,3,3,3,,,,,,,,,,,,,,,,,,,735.8352804579772,q,0.23735479218885303,736.1468882919289,,,,,,10,B,2024-08-01_10h01.59.407,EPIDM,2023.1.2,None,
2276.jpg,6540.jpg,3 Points,3 Points,202 points,PS2_L4.csv,,,,,,,,,,,,,,,,,,,,,,,,,,,,,0,3,3,3,0,4,4,4,,,,,,,,,,,,,,,,,,,740.3961100829765,q,0.7900619581341743,741.234942499781,,,,,,10,B,2024-08-01_10h01.59.407,EPIDM,2023.1.2,None,
1540.jpg,2600.jpg,1 Point,1 Point,203 points,PS2_L4.csv,,,,,,,,,,,,,,,,,,,,,,,,,,,,,0,3,3,3,0,5,5,5,,,,,,,,,,,,,,,,,,,745.506088249851,q,0.542887959163636,746.1181481669191,,,,,,10,B,2024-08-01_10h01.59.407,EPIDM,2023.1.2,None,
8465.jpg,8400.jpg,1 Point,1 Point,204 points,PS2_L4.csv,,,,,,,,,,,,,,,,,,,,,,,,,,,,,0,3,3,3,0,6,6,6,,,,,,,,,,,,,,,,,,,750.3753479998559,q,0.45766429230570793,750.9042052498553,,,,,,10,B,2024-08-01_10h01.59.407,EPIDM,2023.1.2,None,
3110.jpg,9000.jpg,4 Points,4 Points,208 points,PS2_L4.csv,,,,,,,,,,,,,,,,,,,,,,,,,,,,,0,3,3,3,0,7,7,7,,,,,,,,,,,,,,,,,,,755.1525169999804,q,0.6730501251295209,755.893288541818,,,,,,10,B,2024-08-01_10h01.59.407,EPIDM,2023.1.2,None,
9570.jpg,6610.jpg,0 Points,0 Points,208 points,PS2_L4.csv,,,,,,,,,,,,,,,,,,,,,,,,,,,,,0,3,3,3,0,8,8,8,,,,,,,,,,,,,,,,,,,760.1381069577765,p,1.4009047092404217,761.6059426669963,,,,,,10,B,2024-08-01_10h01.59.407,EPIDM,2023.1.2,None,
2690.jpg,9360.jpg,1 Point,1 Point,209 points,PS2_L4.csv,,,,,,,,,,,,,,,,,,,,,,,,,,,,,0,3,3,3,0,9,9,9,,,,,,,,,,,,,,,,,,,765.8490577079356,q,0.45660666725598276,766.3715415829793,,,,,,10,B,2024-08-01_10h01.59.407,EPIDM,2023.1.2,None,
8250.jpg,1313.jpg,4 Points,4 Points,213 points,PS2_L4.csv,,,,,,,,,,,,,,,,,,,,,,,,,,,,,0,3,3,3,0,10,10,10,,,,,,,,,,,,,,,,,,,770.6164517919533,q,0.36019466700963676,771.0610697499942,,,,,,10,B,2024-08-01_10h01.59.407,EPIDM,2023.1.2,None,
3022.jpg,2352.2.jpg,0 Points,0 Points,213 points,PS2_L4.csv,,,,,,,,,,,,,,,,,,,,,,,,,,,,,0,3,3,3,0,11,11,11,,,,,,,,,,,,,,,,,,,775.3067859578878,q,0.44524233415722847,775.827233916847,,,,,,10,B,2024-08-01_10h01.59.407,EPIDM,2023.1.2,None,
9920.jpg,3068.jpg,5 Points,5 Points,218 points,PS2_L4.csv,,,,,,,,,,,,,,,,,,,,,,,,,,,,,0,3,3,3,0,12,12,12,,,,,,,,,,,,,,,,,,,780.0699052498676,q,0.33026758418418467,780.4648161667865,,,,,,10,B,2024-08-01_10h01.59.407,EPIDM,2023.1.2,None,
7234.jpg,5533.jpg,3 Points,3 Points,221 points,PS2_L4.csv,,,,,,,,,,,,,,,,,,,,,,,,,,,,,0,3,3,3,0,13,13,13,,,,,,,,,,,,,,,,,,,784.7115844169166,q,0.28069245908409357,785.0621781249065,3,2.1866911670658737,,,,10,B,2024-08-01_10h01.59.407,EPIDM,2023.1.2,None,
6250.1.jpg,3301.jpg,0 Points,0 Points,221 points,PS2_L4.csv,,,,,,,,,,,,,,,,,,,,,,,,,,,,,0,3,3,3,0,14,14,14,,,,,,,,,,,,,,,,,,,791.5567882917821,q,0.6514436672441661,792.286277832929,,,,,,10,B,2024-08-01_10h01.59.407,EPIDM,2023.1.2,None,
2518.jpg,2381.jpg,1 Point,1 Point,222 points,PS2_L4.csv,,,,,,,,,,,,,,,,,,,,,,,,,,,,,0,3,3,3,0,15,15,15,,,,,,,,,,,,,,,,,,,796.53083758289,q,0.33243654225952923,796.930463707773,,,,,,10,B,2024-08-01_10h01.59.407,EPIDM,2023.1.2,None,
1910.jpg,2575.jpg,2 Points,2 Points,224 points,PS2_L4.csv,,,,,,,,,,,,,,,,,,,,,,,,,,,,,0,3,3,3,0,16,16,16,,,,,,,,,,,,,,,,,,,801.1830078749917,q,0.1216222089715302,801.35947070783,,,,,,10,B,2024-08-01_10h01.59.407,EPIDM,2023.1.2,None,
1275.jpg,3150.jpg,1 Point,1 Point,225 points,PS2_L4.csv,,,,,,,,,,,,,,,,,,,,,,,,,,,,,0,3,3,3,0,17,17,17,,,,,,,,,,,,,,,,,,,805.6201728328597,q,0.3228909170720726,806.0097815829795,,,,,,10,B,2024-08-01_10h01.59.407,EPIDM,2023.1.2,None,
2702.jpg,1590.jpg,5 Points,5 Points,230 points,PS2_L4.csv,,,,,,,,,,,,,,,,,,,,,,,,,,,,,0,3,3,3,0,18,18,18,,,,,,,,,,,,,,,,,,,810.2695103329606,q,0.4019740840885788,810.7481945417821,,,,,,10,B,2024-08-01_10h01.59.407,EPIDM,2023.1.2,None,
8480.jpg,6410.jpg,1 Point,1 Point,231 points,PS2_L4.csv,,,,,,,,,,,,,,,,,,,,,,,,,,,,,0,3,3,3,0,19,19,19,,,,,,,,,,,,,,,,,,,815.0070960419253,q,0.4646865001413971,815.5415702078026,,,,,,10,B,2024-08-01_10h01.59.407,EPIDM,2023.1.2,None,
5621.jpg,5534.jpg,3 Points,3 Points,234 points,PS2_L4.csv,,,,,,,,,,,,,,,,,,,,,,,,,,,,,0,3,3,3,0,20,20,20,,,,,,,,,,,,,,,,,,,819.780712749809,q,0.32336541707627475,820.1837652497925,,,,,,10,B,2024-08-01_10h01.59.407,EPIDM,2023.1.2,None,
5972.jpg,6838.jpg,5 Points,5 Points,239 points,PS2_L4.csv,,,,,,,,,,,,,,,,,,,,,,,,,,,,,0,3,3,3,0,21,21,21,,,,,,,,,,,,,,,,,,,824.4299669999164,p,0.7622010840568691,825.2688169579487,,,,,,10,B,2024-08-01_10h01.59.407,EPIDM,2023.1.2,None,
2580.jpg,8300.jpg,3 Points,3 Points,242 points,PS2_L4.csv,,,,,,,,,,,,,,,,,,,,,,,,,,,,,0,3,3,3,0,22,22,22,,,,,,,,,,,,,,,,,,,829.5199078749865,p,0.7275187922641635,830.3205074169673,,,,,,10,B,2024-08-01_10h01.59.407,EPIDM,2023.1.2,None,
7280.jpg,7160.jpg,0 Points,0 Points,242 points,PS2_L4.csv,,,,,,,,,,,,,,,,,,,,,,,,,,,,,0,3,3,3,0,23,23,23,,,,,,,,,,,,,,,,,,,834.5686819998082,p,0.5424670840147883,835.1895634999964,,,845.6835012079682,space,13.091771209146827,10,B,2024-08-01_10h01.59.407,EPIDM,2023.1.2,None,
6243.jpg,2752.jpg,2 Points,2 Points,244 points,PS2_L5.csv,,,,,,,,,,,,,,,,,,,,,,,,,,,,,0,4,4,4,0,0,0,0,,,,,,,,,,,,,,,,,,,862.0970756248571,q,0.997004667064175,863.1656879999209,,,,,,10,B,2024-08-01_10h01.59.407,EPIDM,2023.1.2,None,
8340.jpg,7546.jpg,2 Points,2 Points,246 points,PS2_L5.csv,,,,,,,,,,,,,,,,,,,,,,,,,,,,,0,4,4,4,0,1,1,1,,,,,,,,,,,,,,,,,,,867.4032354999799,q,0.7307567920070142,868.2029892918654,2,1.2397733330726624,,,,10,B,2024-08-01_10h01.59.407,EPIDM,2023.1.2,None,
1022.jpg,6930.jpg,1 Point,1 Point,247 points,PS2_L5.csv,,,,,,,,,,,,,,,,,,,,,,,,,,,,,0,4,4,4,0,2,2,2,,,,,,,,,,,,,,,,,,,873.7592185828835,q,1.9673640001565218,875.7888735828456,,,,,,10,B,2024-08-01_10h01.59.407,EPIDM,2023.1.2,None,
7230.jpg,7570.jpg,5 Points,5 Points,252 points,PS2_L5.csv,,,,,,,,,,,,,,,,,,,,,,,,,,,,,0,4,4,4,0,3,3,3,,,,,,,,,,,,,,,,,,,880.0395142498892,p,1.4870619592256844,881.6029950419907,,,,,,10,B,2024-08-01_10h01.59.407,EPIDM,2023.1.2,None,
5760.jpg,1602.jpg,1 Point,1 Point,253 points,PS2_L5.csv,,,,,,,,,,,,,,,,,,,,,,,,,,,,,0,4,4,4,0,4,4,4,,,,,,,,,,,,,,,,,,,885.8351327918936,p,0.6345076670404524,886.5456440828275,,,,,,10,B,2024-08-01_10h01.59.407,EPIDM,2023.1.2,None,
9584.jpg,3400.jpg,2 Points,2 Points,255 points,PS2_L5.csv,,,,,,,,,,,,,,,,,,,,,,,,,,,,,0,4,4,4,0,5,5,5,,,,,,,,,,,,,,,,,,,890.7949194998946,q,0.9079062500968575,891.7652406247798,,,,,,10,B,2024-08-01_10h01.59.407,EPIDM,2023.1.2,None,
2560.jpg,5270.jpg,4 Points,4 Points,259 points,PS2_L5.csv,,,,,,,,,,,,,,,,,,,,,,,,,,,,,0,4,4,4,0,6,6,6,,,,,,,,,,,,,,,,,,,896.0161815418396,q,0.7169981671031564,896.8040322498418,,,,,,10,B,2024-08-01_10h01.59.407,EPIDM,2023.1.2,None,
3350.jpg,3210.jpg,1 Point,1 Point,260 points,PS2_L5.csv,,,,,,,,,,,,,,,,,,,,,,,,,,,,,0,4,4,4,0,7,7,7,,,,,,,,,,,,,,,,,,,901.057938874932,q,0.9152535002212971,902.0434422078542,,,,,,10,B,2024-08-01_10h01.59.407,EPIDM,2023.1.2,None,
5455.jpg,5220.jpg,0 Points,0 Points,260 points,PS2_L5.csv,,,,,,,,,,,,,,,,,,,,,,,,,,,,,0,4,4,4,0,8,8,8,,,,,,,,,,,,,,,,,,,906.2946296669543,q,0.27910820906981826,906.6387067919131,,,,,,10,B,2024-08-01_10h01.59.407,EPIDM,2023.1.2,None,
7920.jpg,9102.jpg,3 Points,3 Points,263 points,PS2_L5.csv,,,,,,,,,,,,,,,,,,,,,,,,,,,,,0,4,4,4,0,9,9,9,,,,,,,,,,,,,,,,,,,910.9007574578281,q,0.8018279592506588,911.7717196249869,,,,,,10,B,2024-08-01_10h01.59.407,EPIDM,2023.1.2,None,
1301.jpg,1070.jpg,2 Points,2 Points,265 points,PS2_L5.csv,,,,,,,,,,,,,,,,,,,,,,,,,,,,,0,4,4,4,0,10,10,10,,,,,,,,,,,,,,,,,,,916.0180849169847,q,0.6515440423972905,916.7489895829931,,,,,,10,B,2024-08-01_10h01.59.407,EPIDM,2023.1.2,None,
5982.jpg,5260.jpg,5 Points,5 Points,270 points,PS2_L5.csv,,,,,,,,,,,,,,,,,,,,,,,,,,,,,0,4,4,4,0,11,11,11,,,,,,,,,,,,,,,,,,,920.9908209168352,q,0.44540104223415256,921.5165774999186,,,,,,10,B,2024-08-01_10h01.59.407,EPIDM,2023.1.2,None,
5000.jpg,8180.jpg,4 Points,4 Points,274 points,PS2_L5.csv,,,,,,,,,,,,,,,,,,,,,,,,,,,,,0,4,4,4,0,12,12,12,,,,,,,,,,,,,,,,,,,925.7620257919189,q,0.37830491713248193,926.2248856248334,,,,,,10,B,2024-08-01_10h01.59.407,EPIDM,2023.1.2,None,
6244.jpg,9265.jpg,0 Points,0 Points,274 points,PS2_L5.csv,,,,,,,,,,,,,,,,,,,,,,,,,,,,,0,4,4,4,0,13,13,13,,,,,,,,,,,,,,,,,,,930.4691296669189,p,0.9917280841618776,931.5351768748369,0,2.02426025015302,,,,10,B,2024-08-01_10h01.59.407,EPIDM,2023.1.2,None,
5990.jpg,5780.jpg,3 Points,3 Points,277 points,PS2_L5.csv,,,,,,,,,,,,,,,,,,,,,,,,,,,,,0,4,4,4,0,14,14,14,,,,,,,,,,,,,,,,,,,937.8628009168897,q,1.0390054581221193,938.9688820829615,,,,,,10,B,2024-08-01_10h01.59.407,EPIDM,2023.1.2,None,
9440.jpg,6350.jpg,4 Points,4 Points,281 points,PS2_L5.csv,,,,,,,,,,,,,,,,,,,,,,,,,,,,,0,4,4,4,0,15,15,15,,,,,,,,,,,,,,,,,,,943.2237458748277,p,0.9889493752270937,944.2748562919442,,,,,,10,B,2024-08-01_10h01.59.407,EPIDM,2023.1.2,None,
1850.jpg,5623.jpg,5 Points,5 Points,286 points,PS2_L5.csv,,,,,,,,,,,,,,,,,,,,,,,,,,,,,0,4,4,4,0,16,16,16,,,,,,,,,,,,,,,,,,,948.5329452499282,p,1.1191662922501564,949.7218827919569,,,,,,10,B,2024-08-01_10h01.59.407,EPIDM,2023.1.2,None,
5200.jpg,5020.jpg,0 Points,0 Points,286 points,PS2_L5.csv,,,,,,,,,,,,,,,,,,,,,,,,,,,,,0,4,4,4,0,17,17,17,,,,,,,,,,,,,,,,,,,953.9707306670025,q,0.7857142081484199,954.8285576668568,,,,,,10,B,2024-08-01_10h01.59.407,EPIDM,2023.1.2,None,
P211.jpg,9041.jpg,4 Points,4 Points,290 points,PS2_L5.csv,,,,,,,,,,,,,,,,,,,,,,,,,,,,,0,4,4,4,0,18,18,18,,,,,,,,,,,,,,,,,,,959.0627767078113,p,2.17290654219687,961.344990957994,,,,,,10,B,2024-08-01_10h01.59.407,EPIDM,2023.1.2,None,
5600.jpg,9080.jpg,5 Points,5 Points,295 points,PS2_L5.csv,,,,,,,,,,,,,,,,,,,,,,,,,,,,,0,4,4,4,0,19,19,19,,,,,,,,,,,,,,,,,,,965.5495184999891,q,0.9675383751746267,966.5995044168085,,,,,,10,B,2024-08-01_10h01.59.407,EPIDM,2023.1.2,None,
6800.jpg,9190.jpg,0 Points,0 Points,295 points,PS2_L5.csv,,,,,,,,,,,,,,,,,,,,,,,,,,,,,0,4,4,4,0,20,20,20,,,,,,,,,,,,,,,,,,,970.8454857498873,p,0.7733652500901371,971.6976296249777,,,,,,10,B,2024-08-01_10h01.59.407,EPIDM,2023.1.2,None,
3280.jpg,9270.jpg,0 Points,0 Points,295 points,PS2_L5.csv,,,,,,,,,,,,,,,,,,,,,,,,,,,,,0,4,4,4,0,21,21,21,,,,,,,,,,,,,,,,,,,975.9356909168418,q,1.1166808761190623,977.113470666809,,,,,,10,B,2024-08-01_10h01.59.407,EPIDM,2023.1.2,None,
4613.jpg,2720.jpg,4 Points,4 Points,299 points,PS2_L5.csv,,,,,,,,,,,,,,,,,,,,,,,,,,,,,0,4,4,4,0,22,22,22,,,,,,,,,,,,,,,,,,,981.383661332773,q,1.260192084359005,982.7167024998926,,,,,,10,B,2024-08-01_10h01.59.407,EPIDM,2023.1.2,None,
1930.jpg,9008.jpg,1 Point,1 Point,300 points,PS2_L5.csv,,,,,,,,,,,,,,,,,,,,,,,,,,,,,0,4,4,4,0,23,23,23,,,,,,,,,,,,,,,,,,,986.9787133329082,q,1.1120802923105657,988.167388916947,,,998.6292962499429,space,19.133224375080317,10,B,2024-08-01_10h01.59.407,EPIDM,2023.1.2,None,
2190.jpg,7503.jpg,2 Points,2 Points,302 points,PS2_L6.csv,,,,,,,,,,,,,,,,,,,,,,,,,,,,,0,5,5,5,0,0,0,0,,,,,,,,,,,,,,,,,,,1021.0776161667891,p,0.8935384589713067,1022.0382675419096,,,,,,10,B,2024-08-01_10h01.59.407,EPIDM,2023.1.2,None,
2490.jpg,2590.jpg,4 Points,4 Points,306 points,PS2_L6.csv,,,,,,,,,,,,,,,,,,,,,,,,,,,,,0,5,5,5,0,1,1,1,,,,,,,,,,,,,,,,,,,1026.2843427918851,p,3.0321544173639268,1029.3967753748875,4,1.367390459170565,,,,10,B,2024-08-01_10h01.59.407,EPIDM,2023.1.2,None,
9592.jpg,1300.jpg,2 Points,2 Points,308 points,PS2_L6.csv,,,,,,,,,,,,,,,,,,,,,,,,,,,,,0,5,5,5,0,2,2,2,,,,,,,,,,,,,,,,,,,1035.0806088328827,q,1.808526333188638,1036.9608344999142,,,,,,10,B,2024-08-01_10h01.59.407,EPIDM,2023.1.2,None,
8230.jpg,2682.jpg,5 Points,5 Points,313 points,PS2_L6.csv,,,,,,,,,,,,,,,,,,,,,,,,,,,,,0,5,5,5,0,3,3,3,,,,,,,,,,,,,,,,,,,1041.2045793328434,p,1.3489511671941727,1042.627371791983,,,,,,10,B,2024-08-01_10h01.59.407,EPIDM,2023.1.2,None,
9090.jpg,7580.jpg,3 Points,3 Points,316 points,PS2_L6.csv,,,,,,,,,,,,,,,,,,,,,,,,,,,,,0,5,5,5,0,4,4,4,,,,,,,,,,,,,,,,,,,1046.8750702498946,p,1.441004376159981,1048.3843613748904,,,,,,10,B,2024-08-01_10h01.59.407,EPIDM,2023.1.2,None,
3530.jpg,6213.jpg,1 Point,1 Point,317 points,PS2_L6.csv,,,,,,,,,,,,,,,,,,,,,,,,,,,,,0,5,5,5,0,5,5,5,,,,,,,,,,,,,,,,,,,1052.6264115418307,q,2.440087875118479,1055.1420777079184,,,,,,10,B,2024-08-01_10h01.59.407,EPIDM,2023.1.2,None,
1640.jpg,5531.jpg,3 Points,3 Points,320 points,PS2_L6.csv,,,,,,,,,,,,,,,,,,,,,,,,,,,,,0,5,5,5,0,6,6,6,,,,,,,,,,,,,,,,,,,1059.3909308749717,p,2.658863084157929,1062.1288451249711,,,,,,10,B,2024-08-01_10h01.59.407,EPIDM,2023.1.2,None,
3064.jpg,3168.jpg,4 Points,4 Points,324 points,PS2_L6.csv,,,,,,,,,,,,,,,,,,,,,,,,,,,,,0,5,5,5,0,7,7,7,,,,,,,,,,,,,,,,,,,1066.3739367919043,q,3.0433622093405575,1069.4827517499216,,,,,,10,B,2024-08-01_10h01.59.407,EPIDM,2023.1.2,None,
2710.jpg,9252.jpg,1 Point,1 Point,325 points,PS2_L6.csv,,,,,,,,,,,,,,,,,,,,,,,,,,,,,0,5,5,5,0,8,8,8,,,,,,,,,,,,,,,,,,,1073.7377099168953,q,1.3607572501059622,1075.1655003749765,,,,,,10,B,2024-08-01_10h01.59.407,EPIDM,2023.1.2,None,
2260.jpg,2830.jpg,5 Points,5 Points,330 points,PS2_L6.csv,,,,,,,,,,,,,,,,,,,,,,,,,,,,,0,5,5,5,0,9,9,9,,,,,,,,,,,,,,,,,,,1079.4101465418935,p,1.662868875078857,1081.1448752498254,,,,,,10,B,2024-08-01_10h01.59.407,EPIDM,2023.1.2,None,
6510.jpg,A074.jpg,2 Points,2 Points,332 points,PS2_L6.csv,,,,,,,,,,,,,,,,,,,,,,,,,,,,,0,5,5,5,0,10,10,10,,,,,,,,,,,,,,,,,,,1085.4005297918338,q,2.2561002923175693,1087.7744947499596,,,,,,10,B,2024-08-01_10h01.59.407,EPIDM,2023.1.2,None,
5300.jpg,2372.jpg,1 Point,1 Point,333 points,PS2_L6.csv,,,,,,,,,,,,,,,,,,,,,,,,,,,,,0,5,5,5,0,11,11,11,,,,,,,,,,,,,,,,,,,1091.9792883328628,q,1.7187575842253864,1093.8069077499676,,,,,,10,B,2024-08-01_10h01.59.407,EPIDM,2023.1.2,None,
2749.jpg,7282.jpg,3 Points,3 Points,336 points,PS2_L6.csv,,,,,,,,,,,,,,,,,,,,,,,,,,,,,0,5,5,5,0,12,12,12,,,,,,,,,,,,,,,,,,,1098.033365166979,p,2.5116296673659235,1100.6260306669865,,,,,,10,B,2024-08-01_10h01.59.407,EPIDM,2023.1.2,None,
3130.jpg,3500.jpg,4 Points,4 Points,340 points,PS2_L6.csv,,,,,,,,,,,,,,,,,,,,,,,,,,,,,0,5,5,5,0,13,13,13,,,,,,,,,,,,,,,,,,,1104.879047291819,p,1.0572680842597038,1106.0096189167816,4,1.7847889172844589,,,,10,B,2024-08-01_10h01.59.407,EPIDM,2023.1.2,None,
6312.jpg,3230.jpg,2 Points,2 Points,342 points,PS2_L6.csv,,,,,,,,,,,,,,,,,,,,,,,,,,,,,0,5,5,5,0,14,14,14,,,,,,,,,,,,,,,,,,,1112.1089808328543,q,3.379554209066555,1115.5508847078308,,,,,,10,B,2024-08-01_10h01.59.407,EPIDM,2023.1.2,None,
2597.jpg,5870.jpg,5 Points,5 Points,347 points,PS2_L6.csv,,,,,,,,,,,,,,,,,,,,,,,,,,,,,0,5,5,5,0,15,15,15,,,,,,,,,,,,,,,,,,,1119.7988279578276,q,1.384788083145395,1121.263846916845,,,,,,10,B,2024-08-01_10h01.59.407,EPIDM,2023.1.2,None,
8033.jpg,7270.jpg,3 Points,3 Points,350 points,PS2_L6.csv,,,,,,,,,,,,,,,,,,,,,,,,,,,,,0,5,5,5,0,16,16,16,,,,,,,,,,,,,,,,,,,1125.510577332927,q,0.04107025102712214,1125.6181212079246,,,,,,10,B,2024-08-01_10h01.59.407,EPIDM,2023.1.2,None,
3170.jpg,6560.jpg,2 Points,2 Points,352 points,PS2_L6.csv,,,,,,,,,,,,,,,,,,,,,,,,,,,,,0,5,5,5,0,17,17,17,,,,,,,,,,,,,,,,,,,1129.861915832851,q,0.3380572081077844,1130.2676352499984,,,,,,10,B,2024-08-01_10h01.59.407,EPIDM,2023.1.2,None,
6242.jpg,F034.jpg,4 Points,4 Points,356 points,PS2_L6.csv,,,,,,,,,,,,,,,,,,,,,,,,,,,,,0,5,5,5,0,18,18,18,,,,,,,,,,,,,,,,,,,1134.5289207499009,q,0.6860192923340946,1135.3198987077922,,,,,,10,B,2024-08-01_10h01.59.407,EPIDM,2023.1.2,None,
2485.jpg,7350.jpg,0 Points,0 Points,356 points,PS2_L6.csv,,,,,,,,,,,,,,,,,,,,,,,,,,,,,0,5,5,5,0,19,19,19,,,,,,,,,,,,,,,,,,,1139.5280773330014,q,0.39198820921592414,1140.027626791969,,,,,,10,B,2024-08-01_10h01.59.407,EPIDM,2023.1.2,None,
2900.jpg,1101.jpg,3 Points,3 Points,359 points,PS2_L6.csv,,,,,,,,,,,,,,,,,,,,,,,,,,,,,0,5,5,5,0,20,20,20,,,,,,,,,,,,,,,,,,,1144.2405795417726,q,0.22335679223760962,1144.5386022918392,,,,,,10,B,2024-08-01_10h01.59.407,EPIDM,2023.1.2,None,
7002.jpg,4660.jpg,4 Points,4 Points,363 points,PS2_L6.csv,,,,,,,,,,,,,,,,,,,,,,,,,,,,,0,5,5,5,0,21,21,21,,,,,,,,,,,,,,,,,,,1148.7804541247897,q,0.6431800003629178,1149.4996567498893,,,,,,10,B,2024-08-01_10h01.59.407,EPIDM,2023.1.2,None,
A025.jpg,1051.jpg,0 Points,0 Points,363 points,PS2_L6.csv,,,,,,,,,,,,,,,,,,,,,,,,,,,,,0,5,5,5,0,22,22,22,,,,,,,,,,,,,,,,,,,1153.7479157079943,q,0.5317512513138354,1154.3918804998975,,,,,,10,B,2024-08-01_10h01.59.407,EPIDM,2023.1.2,None,
4510.jpg,2230.jpg,5 Points,5 Points,368 points,PS2_L6.csv,,,,,,,,,,,,,,,,,,,,,,,,,,,,,0,5,5,5,0,23,23,23,,,,,,,,,,,,,,,,,,,1158.5977947078645,q,0.28097966709174216,1158.9560122918338,,,1169.4407700828742,space,13.565906667150557,10,B,2024-08-01_10h01.59.407,EPIDM,2023.1.2,None,
2383.jpg,1616.jpg,2 Points,2 Points,370 points,PS2_L7.csv,,,,,,,,,,,,,,,,,,,,,,,,,,,,,0,6,6,6,0,0,0,0,,,,,,,,,,,,,,,,,,,1186.3146789579187,q,0.22804450010880828,1186.6183572500013,,,,,,10,B,2024-08-01_10h01.59.407,EPIDM,2023.1.2,None,
1310.jpg,3181.jpg,4 Points,4 Points,374 points,PS2_L7.csv,,,,,,,,,,,,,,,,,,,,,,,,,,,,,0,6,6,6,0,1,1,1,,,,,,,,,,,,,,,,,,,1190.868422874948,q,0.2494965421501547,1191.1960469170008,4,1.4195214172359556,,,,10,B,2024-08-01_10h01.59.407,EPIDM,2023.1.2,None,
7289.jpg,4534.jpg,0 Points,0 Points,374 points,PS2_L7.csv,,,,,,,,,,,,,,,,,,,,,,,,,,,,,0,6,6,6,0,2,2,2,,,,,,,,,,,,,,,,,,,1196.9176471668761,q,0.5277140832040459,1197.5213631249499,,,,,,10,B,2024-08-01_10h01.59.407,EPIDM,2023.1.2,None,
6010.jpg,7361.jpg,2 Points,2 Points,376 points,PS2_L7.csv,,,,,,,,,,,,,,,,,,,,,,,,,,,,,0,6,6,6,0,3,3,3,,,,,,,,,,,,,,,,,,,1201.7709966248367,q,0.21876279218122363,1202.0608247919008,,,,,,10,B,2024-08-01_10h01.59.407,EPIDM,2023.1.2,None,
2661.jpg,2870.jpg,5 Points,5 Points,381 points,PS2_L7.csv,,,,,,,,,,,,,,,,,,,,,,,,,,,,,0,6,6,6,0,4,4,4,,,,,,,,,,,,,,,,,,,1206.3150519998744,q,0.5458822923246771,1206.922455957858,,,,,,10,B,2024-08-01_10h01.59.407,EPIDM,2023.1.2,None,
7220.jpg,8090.jpg,2 Points,2 Points,383 points,PS2_L7.csv,,,,,,,,,,,,,,,,,,,,,,,,,,,,,0,6,6,6,0,5,5,5,,,,,,,,,,,,,,,,,,,1211.174195499858,q,0.32691679219715297,1211.568233374972,,,,,,10,B,2024-08-01_10h01.59.407,EPIDM,2023.1.2,None,
9140.jpg,2810.jpg,3 Points,3 Points,386 points,PS2_L7.csv,,,,,,,,,,,,,,,,,,,,,,,,,,,,,0,6,6,6,0,6,6,6,,,,,,,,,,,,,,,,,,,1215.8171620417852,q,0.2610705422703177,1216.1411633328535,,,,,,10,B,2024-08-01_10h01.59.407,EPIDM,2023.1.2,None,
2516.jpg,8500.jpg,4 Points,4 Points,390 points,PS2_L7.csv,,,,,,,,,,,,,,,,,,,,,,,,,,,,,0,6,6,6,0,7,7,7,,,,,,,,,,,,,,,,,,,1220.3867869998794,q,0.2580467080697417,1220.712789541809,,,,,,10,B,2024-08-01_10h01.59.407,EPIDM,2023.1.2,None,
9070.jpg,9420.jpg,2 Points,2 Points,392 points,PS2_L7.csv,,,,,,,,,,,,,,,,,,,,,,,,,,,,,0,6,6,6,0,8,8,8,,,,,,,,,,,,,,,,,,,1224.9632509169169,q,0.2583883332554251,1225.2946408749558,,,,,,10,B,2024-08-01_10h01.59.407,EPIDM,2023.1.2,None,
6561.jpg,1525.jpg,2 Points,2 Points,394 points,PS2_L7.csv,,,,,,,,,,,,,,,,,,,,,,,,,,,,,0,6,6,6,0,9,9,9,,,,,,,,,,,,,,,,,,,1229.5371024168562,q,0.39070291724056005,1229.9889346668497,,,,,,10,B,2024-08-01_10h01.59.407,EPIDM,2023.1.2,None,
7175.jpg,7490.jpg,2 Points,2 Points,396 points,PS2_L7.csv,,,,,,,,,,,,,,,,,,,,,,,,,,,,,0,6,6,6,0,10,10,10,,,,,,,,,,,,,,,,,,,1234.2430106247775,q,0.34613379230722785,1234.6627787079196,,,,,,10,B,2024-08-01_10h01.59.407,EPIDM,2023.1.2,None,
8010.jpg,2630.jpg,0 Points,0 Points,396 points,PS2_L7.csv,,,,,,,,,,,,,,,,,,,,,,,,,,,,,0,6,6,6,0,11,11,11,,,,,,,,,,,,,,,,,,,1238.9214334997814,p,0.27587629202753305,1239.2762672498357,,,,,,10,B,2024-08-01_10h01.59.407,EPIDM,2023.1.2,None,
F174.jpg,9404.jpg,5 Points,5 Points,401 points,PS2_L7.csv,,,,,,,,,,,,,,,,,,,,,,,,,,,,,0,6,6,6,0,12,12,12,,,,,,,,,,,,,,,,,,,1243.5250009999145,p,0.3923867081757635,1244.0203905829694,,,,,,10,B,2024-08-01_10h01.59.407,EPIDM,2023.1.2,None,
2692.jpg,8231.jpg,4 Points,4 Points,405 points,PS2_L7.csv,,,,,,,,,,,,,,,,,,,,,,,,,,,,,0,6,6,6,0,13,13,13,,,,,,,,,,,,,,,,,,,1248.2330593329389,q,0.5084907920099795,1248.7933097498026,4,1.4198967511765659,,,,10,B,2024-08-01_10h01.59.407,EPIDM,2023.1.2,None,
5994.jpg,5390.jpg,0 Points,0 Points,405 points,PS2_L7.csv,,,,,,,,,,,,,,,,,,,,,,,,,,,,,0,6,6,6,0,14,14,14,,,,,,,,,,,,,,,,,,,1254.5396813747939,q,0.5935225421562791,1255.199159707874,,,,,,10,B,2024-08-01_10h01.59.407,EPIDM,2023.1.2,None,
9560.jpg,3071.jpg,1 Point,1 Point,406 points,PS2_L7.csv,,,,,,,,,,,,,,,,,,,,,,,,,,,,,0,6,6,6,0,15,15,15,,,,,,,,,,,,,,,,,,,1259.4585765418597,q,0.04250729223713279,1259.5762869999744,,,,,,10,B,2024-08-01_10h01.59.407,EPIDM,2023.1.2,None,
9330.jpg,3015.jpg,5 Points,5 Points,411 points,PS2_L7.csv,,,,,,,,,,,,,,,,,,,,,,,,,,,,,0,6,6,6,0,16,16,16,,,,,,,,,,,,,,,,,,,1263.8334891668055,p,0.03482008306309581,1263.9291687498335,,,,,,10,B,2024-08-01_10h01.59.407,EPIDM,2023.1.2,None,
2389.jpg,7320.jpg,0 Points,0 Points,411 points,PS2_L7.csv,,,,,,,,,,,,,,,,,,,,,,,,,,,,,0,6,6,6,0,17,17,17,,,,,,,,,,,,,,,,,,,1268.1935122499708,q,0.6263209590688348,1268.8956662919372,,,,,,10,B,2024-08-01_10h01.59.407,EPIDM,2023.1.2,None,
6570.1.jpg,9432.jpg,5 Points,5 Points,416 points,PS2_L7.csv,,,,,,,,,,,,,,,,,,,,,,,,,,,,,0,6,6,6,0,18,18,18,,,,,,,,,,,,,,,,,,,1273.135300874943,q,0.6291068762075156,1273.8445735829882,,,,,,10,B,2024-08-01_10h01.59.407,EPIDM,2023.1.2,None,
9452.jpg,7184.jpg,4 Points,4 Points,420 points,PS2_L7.csv,,,,,,,,,,,,,,,,,,,,,,,,,,,,,0,6,6,6,0,19,19,19,,,,,,,,,,,,,,,,,,,1278.0912544999737,q,0.32163966726511717,1278.4878292079084,,,,,,10,B,2024-08-01_10h01.59.407,EPIDM,2023.1.2,None,
5120.jpg,5520.jpg,2 Points,2 Points,422 points,PS2_L7.csv,,,,,,,,,,,,,,,,,,,,,,,,,,,,,0,6,6,6,0,20,20,20,,,,,,,,,,,,,,,,,,,1282.7459300828632,q,0.3767299170140177,1283.2157002917957,,,,,,10,B,2024-08-01_10h01.59.407,EPIDM,2023.1.2,None,
5970.jpg,3300.jpg,0 Points,0 Points,422 points,PS2_L7.csv,,,,,,,,,,,,,,,,,,,,,,,,,,,,,0,6,6,6,0,21,21,21,,,,,,,,,,,,,,,,,,,1287.4577765418217,p,0.7461257092654705,1288.2756334578153,,,,,,10,B,2024-08-01_10h01.59.407,EPIDM,2023.1.2,None,
7620.jpg,5395.jpg,1 Point,1 Point,423 points,PS2_L7.csv,,,,,,,,,,,,,,,,,,,,,,,,,,,,,0,6,6,6,0,22,22,22,,,,,,,,,,,,,,,,,,,1292.518093207851,q,0.39797054207883775,1292.9705283748917,,,,,,10,B,2024-08-01_10h01.59.407,EPIDM,2023.1.2,None,
P019.jpg,F158.jpg,3 Points,3 Points,426 points,PS2_L7.csv,,,,,,,,,,,,,,,,,,,,,,,,,,,,,0,6,6,6,0,23,23,23,,,,,,,,,,,,,,,,,,,1297.222667957889,q,0.38972150115296245,1297.7411048749927,,,1308.1447012498975,space,15.369880001060665,10,B,2024-08-01_10h01.59.407,EPIDM,2023.1.2,None,
2620.jpg,2594.jpg,0 Points,0 Points,426 points,PS2_L8.csv,,,,,,,,,,,,,,,,,,,,,,,,,,,,,0,7,7,7,0,0,0,0,,,,,,,,,,,,,,,,,,,1326.8347476669587,q,0.1997703763190657,1327.1368276248686,,,,,,10,B,2024-08-01_10h01.59.407,EPIDM,2023.1.2,None,
F369.jpg,3100.jpg,2 Points,2 Points,428 points,PS2_L8.csv,,,,,,,,,,,,,,,,,,,,,,,,,,,,,0,7,7,7,0,1,1,1,,,,,,,,,,,,,,,,,,,1331.354414707981,q,0.6559249581769109,1332.1112346667796,2,1.336276875110343,,,,10,B,2024-08-01_10h01.59.407,EPIDM,2023.1.2,None,
1052.jpg,1201.jpg,3 Points,3 Points,431 points,PS2_L8.csv,,,,,,,,,,,,,,,,,,,,,,,,,,,,,0,7,7,7,0,2,2,2,,,,,,,,,,,,,,,,,,,1337.777851166902,q,0.42465620837174356,1338.2766688747797,,,,,,10,B,2024-08-01_10h01.59.407,EPIDM,2023.1.2,None,
2606.jpg,2480.jpg,1 Point,1 Point,432 points,PS2_L8.csv,,,,,,,,,,,,,,,,,,,,,,,,,,,,,0,7,7,7,0,3,3,3,,,,,,,,,,,,,,,,,,,1342.531411832897,q,0.062159250024706125,1342.659627832938,,,,,,10,B,2024-08-01_10h01.59.407,EPIDM,2023.1.2,None,
9594.jpg,1080.jpg,4 Points,4 Points,436 points,PS2_L8.csv,,,,,,,,,,,,,,,,,,,,,,,,,,,,,0,7,7,7,0,4,4,4,,,,,,,,,,,,,,,,,,,1346.9089791248553,q,0.28527054213918746,1347.2701022918336,,,,,,10,B,2024-08-01_10h01.59.407,EPIDM,2023.1.2,None,
4770.jpg,4275.jpg,3 Points,3 Points,439 points,PS2_L8.csv,,,,,,,,,,,,,,,,,,,,,,,,,,,,,0,7,7,7,0,5,5,5,,,,,,,,,,,,,,,,,,,1351.5184816247784,q,0.5164229590445757,1352.1126136668026,,,,,,10,B,2024-08-01_10h01.59.407,EPIDM,2023.1.2,None,
P077.jpg,A041.jpg,1 Point,1 Point,440 points,PS2_L8.csv,,,,,,,,,,,,,,,,,,,,,,,,,,,,,0,7,7,7,0,6,6,6,,,,,,,,,,,,,,,,,,,1356.3604279579595,q,0.4814055422320962,1356.976549624931,,,,,,10,B,2024-08-01_10h01.59.407,EPIDM,2023.1.2,None,
6550.jpg,9582.jpg,5 Points,5 Points,445 points,PS2_L8.csv,,,,,,,,,,,,,,,,,,,,,,,,,,,,,0,7,7,7,0,7,7,7,,,,,,,,,,,,,,,,,,,1361.1596947917715,q,0.44261687505058944,1361.714542957954,,,,,,10,B,2024-08-01_10h01.59.407,EPIDM,2023.1.2,None,
8040.jpg,7185.jpg,1 Point,1 Point,446 points,PS2_L8.csv,,,,,,,,,,,,,,,,,,,,,,,,,,,,,0,7,7,7,0,8,8,8,,,,,,,,,,,,,,,,,,,1365.9260615829844,q,0.1482745420653373,1366.1444814580027,,,,,,10,B,2024-08-01_10h01.59.407,EPIDM,2023.1.2,None,
P233.jpg,3060.jpg,1 Point,1 Point,447 points,PS2_L8.csv,,,,,,,,,,,,,,,,,,,,,,,,,,,,,0,7,7,7,0,9,9,9,,,,,,,,,,,,,,,,,,,1370.3926762079354,q,0.1523384170141071,1370.6530157499947,,,,,,10,B,2024-08-01_10h01.59.407,EPIDM,2023.1.2,None,
1090.jpg,P217.jpg,5 Points,5 Points,452 points,PS2_L8.csv,,,,,,,,,,,,,,,,,,,,,,,,,,,,,0,7,7,7,0,10,10,10,,,,,,,,,,,,,,,,,,,1374.8586315829307,q,0.23189583327621222,1375.2011751669925,,,,,,10,B,2024-08-01_10h01.59.407,EPIDM,2023.1.2,None,
9405.jpg,6250.2.jpg,3 Points,3 Points,455 points,PS2_L8.csv,,,,,,,,,,,,,,,,,,,,,,,,,,,,,0,7,7,7,0,11,11,11,,,,,,,,,,,,,,,,,,,1379.4059877498075,q,0.051403584191575646,1379.557811957784,,,,,,10,B,2024-08-01_10h01.59.407,EPIDM,2023.1.2,None,
1610.jpg,F203.jpg,0 Points,0 Points,455 points,PS2_L8.csv,,,,,,,,,,,,,,,,,,,,,,,,,,,,,0,7,7,7,0,12,12,12,,,,,,,,,,,,,,,,,,,1383.772753499914,q,0.21283920924179256,1384.0980829577893,,,,,,10,B,2024-08-01_10h01.59.407,EPIDM,2023.1.2,None,
P222.jpg,9401.jpg,2 Points,2 Points,457 points,PS2_L8.csv,,,,,,,,,,,,,,,,,,,,,,,,,,,,,0,7,7,7,0,13,13,13,,,,,,,,,,,,,,,,,,,1388.3009869998787,p,0.244559874990955,1388.665600082837,2,1.1671765001956373,,,,10,B,2024-08-01_10h01.59.407,EPIDM,2023.1.2,None,
5471.jpg,7352.jpg,2 Points,2 Points,459 points,PS2_L8.csv,,,,,,,,,,,,,,,,,,,,,,,,,,,,,0,7,7,7,0,14,14,14,,,,,,,,,,,,,,,,,,,1394.1463550829794,q,0.6629821262322366,1394.8854068329092,,,,,,10,B,2024-08-01_10h01.59.407,EPIDM,2023.1.2,None,
9042.jpg,2753.jpg,0 Points,0 Points,459 points,PS2_L8.csv,,,,,,,,,,,,,,,,,,,,,,,,,,,,,0,7,7,7,0,15,15,15,,,,,,,,,,,,,,,,,,,1399.1288242919836,q,0.38458358426578343,1399.5851959579159,,,,,,10,B,2024-08-01_10h01.59.407,EPIDM,2023.1.2,None,
8311.jpg,4609.jpg,2 Points,2 Points,461 points,PS2_L8.csv,,,,,,,,,,,,,,,,,,,,,,,,,,,,,0,7,7,7,0,16,16,16,,,,,,,,,,,,,,,,,,,1403.8454261249863,q,0.03494600020349026,1403.9451784580015,,,,,,10,B,2024-08-01_10h01.59.407,EPIDM,2023.1.2,None,
2320.jpg,2791.jpg,4 Points,4 Points,465 points,PS2_L8.csv,,,,,,,,,,,,,,,,,,,,,,,,,,,,,0,7,7,7,0,17,17,17,,,,,,,,,,,,,,,,,,,1408.1913647498004,q,0.05753541714511812,1408.3217726249713,,,,,,10,B,2024-08-01_10h01.59.407,EPIDM,2023.1.2,None,
F365.jpg,3180.jpg,5 Points,5 Points,470 points,PS2_L8.csv,,,,,,,,,,,,,,,,,,,,,,,,,,,,,0,7,7,7,0,18,18,18,,,,,,,,,,,,,,,,,,,1412.5824017499108,q,0.1456495001912117,1412.8340967497788,,,,,,10,B,2024-08-01_10h01.59.407,EPIDM,2023.1.2,None,
9300.jpg,1050.jpg,4 Points,4 Points,474 points,PS2_L8.csv,,,,,,,,,,,,,,,,,,,,,,,,,,,,,0,7,7,7,0,19,19,19,,,,,,,,,,,,,,,,,,,1417.0572449997999,q,0.02352050133049488,1417.1480168330017,,,,,,10,B,2024-08-01_10h01.59.407,EPIDM,2023.1.2,None,
6150.jpg,2206.jpg,0 Points,0 Points,474 points,PS2_L8.csv,,,,,,,,,,,,,,,,,,,,,,,,,,,,,0,7,7,7,0,20,20,20,,,,,,,,,,,,,,,,,,,1421.4022486668546,q,0.22991991718299687,1421.7055128749926,,,,,,10,B,2024-08-01_10h01.59.407,EPIDM,2023.1.2,None,
6260.jpg,3062.jpg,3 Points,3 Points,477 points,PS2_L8.csv,,,,,,,,,,,,,,,,,,,,,,,,,,,,,0,7,7,7,0,21,21,21,,,,,,,,,,,,,,,,,,,1425.9480772078969,q,0.0046255013439804316,1426.0258620418608,,,,,,10,B,2024-08-01_10h01.59.407,EPIDM,2023.1.2,None,
6571.jpg,P237.jpg,2 Points,2 Points,479 points,PS2_L8.csv,,,,,,,,,,,,,,,,,,,,,,,,,,,,,0,7,7,7,0,22,22,22,,,,,,,,,,,,,,,,,,,1430.2713018329814,q,0.3695004580076784,1430.7566248748917,,,,,,10,B,2024-08-01_10h01.59.407,EPIDM,2023.1.2,None,
7283.jpg,1720.jpg,4 Points,4 Points,483 points,PS2_L8.csv,,,,,,,,,,,,,,,,,,,,,,,,,,,,,0,7,7,7,0,23,23,23,,,,,,,,,,,,,,,,,,,1434.9724510419182,q,0.21993170911446214,1435.3058531668503,,,1445.7980511249043,space,12.57797612529248,10,B,2024-08-01_10h01.59.407,EPIDM,2023.1.2,None,
3160.jpg,6210.jpg,1 Point,1 Point,484 points,PS2_L9.csv,,,,,,,,,,,,,,,,,,,,,,,,,,,,,0,8,8,8,0,0,0,0,,,,,,,,,,,,,,,,,,,1461.703468374908,q,0.5506510841660202,1462.327013749862,,,,,,10,B,2024-08-01_10h01.59.407,EPIDM,2023.1.2,None,
2100.jpg,7205.jpg,5 Points,5 Points,489 points,PS2_L9.csv,,,,,,,,,,,,,,,,,,,,,,,,,,,,,0,8,8,8,0,1,1,1,,,,,,,,,,,,,,,,,,,1466.5664423748385,q,0.08836141717620194,1466.7356423328165,5,2.0221286250744015,,,,10,B,2024-08-01_10h01.59.407,EPIDM,2023.1.2,None,
9110.jpg,3051.jpg,1 Point,1 Point,490 points,PS2_L9.csv,,,,,,,,,,,,,,,,,,,,,,,,,,,,,0,8,8,8,0,2,2,2,,,,,,,,,,,,,,,,,,,1473.0735825828742,q,0.3414272500667721,1473.4932096668053,,,,,,10,B,2024-08-01_10h01.59.407,EPIDM,2023.1.2,None,
9101.jpg,9571.jpg,2 Points,2 Points,492 points,PS2_L9.csv,,,,,,,,,,,,,,,,,,,,,,,,,,,,,0,8,8,8,0,3,3,3,,,,,,,,,,,,,,,,,,,1477.726698541781,q,0.5287589582148939,1478.3242490829434,,,,,,10,B,2024-08-01_10h01.59.407,EPIDM,2023.1.2,None,
5410.jpg,1450.jpg,5 Points,5 Points,497 points,PS2_L9.csv,,,,,,,,,,,,,,,,,,,,,,,,,,,,,0,8,8,8,0,4,4,4,,,,,,,,,,,,,,,,,,,1482.5651526248548,q,0.361165126087144,1482.9917827078607,,,,,,10,B,2024-08-01_10h01.59.407,EPIDM,2023.1.2,None,
F149.jpg,3030.jpg,0 Points,0 Points,497 points,PS2_L9.csv,,,,,,,,,,,,,,,,,,,,,,,,,,,,,0,8,8,8,0,5,5,5,,,,,,,,,,,,,,,,,,,1487.2481951669324,q,0.5022693341597915,1487.8532883329317,,,,,,10,B,2024-08-01_10h01.59.407,EPIDM,2023.1.2,None,
3266.jpg,7360.jpg,1 Point,1 Point,498 points,PS2_L9.csv,,,,,,,,,,,,,,,,,,,,,,,,,,,,,0,8,8,8,0,6,6,6,,,,,,,,,,,,,,,,,,,1492.0691536248196,q,0.2738154581747949,1492.4115242918488,,,,,,10,B,2024-08-01_10h01.59.407,EPIDM,2023.1.2,None,
5660.jpg,5201.jpg,0 Points,0 Points,498 points,PS2_L9.csv,,,,,,,,,,,,,,,,,,,,,,,,,,,,,0,8,8,8,0,7,7,7,,,,,,,,,,,,,,,,,,,1496.656445916975,q,0.047922042198479176,1496.7820012918673,,,,,,10,B,2024-08-01_10h01.59.407,EPIDM,2023.1.2,None,
1945.jpg,2800.jpg,4 Points,4 Points,502 points,PS2_L9.csv,,,,,,,,,,,,,,,,,,,,,,,,,,,,,0,8,8,8,0,8,8,8,,,,,,,,,,,,,,,,,,,1501.029652666999,q,0.04882495920173824,1501.146501207957,,,,,,10,B,2024-08-01_10h01.59.407,EPIDM,2023.1.2,None,
3000.jpg,6200.jpg,5 Points,5 Points,507 points,PS2_L9.csv,,,,,,,,,,,,,,,,,,,,,,,,,,,,,0,8,8,8,0,9,9,9,,,,,,,,,,,,,,,,,,,1505.3991093328223,q,0.30460675014182925,1505.766267457977,,,,,,10,B,2024-08-01_10h01.59.407,EPIDM,2023.1.2,None,
2215.jpg,2512.jpg,1 Point,1 Point,508 points,PS2_L9.csv,,,,,,,,,,,,,,,,,,,,,,,,,,,,,0,8,8,8,0,10,10,10,,,,,,,,,,,,,,,,,,,1510.0188278330024,q,0.3861695013474673,1510.485419207951,,,,,,10,B,2024-08-01_10h01.59.407,EPIDM,2023.1.2,None,
5460.jpg,5800.jpg,0 Points,0 Points,508 points,PS2_L9.csv,,,,,,,,,,,,,,,,,,,,,,,,,,,,,0,8,8,8,0,11,11,11,,,,,,,,,,,,,,,,,,,1514.7294303749222,q,0.18915683403611183,1514.9923214998562,,,,,,10,B,2024-08-01_10h01.59.407,EPIDM,2023.1.2,None,
3061.jpg,2717.jpg,4 Points,4 Points,512 points,PS2_L9.csv,,,,,,,,,,,,,,,,,,,,,,,,,,,,,0,8,8,8,0,12,12,12,,,,,,,,,,,,,,,,,,,1519.2423245829996,q,0.25164904235862195,1519.5670639579184,,,,,,10,B,2024-08-01_10h01.59.407,EPIDM,2023.1.2,None,
7380.jpg,1220.jpg,1 Point,1 Point,513 points,PS2_L9.csv,,,,,,,,,,,,,,,,,,,,,,,,,,,,,0,8,8,8,0,13,13,13,,,,,,,,,,,,,,,,,,,1523.822499499889,q,0.5348291250411421,1524.41164883296,1,2.1733392090536654,,,,10,B,2024-08-01_10h01.59.407,EPIDM,2023.1.2,None,
1740.jpg,7480.jpg,0 Points,0 Points,513 points,PS2_L9.csv,,,,,,,,,,,,,,,,,,,,,,,,,,,,,0,8,8,8,0,14,14,14,,,,,,,,,,,,,,,,,,,1530.8997224578634,q,0.3055597092024982,1531.2678280828986,,,,,,10,B,2024-08-01_10h01.59.407,EPIDM,2023.1.2,None,
7285.jpg,4233.jpg,5 Points,5 Points,518 points,PS2_L9.csv,,,,,,,,,,,,,,,,,,,,,,,,,,,,,0,8,8,8,0,15,15,15,,,,,,,,,,,,,,,,,,,1535.5136801667977,q,0.02729145926423371,1535.615660916781,,,,,,10,B,2024-08-01_10h01.59.407,EPIDM,2023.1.2,None,
6830.jpg,6212.jpg,4 Points,4 Points,522 points,PS2_L9.csv,,,,,,,,,,,,,,,,,,,,,,,,,,,,,0,8,8,8,0,16,16,16,,,,,,,,,,,,,,,,,,,1539.8508802917786,q,0.026330667082220316,1539.9407452919986,,,,,,10,B,2024-08-01_10h01.59.407,EPIDM,2023.1.2,None,
7830.jpg,2499.jpg,3 Points,3 Points,525 points,PS2_L9.csv,,,,,,,,,,,,,,,,,,,,,,,,,,,,,0,8,8,8,0,17,17,17,,,,,,,,,,,,,,,,,,,1544.188436749857,q,0.15358420927077532,1544.4152859998867,,,,,,10,B,2024-08-01_10h01.59.407,EPIDM,2023.1.2,None,
9520.jpg,1931.jpg,3 Points,3 Points,528 points,PS2_L9.csv,,,,,,,,,,,,,,,,,,,,,,,,,,,,,0,8,8,8,0,18,18,18,,,,,,,,,,,,,,,,,,,1548.6616798329633,q,0.04128791717812419,1548.7481799579691,,,,,,10,B,2024-08-01_10h01.59.407,EPIDM,2023.1.2,None,
9160.jpg,1200.jpg,4 Points,4 Points,532 points,PS2_L9.csv,,,,,,,,,,,,,,,,,,,,,,,,,,,,,0,8,8,8,0,19,19,19,,,,,,,,,,,,,,,,,,,1553.0114468748216,p,0.21811095904558897,1553.3029099169653,,,,,,10,B,2024-08-01_10h01.59.407,EPIDM,2023.1.2,None,
2020.jpg,1947.jpg,5 Points,5 Points,537 points,PS2_L9.csv,,,,,,,,,,,,,,,,,,,,,,,,,,,,,0,8,8,8,0,20,20,20,,,,,,,,,,,,,,,,,,,1557.5417099578772,p,0.07961375010199845,1557.690205207793,,,,,,10,B,2024-08-01_10h01.59.407,EPIDM,2023.1.2,None,
4535.jpg,1811.jpg,1 Point,1 Point,538 points,PS2_L9.csv,,,,,,,,,,,,,,,,,,,,,,,,,,,,,0,8,8,8,0,21,21,21,,,,,,,,,,,,,,,,,,,1561.9345826248173,p,0.5846723332069814,1562.6025778329931,,,,,,10,B,2024-08-01_10h01.59.407,EPIDM,2023.1.2,None,
9910.jpg,6940.jpg,2 Points,2 Points,540 points,PS2_L9.csv,,,,,,,,,,,,,,,,,,,,,,,,,,,,,0,8,8,8,0,22,22,22,,,,,,,,,,,,,,,,,,,1566.8480958750006,p,0.22898512613028288,1567.1419225828722,,,,,,10,B,2024-08-01_10h01.59.407,EPIDM,2023.1.2,None,
9480.jpg,9250.jpg,0 Points,0 Points,540 points,PS2_L9.csv,,,,,,,,,,,,,,,,,,,,,,,,,,,,,0,8,8,8,0,23,23,23,,,,,,,,,,,,,,,,,,,1571.3941180419642,p,0.09037750028073788,1571.5423268328886,,,1582.0406777078751,space,22.763390375301242,10,B,2024-08-01_10h01.59.407,EPIDM,2023.1.2,None,
1660.jpg,2840.jpg,2 Points,2 Points,542 points,PS2_L10.csv,,,,,,,,,,,,,,,,,,,,,,,,,,,,,0,9,9,9,0,0,0,0,,,,,,,,,,,,,,,,,,,1608.123874249868,q,0.46355033316649497,1608.6537657079753,,,,,,10,B,2024-08-01_10h01.59.407,EPIDM,2023.1.2,None,
2691.jpg,7640.jpg,0 Points,0 Points,542 points,PS2_L10.csv,,,,,,,,,,,,,,,,,,,,,,,,,,,,,0,9,9,9,0,1,1,1,,,,,,,,,,,,,,,,,,,1612.9036371668335,q,0.08417108422145247,1613.043726166943,0,1.2907384170684963,,,,10,B,2024-08-01_10h01.59.407,EPIDM,2023.1.2,None,
9180.jpg,9046.jpg,3 Points,3 Points,545 points,PS2_L10.csv,,,,,,,,,,,,,,,,,,,,,,,,,,,,,0,9,9,9,0,2,2,2,,,,,,,,,,,,,,,,,,,1618.6491529999766,q,0.3611722090281546,1619.0819980828092,,,,,,10,B,2024-08-01_10h01.59.407,EPIDM,2023.1.2,None,
8041.jpg,2271.jpg,2 Points,2 Points,547 points,PS2_L10.csv,,,,,,,,,,,,,,,,,,,,,,,,,,,,,0,9,9,9,0,3,3,3,,,,,,,,,,,,,,,,,,,1623.3400519168936,q,0.19117337535135448,1623.5987924998626,,,,,,10,B,2024-08-01_10h01.59.407,EPIDM,2023.1.2,None,
1661.jpg,1321.jpg,3 Points,3 Points,550 points,PS2_L10.csv,,,,,,,,,,,,,,,,,,,,,,,,,,,,,0,9,9,9,0,4,4,4,,,,,,,,,,,,,,,,,,,1627.8409949578345,q,1.321929001249373,1629.2267873748206,,,,,,10,B,2024-08-01_10h01.59.407,EPIDM,2023.1.2,None,
9430.jpg,3010.jpg,5 Points,5 Points,555 points,PS2_L10.csv,,,,,,,,,,,,,,,,,,,,,,,,,,,,,0,9,9,9,0,5,5,5,,,,,,,,,,,,,,,,,,,1633.4840570418164,q,0.6477240831591189,1634.1893428328913,,,,,,10,B,2024-08-01_10h01.59.407,EPIDM,2023.1.2,None,
2616.jpg,7238.jpg,4 Points,4 Points,559 points,PS2_L10.csv,,,,,,,,,,,,,,,,,,,,,,,,,,,,,0,9,9,9,0,6,6,6,,,,,,,,,,,,,,,,,,,1638.4530382498633,q,0.8150619170628488,1639.3359399999026,,,,,,10,B,2024-08-01_10h01.59.407,EPIDM,2023.1.2,None,
9470.jpg,9400.jpg,3 Points,3 Points,562 points,PS2_L10.csv,,,,,,,,,,,,,,,,,,,,,,,,,,,,,0,9,9,9,0,7,7,7,,,,,,,,,,,,,,,,,,,1643.5857800419908,p,0.7776047920342535,1644.4198873329442,,,,,,10,B,2024-08-01_10h01.59.407,EPIDM,2023.1.2,None,
8260.jpg,8280.jpg,3 Points,3 Points,565 points,PS2_L10.csv,,,,,,,,,,,,,,,,,,,,,,,,,,,,,0,9,9,9,0,8,8,8,,,,,,,,,,,,,,,,,,,1648.6854343749583,q,0.8122910000383854,1649.5765325829852,,,,,,10,B,2024-08-01_10h01.59.407,EPIDM,2023.1.2,None,
9230.jpg,9181.jpg,0 Points,0 Points,565 points,PS2_L10.csv,,,,,,,,,,,,,,,,,,,,,,,,,,,,,0,9,9,9,0,9,9,9,,,,,,,,,,,,,,,,,,,1653.8314601669554,q,1.0982167921029031,1654.9887171247974,,,,,,10,B,2024-08-01_10h01.59.407,EPIDM,2023.1.2,None,
6834.jpg,9120.jpg,5 Points,5 Points,570 points,PS2_L10.csv,,,,,,,,,,,,,,,,,,,,,,,,,,,,,0,9,9,9,0,10,10,10,,,,,,,,,,,,,,,,,,,1659.2496028328314,q,0.7612130423076451,1660.0739248748869,,,,,,10,B,2024-08-01_10h01.59.407,EPIDM,2023.1.2,None,
2440.jpg,7351.jpg,4 Points,4 Points,574 points,PS2_L10.csv,,,,,,,,,,,,,,,,,,,,,,,,,,,,,0,9,9,9,0,11,11,11,,,,,,,,,,,,,,,,,,,1664.3422110828105,p,1.140129917068407,1665.5574799999595,,,,,,10,B,2024-08-01_10h01.59.407,EPIDM,2023.1.2,None,
9280.jpg,9390.jpg,1 Point,1 Point,575 points,PS2_L10.csv,,,,,,,,,,,,,,,,,,,,,,,,,,,,,0,9,9,9,0,12,12,12,,,,,,,,,,,,,,,,,,,1669.798543541925,p,0.691163542214781,1670.5614132499322,,,,,,10,B,2024-08-01_10h01.59.407,EPIDM,2023.1.2,None,
7186.jpg,9182.jpg,2 Points,2 Points,577 points,PS2_L10.csv,,,,,,,,,,,,,,,,,,,,,,,,,,,,,0,9,9,9,0,13,13,13,,,,,,,,,,,,,,,,,,,1674.80521545792,q,0.900451583089307,1675.7877181249205,2,1.1642180001363158,,,,10,B,2024-08-01_10h01.59.407,EPIDM,2023.1.2,None,
7820.jpg,1121.jpg,0 Points,0 Points,577 points,PS2_L10.csv,,,,,,,,,,,,,,,,,,,,,,,,,,,,,0,9,9,9,0,14,14,14,,,,,,,,,,,,,,,,,,,1681.285344291944,p,0.8767292082775384,1682.231403207872,,,,,,10,B,2024-08-01_10h01.59.407,EPIDM,2023.1.2,None,
1110.jpg,9331.jpg,2 Points,2 Points,579 points,PS2_L10.csv,,,,,,,,,,,,,,,,,,,,,,,,,,,,,0,9,9,9,0,15,15,15,,,,,,,,,,,,,,,,,,,1686.4851689999923,p,0.6281875011045486,1687.1890456669498,,,,,,10,B,2024-08-01_10h01.59.407,EPIDM,2023.1.2,None,
9001.jpg,9620.jpg,1 Point,1 Point,580 points,PS2_L10.csv,,,,,,,,,,,,,,,,,,,,,,,,,,,,,0,9,9,9,0,16,16,16,,,,,,,,,,,,,,,,,,,1691.434771791799,p,1.0314279170706868,1692.5542162919883,,,,,,10,B,2024-08-01_10h01.59.407,EPIDM,2023.1.2,None,
5535.jpg,8210.jpg,3 Points,3 Points,583 points,PS2_L10.csv,,,,,,,,,,,,,,,,,,,,,,,,,,,,,0,9,9,9,0,17,17,17,,,,,,,,,,,,,,,,,,,1696.794148207875,p,1.3100167091470212,1698.1843521248084,,,,,,10,B,2024-08-01_10h01.59.407,EPIDM,2023.1.2,None,
7950.jpg,7187.jpg,1 Point,1 Point,584 points,PS2_L10.csv,,,,,,,,,,,,,,,,,,,,,,,,,,,,,0,9,9,9,0,18,18,18,,,,,,,,,,,,,,,,,,,1702.4306456667837,p,1.2110262922942638,1703.7053749999031,,,,,,10,B,2024-08-01_10h01.59.407,EPIDM,2023.1.2,None,
3250.jpg,A053.jpg,3 Points,3 Points,587 points,PS2_L10.csv,,,,,,,,,,,,,,,,,,,,,,,,,,,,,0,9,9,9,0,19,19,19,,,,,,,,,,,,,,,,,,,1707.9682172078174,q,0.4730360843241215,1708.5402984169777,,,,,,10,B,2024-08-01_10h01.59.407,EPIDM,2023.1.2,None,
2205.jpg,3053.jpg,4 Points,4 Points,591 points,PS2_L10.csv,,,,,,,,,,,,,,,,,,,,,,,,,,,,,0,9,9,9,0,20,20,20,,,,,,,,,,,,,,,,,,,1712.7513090418652,q,0.43417650018818676,1713.2869979168754,,,,,,10,B,2024-08-01_10h01.59.407,EPIDM,2023.1.2,None,
5594.jpg,5750.jpg,5 Points,5 Points,596 points,PS2_L10.csv,,,,,,,,,,,,,,,,,,,,,,,,,,,,,0,9,9,9,0,21,21,21,,,,,,,,,,,,,,,,,,,1717.5040316248778,q,0.5374050000682473,1718.1117514998186,,,,,,10,B,2024-08-01_10h01.59.407,EPIDM,2023.1.2,None,
6900.jpg,8531.jpg,4 Points,4 Points,600 points,PS2_L10.csv,,,,,,,,,,,,,,,,,,,,,,,,,,,,,0,9,9,9,0,22,22,22,,,,,,,,,,,,,,,,,,,1722.361312666908,p,0.30396704212762415,1722.7309365828987,,,,,,10,B,2024-08-01_10h01.59.407,EPIDM,2023.1.2,None,
1019.jpg,2120.jpg,0 Points,0 Points,600 points,PS2_L10.csv,,,,,,,,,,,,,,,,,,,,,,,,,,,,,0,9,9,9,0,23,23,23,,,,,,,,,,,,,,,,,,,1726.9786609169096,q,0.1100051673129201,1727.158356957836,,,1737.6436775829643,space,1.8369933331850916,10,B,2024-08-01_10h01.59.407,EPIDM,2023.1.2,None,
