L_Scene,R_Scene,Points_L,Points_R,PtTotal,blockFile,Instructions_Loop.thisRepN,Instructions_Loop.thisTrialN,Instructions_Loop.thisN,Instructions_Loop.thisIndex,Redo_Instructions_Loop.thisRepN,Redo_Instructions_Loop.thisTrialN,Redo_Instructions_Loop.thisN,Redo_Instructions_Loop.thisIndex,Practice_Encoding_Loop.thisRepN,Practice_Encoding_Loop.thisTrialN,Practice_Encoding_Loop.thisN,Practice_Encoding_Loop.thisIndex,Practice_Response_Fail_Loop.thisRepN,Practice_Response_Fail_Loop.thisTrialN,Practice_Response_Fail_Loop.thisN,Practice_Response_Fail_Loop.thisIndex,Practice_FB_Loop.thisRepN,Practice_FB_Loop.thisTrialN,Practice_FB_Loop.thisN,Practice_FB_Loop.thisIndex,Practice_Attention_Loop.thisRepN,Practice_Attention_Loop.thisTrialN,Practice_Attention_Loop.thisN,Practice_Attention_Loop.thisIndex,Practice_EncBrk_Loop.thisRepN,Practice_EncBrk_Loop.thisTrialN,Practice_EncBrk_Loop.thisN,Practice_EncBrk_Loop.thisIndex,Encoding_Loop.thisRepN,Encoding_Loop.thisTrialN,Encoding_Loop.thisN,Encoding_Loop.thisIndex,EncStim_Loop.thisRepN,EncStim_Loop.thisTrialN,EncStim_Loop.thisN,EncStim_Loop.thisIndex,Response_Fail_Loop.thisRepN,Response_Fail_Loop.thisTrialN,Response_Fail_Loop.thisN,Response_Fail_Loop.thisIndex,FB_Loop.thisRepN,FB_Loop.thisTrialN,FB_Loop.thisN,FB_Loop.thisIndex,Attention_Loop.thisRepN,Attention_Loop.thisTrialN,Attention_Loop.thisN,Attention_Loop.thisIndex,EncBrk_Loop.thisRepN,EncBrk_Loop.thisTrialN,EncBrk_Loop.thisN,EncBrk_Loop.thisIndex,Transition_Enc.keys,Transition_Enc.rt,Encoding_Resp.started,Encoding_Resp.keys,Encoding_Resp.rt,R_Point_FB_Stim.started,Attn_resp.keys,Attn_resp.rt,Progress_Tracker.started,EncBrk_Resp.keys,EncBrk_Resp.rt,participant,Group,date,expName,psychopyVersion,frameRate,
,,,,,,,,,,,,,,,,,,,,,,,,,,,,,,,,,,,,,,,,,,,,,,,,,,,,,,,,,,space,6.252871751086786,,,,,,,,,,271585,B,2024-08-01_11h43.09.351,EPIDM,2023.1.2,None,
A060.jpg,F041.jpg,5 Points,5 Points,5 Points,,,,,,,,,,0,0,0,0,,,,,,,,,,,,,,,,,,,,,,,,,,,,,,,,,,,,,,,,,,,167.8449884580914,None,,,,,,,,271585,B,2024-08-01_11h43.09.351,EPIDM,2023.1.2,None,
O161.jpg,1812.jpg,2 Points,2 Points,7 Points,,,,,,,,,,0,1,1,1,,,,,,,,,,,,,,,,,,,,,,,,,,,,,,,,,,,,,,,,,,,175.3391152920667,p,1.524781501153484,176.9795966669917,,,,,,271585,B,2024-08-01_11h43.09.351,EPIDM,2023.1.2,None,
O013.jpg,A001.jpg,3 Points,3 Points,10 Points,,,,,,,,,,0,2,2,2,,,,,,,,,,,,,,,,,,,,,,,,,,,,,,,,,,,,,,,,,,,181.18635733309202,p,2.468095292104408,183.83103374997154,,,,,,271585,B,2024-08-01_11h43.09.351,EPIDM,2023.1.2,None,
P036.jpg,F273.jpg,5 Points,5 Points,15 Points,,,,,,,,,,0,3,3,3,,,,,,,,,,,,,,,,,,,,,,,,,,,,,,,,,,,,,,,,,,,187.9947950830683,q,1.9070167921017855,190.07154608308338,,,,,,271585,B,2024-08-01_11h43.09.351,EPIDM,2023.1.2,None,
L130.jpg,2393.jpg,0 Points,0 Points,15 Points,,,,,,,,,,0,4,4,4,,,,,,,,,,,,,,,,,,,,,,,,,,,,,,,,,,,,,,,,,,,194.2277887079399,p,2.0738985009957105,196.449130916968,0,4.672730959020555,,,,271585,B,2024-08-01_11h43.09.351,EPIDM,2023.1.2,None,
F279.jpg,P033.jpg,3 Points,3 Points,18 Points,,,,,,,,,,0,5,5,5,,,,,,,,,,,,,,,,,,,,,,,,,,,,,,,,,,,,,,,,,,,205.40712991706096,p,1.8956589170265943,207.47498137503862,,,,,,271585,B,2024-08-01_11h43.09.351,EPIDM,2023.1.2,None,
A104.jpg,2593.jpg,2 Points,2 Points,20 Points,,,,,,,,,,0,6,6,6,,,,,,,,,,,,,,,,,,,,,,,,,,,,,,,,,,,,,,,,,,,211.62758958293125,q,1.7811035420745611,213.54131341702305,,,,,,271585,B,2024-08-01_11h43.09.351,EPIDM,2023.1.2,None,
2598.jpg,2605.jpg,0 Points,0 Points,20 Points,,,,,,,,,,0,7,7,7,,,,,,,,,,,,,,,,,,,,,,,,,,,,,,,,,,,,,,,,,,,217.7280249579344,p,2.4784150421619415,220.31040137493983,,,,,,271585,B,2024-08-01_11h43.09.351,EPIDM,2023.1.2,None,
L005.jpg,O011.jpg,1 Points,1 Points,21 Points,,,,,,,,,,0,8,8,8,,,,,,,,,,,,,,,,,,,,,,,,,,,,,,,,,,,,,,,,,,,224.5238585830666,q,1.8189155419822782,226.49562537507154,,,,,,271585,B,2024-08-01_11h43.09.351,EPIDM,2023.1.2,None,
8186.jpg,F078.jpg,2 Points,2 Points,23 Points,,,,,,,,,,0,9,9,9,,,,,,,,,,,,,,,,,,,,,,,,,,,,,,,,,,,,,,,,,,,230.6742736250162,q,2.0997919170185924,232.91609812504612,1,2.6059156260453165,245.75639004190452,space,29.681991583900526,271585,B,2024-08-01_11h43.09.351,EPIDM,2023.1.2,None,
,,,,,,,,,,,,,,,,,,,,,,,,,,,,,,,,,,,,,,,,,,,,,,,,,,,,,,,,,,space,2.3701854168903083,,,,,,,,,,271585,B,2024-08-01_11h43.09.351,EPIDM,2023.1.2,None,
7284.jpg,8021.jpg,4 Points,4 Points,4 Points,PS2_L1.csv,,,,,,,,,,,,,,,,,,,,,,,,,,,,,0,0,0,0,0,0,0,0,,,,,,,,,,,,,,,,,,,289.9658058329951,q,1.3672609170898795,291.4503512920346,,,,,,271585,B,2024-08-01_11h43.09.351,EPIDM,2023.1.2,None,
2214.jpg,4500.jpg,3 Points,3 Points,7 points,PS2_L1.csv,,,,,,,,,,,,,,,,,,,,,,,,,,,,,0,0,0,0,0,1,1,1,,,,,,,,,,,,,,,,,,,295.6517280000262,q,1.6567137921229005,297.38230041693896,3,2.548989166971296,,,,271585,B,2024-08-01_11h43.09.351,EPIDM,2023.1.2,None,
1280.jpg,9402.jpg,2 Points,2 Points,9 points,PS2_L1.csv,,,,,,,,,,,,,,,,,,,,,,,,,,,,,0,0,0,0,0,2,2,2,,,,,,,,,,,,,,,,,,,304.2467953749001,p,2.430204125121236,306.74465104192495,,,,,,271585,B,2024-08-01_11h43.09.351,EPIDM,2023.1.2,None,
1650.jpg,2130.jpg,1 Points,1 Points,10 points,PS2_L1.csv,,,,,,,,,,,,,,,,,,,,,,,,,,,,,0,0,0,0,0,3,3,3,,,,,,,,,,,,,,,,,,,310.9990260829218,q,1.6854026671499014,312.7577807919588,,,,,,271585,B,2024-08-01_11h43.09.351,EPIDM,2023.1.2,None,
2221.jpg,2270.jpg,2 Points,2 Points,12 points,PS2_L1.csv,,,,,,,,,,,,,,,,,,,,,,,,,,,,,0,0,0,0,0,4,4,4,,,,,,,,,,,,,,,,,,,317.0115592919756,p,1.7365305840503424,318.81419879198074,,,,,,271585,B,2024-08-01_11h43.09.351,EPIDM,2023.1.2,None,
9373.jpg,9410.jpg,0 Points,0 Points,12 points,PS2_L1.csv,,,,,,,,,,,,,,,,,,,,,,,,,,,,,0,0,0,0,0,5,5,5,,,,,,,,,,,,,,,,,,,323.0690590420272,p,1.9913596669211984,325.1257642500568,,,,,,271585,B,2024-08-01_11h43.09.351,EPIDM,2023.1.2,None,
4250.jpg,7060.jpg,5 Points,5 Points,17 points,PS2_L1.csv,,,,,,,,,,,,,,,,,,,,,,,,,,,,,0,0,0,0,0,6,6,6,,,,,,,,,,,,,,,,,,,329.37819775007665,p,2.1376705830916762,331.5992212079,,,,,,271585,B,2024-08-01_11h43.09.351,EPIDM,2023.1.2,None,
5130.jpg,1810.jpg,3 Points,3 Points,20 points,PS2_L1.csv,,,,,,,,,,,,,,,,,,,,,,,,,,,,,0,0,0,0,0,7,7,7,,,,,,,,,,,,,,,,,,,335.8352349170018,q,2.3211448329966515,338.23847783287056,,,,,,271585,B,2024-08-01_11h43.09.351,EPIDM,2023.1.2,None,
6370.jpg,1270.jpg,4 Points,4 Points,24 points,PS2_L1.csv,,,,,,,,,,,,,,,,,,,,,,,,,,,,,0,0,0,0,0,8,8,8,,,,,,,,,,,,,,,,,,,342.47804274992086,p,2.79788091708906,345.3540833329316,,,,,,271585,B,2024-08-01_11h43.09.351,EPIDM,2023.1.2,None,
5480.jpg,8200.jpg,4 Points,4 Points,28 points,PS2_L1.csv,,,,,,,,,,,,,,,,,,,,,,,,,,,,,0,0,0,0,0,9,9,9,,,,,,,,,,,,,,,,,,,349.59098929190077,q,2.5014310830738395,352.1746470830403,,,,,,271585,B,2024-08-01_11h43.09.351,EPIDM,2023.1.2,None,
2520.jpg,8503.jpg,2 Points,2 Points,30 points,PS2_L1.csv,,,,,,,,,,,,,,,,,,,,,,,,,,,,,0,0,0,0,0,10,10,10,,,,,,,,,,,,,,,,,,,356.41706445789896,q,2.0263960838783532,358.5304021250922,,,,,,271585,B,2024-08-01_11h43.09.351,EPIDM,2023.1.2,None,
5971.jpg,9912.jpg,5 Points,5 Points,35 points,PS2_L1.csv,,,,,,,,,,,,,,,,,,,,,,,,,,,,,0,0,0,0,0,11,11,11,,,,,,,,,,,,,,,,,,,362.776977624977,p,2.7226985001470894,365.5731089168694,,,,,,271585,B,2024-08-01_11h43.09.351,EPIDM,2023.1.2,None,
7195.jpg,2487.jpg,2 Points,2 Points,37 points,PS2_L1.csv,,,,,,,,,,,,,,,,,,,,,,,,,,,,,0,0,0,0,0,12,12,12,,,,,,,,,,,,,,,,,,,369.82475837506354,q,1.2347096670418978,371.1239724170882,,,,,,271585,B,2024-08-01_11h43.09.351,EPIDM,2023.1.2,None,
6840.jpg,3080.jpg,1 Points,1 Points,38 points,PS2_L1.csv,,,,,,,,,,,,,,,,,,,,,,,,,,,,,0,0,0,0,0,13,13,13,,,,,,,,,,,,,,,,,,,375.36986625008285,p,1.6257605000864714,377.0707464169245,1,2.339000500040129,,,,271585,B,2024-08-01_11h43.09.351,EPIDM,2023.1.2,None,
5510.jpg,2514.jpg,5 Points,5 Points,43 points,PS2_L1.csv,,,,,,,,,,,,,,,,,,,,,,,,,,,,,0,0,0,0,0,14,14,14,,,,,,,,,,,,,,,,,,,383.7308659169357,q,2.432001876179129,386.227772125043,,,,,,271585,B,2024-08-01_11h43.09.351,EPIDM,2023.1.2,None,
7170.jpg,2170.jpg,2 Points,2 Points,45 points,PS2_L1.csv,,,,,,,,,,,,,,,,,,,,,,,,,,,,,0,0,0,0,0,15,15,15,,,,,,,,,,,,,,,,,,,390.4876959579997,q,1.4679176670033485,392.0252527499106,,,,,,271585,B,2024-08-01_11h43.09.351,EPIDM,2023.1.2,None,
6020.jpg,6300.jpg,2 Points,2 Points,47 points,PS2_L1.csv,,,,,,,,,,,,,,,,,,,,,,,,,,,,,0,0,0,0,0,16,16,16,,,,,,,,,,,,,,,,,,,396.29071645787917,q,1.6477019169833511,398.0010883330833,,,,,,271585,B,2024-08-01_11h43.09.351,EPIDM,2023.1.2,None,
1942.jpg,2890.jpg,1 Points,1 Points,48 points,PS2_L1.csv,,,,,,,,,,,,,,,,,,,,,,,,,,,,,0,0,0,0,0,17,17,17,,,,,,,,,,,,,,,,,,,402.25141029199585,q,1.9208318758755922,404.2414414999075,,,,,,271585,B,2024-08-01_11h43.09.351,EPIDM,2023.1.2,None,
6241.jpg,9561.jpg,3 Points,3 Points,51 points,PS2_L1.csv,,,,,,,,,,,,,,,,,,,,,,,,,,,,,0,0,0,0,0,18,18,18,,,,,,,,,,,,,,,,,,,408.49777970789,p,1.1447859171312302,409.71290916693397,,,,,,271585,B,2024-08-01_11h43.09.351,EPIDM,2023.1.2,None,
4536.jpg,2280.jpg,4 Points,4 Points,55 points,PS2_L1.csv,,,,,,,,,,,,,,,,,,,,,,,,,,,,,0,0,0,0,0,19,19,19,,,,,,,,,,,,,,,,,,,413.97192695806734,p,1.7746110011357814,415.8222610419616,,,,,,271585,B,2024-08-01_11h43.09.351,EPIDM,2023.1.2,None,
6000.jpg,6836.jpg,4 Points,4 Points,59 points,PS2_L1.csv,,,,,,,,,,,,,,,,,,,,,,,,,,,,,0,0,0,0,0,20,20,20,,,,,,,,,,,,,,,,,,,420.0566614579875,q,2.9135481249541044,423.0369177078828,,,,,,271585,B,2024-08-01_11h43.09.351,EPIDM,2023.1.2,None,
8232.jpg,4279.jpg,5 Points,5 Points,64 points,PS2_L1.csv,,,,,,,,,,,,,,,,,,,,,,,,,,,,,0,0,0,0,0,21,21,21,,,,,,,,,,,,,,,,,,,427.28640683298,q,1.2841474590823054,428.6484800830949,,,,,,271585,B,2024-08-01_11h43.09.351,EPIDM,2023.1.2,None,
2312.jpg,2722.jpg,1 Points,1 Points,65 points,PS2_L1.csv,,,,,,,,,,,,,,,,,,,,,,,,,,,,,0,0,0,0,0,22,22,22,,,,,,,,,,,,,,,,,,,432.8933572920505,p,1.6526876671705395,434.6262762499973,,,,,,271585,B,2024-08-01_11h43.09.351,EPIDM,2023.1.2,None,
2750.jpg,9050.jpg,4 Points,4 Points,69 points,PS2_L1.csv,,,,,,,,,,,,,,,,,,,,,,,,,,,,,0,0,0,0,0,23,23,23,,,,,,,,,,,,,,,,,,,438.87428204203025,p,1.5842549169901758,440.5269299170468,,,451.017249250086,space,17.856645917054266,271585,B,2024-08-01_11h43.09.351,EPIDM,2023.1.2,None,
1113.jpg,1240.jpg,3 Points,3 Points,72 points,PS2_L2.csv,,,,,,,,,,,,,,,,,,,,,,,,,,,,,0,1,1,1,0,0,0,0,,,,,,,,,,,,,,,,,,,472.1809412080329,q,1.7796133342199028,474.03868387499824,,,,,,271585,B,2024-08-01_11h43.09.351,EPIDM,2023.1.2,None,
8220.jpg,2410.jpg,4 Points,4 Points,76 points,PS2_L2.csv,,,,,,,,,,,,,,,,,,,,,,,,,,,,,0,1,1,1,0,1,1,1,,,,,,,,,,,,,,,,,,,478.28103583306074,p,1.000872417120263,479.3462387919426,4,2.480615667067468,,,,271585,B,2024-08-01_11h43.09.351,EPIDM,2023.1.2,None,
4621.jpg,3550.jpg,2 Points,2 Points,78 points,PS2_L2.csv,,,,,,,,,,,,,,,,,,,,,,,,,,,,,0,1,1,1,0,2,2,2,,,,,,,,,,,,,,,,,,,486.1336683749687,p,1.2698046250734478,487.4800633750856,,,,,,271585,B,2024-08-01_11h43.09.351,EPIDM,2023.1.2,None,
2751.jpg,6313.jpg,3 Points,3 Points,81 points,PS2_L2.csv,,,,,,,,,,,,,,,,,,,,,,,,,,,,,0,1,1,1,0,3,3,3,,,,,,,,,,,,,,,,,,,491.71843533287756,p,1.5954186669550836,493.38187108305283,,,,,,271585,B,2024-08-01_11h43.09.351,EPIDM,2023.1.2,None,
4689.jpg,7009.jpg,5 Points,5 Points,86 points,PS2_L2.csv,,,,,,,,,,,,,,,,,,,,,,,,,,,,,0,1,1,1,0,4,4,4,,,,,,,,,,,,,,,,,,,497.6349100829102,p,1.2864441671408713,498.9925422500819,,,,,,271585,B,2024-08-01_11h43.09.351,EPIDM,2023.1.2,None,
6831.jpg,2141.jpg,5 Points,5 Points,91 points,PS2_L2.csv,,,,,,,,,,,,,,,,,,,,,,,,,,,,,0,1,1,1,0,5,5,5,,,,,,,,,,,,,,,,,,,503.2552687500138,q,1.5534951670560986,504.8748171669431,,,,,,271585,B,2024-08-01_11h43.09.351,EPIDM,2023.1.2,None,
9417.jpg,6530.jpg,1 Point,1 Point,92 points,PS2_L2.csv,,,,,,,,,,,,,,,,,,,,,,,,,,,,,0,1,1,1,0,6,6,6,,,,,,,,,,,,,,,,,,,509.1249426670838,p,2.2675061670597643,511.4729644579347,,,,,,271585,B,2024-08-01_11h43.09.351,EPIDM,2023.1.2,None,
7237.jpg,8510.jpg,4 Points,4 Points,96 points,PS2_L2.csv,,,,,,,,,,,,,,,,,,,,,,,,,,,,,0,1,1,1,0,7,7,7,,,,,,,,,,,,,,,,,,,515.7109404169023,q,1.3940286671277136,517.1871630828828,,,,,,271585,B,2024-08-01_11h43.09.351,EPIDM,2023.1.2,None,
4608.jpg,8320.jpg,1 Point,1 Point,97 points,PS2_L2.csv,,,,,,,,,,,,,,,,,,,,,,,,,,,,,0,1,1,1,0,8,8,8,,,,,,,,,,,,,,,,,,,521.430217291927,p,1.473911833949387,522.9895981249865,,,,,,271585,B,2024-08-01_11h43.09.351,EPIDM,2023.1.2,None,
9254.jpg,9290.jpg,2 Points,2 Points,99 points,PS2_L2.csv,,,,,,,,,,,,,,,,,,,,,,,,,,,,,0,1,1,1,0,9,9,9,,,,,,,,,,,,,,,,,,,527.2313013749663,q,2.9545532090123743,530.2527163329069,,,,,,271585,B,2024-08-01_11h43.09.351,EPIDM,2023.1.2,None,
9530.jpg,9220.jpg,1 Point,1 Point,100 points,PS2_L2.csv,,,,,,,,,,,,,,,,,,,,,,,,,,,,,0,1,1,1,0,10,10,10,,,,,,,,,,,,,,,,,,,534.5133805000223,q,2.1749883762095124,536.7436028749216,,,,,,271585,B,2024-08-01_11h43.09.351,EPIDM,2023.1.2,None,
2092.jpg,2210.jpg,0 Points,0 Points,100 points,PS2_L2.csv,,,,,,,,,,,,,,,,,,,,,,,,,,,,,0,1,1,1,0,11,11,11,,,,,,,,,,,,,,,,,,,541.0002836249769,p,1.999573958106339,543.0683258750942,,,,,,271585,B,2024-08-01_11h43.09.351,EPIDM,2023.1.2,None,
9500.jpg,6360.jpg,1 Point,1 Point,101 points,PS2_L2.csv,,,,,,,,,,,,,,,,,,,,,,,,,,,,,0,1,1,1,0,12,12,12,,,,,,,,,,,,,,,,,,,547.323716416955,q,2.08422370813787,549.4793723749463,,,,,,271585,B,2024-08-01_11h43.09.351,EPIDM,2023.1.2,None,
2220.jpg,2010.jpg,5 Points,5 Points,106 points,PS2_L2.csv,,,,,,,,,,,,,,,,,,,,,,,,,,,,,0,1,1,1,0,13,13,13,,,,,,,,,,,,,,,,,,,553.7237737500109,q,2.2031314589548856,556.0095336670056,5,2.1141359170433134,,,,271585,B,2024-08-01_11h43.09.351,EPIDM,2023.1.2,None,
5940.jpg,9411.jpg,0 Points,0 Points,106 points,PS2_L2.csv,,,,,,,,,,,,,,,,,,,,,,,,,,,,,0,1,1,1,0,14,14,14,,,,,,,,,,,,,,,,,,,562.4534361250699,q,1.8337560000363737,564.3612099580932,,,,,,271585,B,2024-08-01_11h43.09.351,EPIDM,2023.1.2,None,
4533.jpg,2385.jpg,3 Points,3 Points,109 points,PS2_L2.csv,,,,,,,,,,,,,,,,,,,,,,,,,,,,,0,1,1,1,0,15,15,15,,,,,,,,,,,,,,,,,,,568.5995258330368,p,1.4485123751219362,570.1212384169921,,,,,,271585,B,2024-08-01_11h43.09.351,EPIDM,2023.1.2,None,
9340.jpg,6910.jpg,0 Points,0 Points,109 points,PS2_L2.csv,,,,,,,,,,,,,,,,,,,,,,,,,,,,,0,1,1,1,0,16,16,16,,,,,,,,,,,,,,,,,,,574.365898292046,q,1.51369558298029,575.9546563329641,,,,,,271585,B,2024-08-01_11h43.09.351,EPIDM,2023.1.2,None,
8350.jpg,7190.jpg,5 Points,5 Points,114 points,PS2_L2.csv,,,,,,,,,,,,,,,,,,,,,,,,,,,,,0,1,1,1,0,17,17,17,,,,,,,,,,,,,,,,,,,580.2027003329713,q,1.5323195841629058,581.8088235829491,,,,,,271585,B,2024-08-01_11h43.09.351,EPIDM,2023.1.2,None,
6211.jpg,9611.jpg,3 Points,3 Points,117 points ,PS2_L2.csv,,,,,,,,,,,,,,,,,,,,,,,,,,,,,0,1,1,1,0,18,18,18,,,,,,,,,,,,,,,,,,,586.0475684578996,p,3.127499584108591,589.2451958330348,,,,,,271585,B,2024-08-01_11h43.09.351,EPIDM,2023.1.2,None,
2053.jpg,9415.jpg,4 Points,4 Points,121 points,PS2_L2.csv,,,,,,,,,,,,,,,,,,,,,,,,,,,,,0,1,1,1,0,19,19,19,,,,,,,,,,,,,,,,,,,593.4997672499157,q,1.9463481670245528,595.5119683749508,,,,,,271585,B,2024-08-01_11h43.09.351,EPIDM,2023.1.2,None,
2110.jpg,7260.jpg,5 Points,5 Points,126 points,PS2_L2.csv,,,,,,,,,,,,,,,,,,,,,,,,,,,,,0,1,1,1,0,20,20,20,,,,,,,,,,,,,,,,,,,599.7787326250691,q,2.0684257922694087,601.9279989579227,,,,,,271585,B,2024-08-01_11h43.09.351,EPIDM,2023.1.2,None,
2030.jpg,2495.jpg,0 Points,0 Points,126 points,PS2_L2.csv,,,,,,,,,,,,,,,,,,,,,,,,,,,,,0,1,1,1,0,21,21,21,,,,,,,,,,,,,,,,,,,606.1817950000986,p,1.0734868329018354,607.330992625095,,,,,,271585,B,2024-08-01_11h43.09.351,EPIDM,2023.1.2,None,
1302.jpg,2700.jpg,3 Points,3 Points,129 points,PS2_L2.csv,,,,,,,,,,,,,,,,,,,,,,,,,,,,,0,1,1,1,0,22,22,22,,,,,,,,,,,,,,,,,,,611.5893593330402,p,2.0810017089825124,613.746252666926,,,,,,271585,B,2024-08-01_11h43.09.351,EPIDM,2023.1.2,None,
9010.jpg,9253.jpg,0 Points,0 Points,129 points,PS2_L2.csv,,,,,,,,,,,,,,,,,,,,,,,,,,,,,0,1,1,1,0,23,23,23,,,,,,,,,,,,,,,,,,,617.9851589580067,q,2.1414569579064846,620.2089153749403,,,630.6747505830135,space,11.738870792090893,271585,B,2024-08-01_11h43.09.351,EPIDM,2023.1.2,None,
1303.jpg,2000.jpg,0 Points,0 Points,129 points,PS2_L3.csv,,,,,,,,,,,,,,,,,,,,,,,,,,,,,0,2,2,2,0,0,0,0,,,,,,,,,,,,,,,,,,,645.7355612078682,q,1.6050855000503361,647.407034792006,,,,,,271585,B,2024-08-01_11h43.09.351,EPIDM,2023.1.2,None,
2200.jpg,4598.jpg,1 Point,1 Point,130 points,PS2_L3.csv,,,,,,,,,,,,,,,,,,,,,,,,,,,,,0,2,2,2,0,1,1,1,,,,,,,,,,,,,,,,,,,651.6644910420291,p,0.8046560832299292,652.5504563748837,1,1.4835537502076477,,,,271585,B,2024-08-01_11h43.09.351,EPIDM,2023.1.2,None,
6190.jpg,3120.jpg,5 Points,5 Points,135 points,PS2_L3.csv,,,,,,,,,,,,,,,,,,,,,,,,,,,,,0,2,2,2,0,2,2,2,,,,,,,,,,,,,,,,,,,658.365610250039,p,1.8868543750140816,660.3327791669872,,,,,,271585,B,2024-08-01_11h43.09.351,EPIDM,2023.1.2,None,
2570.jpg,5500.jpg,3 Points,3 Points,138 points,PS2_L3.csv,,,,,,,,,,,,,,,,,,,,,,,,,,,,,0,2,2,2,0,3,3,3,,,,,,,,,,,,,,,,,,,664.5747633748688,p,1.6466827511321753,666.2939291670918,,,,,,271585,B,2024-08-01_11h43.09.351,EPIDM,2023.1.2,None,
8460.jpg,8330.jpg,0 Points,0 Points,138 points,PS2_L3.csv,,,,,,,,,,,,,,,,,,,,,,,,,,,,,0,2,2,2,0,4,4,4,,,,,,,,,,,,,,,,,,,670.541725124931,q,1.5591041250154376,672.1643698329572,,,,,,271585,B,2024-08-01_11h43.09.351,EPIDM,2023.1.2,None,
9320.jpg,9007.jpg,0 Points,0 Points,138 points,PS2_L3.csv,,,,,,,,,,,,,,,,,,,,,,,,,,,,,0,2,2,2,0,5,5,5,,,,,,,,,,,,,,,,,,,676.4076857080217,q,1.2209518339950591,677.6920640829485,,,,,,271585,B,2024-08-01_11h43.09.351,EPIDM,2023.1.2,None,
2650.jpg,4531.jpg,5 Points,5 Points,143 points,PS2_L3.csv,,,,,,,,,,,,,,,,,,,,,,,,,,,,,0,2,2,2,0,6,6,6,,,,,,,,,,,,,,,,,,,681.9477865828667,p,1.8410879168659449,683.8627397080418,,,,,,271585,B,2024-08-01_11h43.09.351,EPIDM,2023.1.2,None,
4100.jpg,6570.2.jpg,3 Points,3 Points,146 points,PS2_L3.csv,,,,,,,,,,,,,,,,,,,,,,,,,,,,,0,2,2,2,0,7,7,7,,,,,,,,,,,,,,,,,,,688.1089251670055,p,1.8558265001047403,690.0374104999937,,,,,,271585,B,2024-08-01_11h43.09.351,EPIDM,2023.1.2,None,
3102.jpg,F032.jpg,1 Point,1 Point,147 points,PS2_L3.csv,,,,,,,,,,,,,,,,,,,,,,,,,,,,,0,2,2,2,0,8,8,8,,,,,,,,,,,,,,,,,,,694.2807089579292,q,1.0196043751202524,695.4172754168976,,,,,,271585,B,2024-08-01_11h43.09.351,EPIDM,2023.1.2,None,
2240.jpg,5010.jpg,5 Points,5 Points,152 points,PS2_L3.csv,,,,,,,,,,,,,,,,,,,,,,,,,,,,,0,2,2,2,0,9,9,9,,,,,,,,,,,,,,,,,,,699.6330493330024,q,2.003446208080277,701.758055208018,,,,,,271585,B,2024-08-01_11h43.09.351,EPIDM,2023.1.2,None,
4605.jpg,1510.jpg,4 Points,4 Points,156 points,PS2_L3.csv,,,,,,,,,,,,,,,,,,,,,,,,,,,,,0,2,2,2,0,10,10,10,,,,,,,,,,,,,,,,,,,705.9629665419925,p,1.8889191260095686,707.9225236249622,,,,,,271585,B,2024-08-01_11h43.09.351,EPIDM,2023.1.2,None,
9490.jpg,9210.jpg,1 Point,1 Point,157 points,PS2_L3.csv,,,,,,,,,,,,,,,,,,,,,,,,,,,,,0,2,2,2,0,11,11,11,,,,,,,,,,,,,,,,,,,712.1602161249612,q,0.8927496261894703,713.1267122919671,,,,,,271585,B,2024-08-01_11h43.09.351,EPIDM,2023.1.2,None,
6821.jpg,9622.jpg,2 Points,2 Points,159 points,PS2_L3.csv,,,,,,,,,,,,,,,,,,,,,,,,,,,,,0,2,2,2,0,12,12,12,,,,,,,,,,,,,,,,,,,717.3808098749723,p,1.2631244999356568,718.705926374998,,,,,,271585,B,2024-08-01_11h43.09.351,EPIDM,2023.1.2,None,
2681.jpg,7100.jpg,3 Points,3 Points,162 points,PS2_L3.csv,,,,,,,,,,,,,,,,,,,,,,,,,,,,,0,2,2,2,0,13,13,13,,,,,,,,,,,,,,,,,,,722.9657601250801,q,1.6371380421333015,724.6732483750675,3,1.499668125063181,,,,271585,B,2024-08-01_11h43.09.351,EPIDM,2023.1.2,None,
5622.jpg,9156.jpg,4 Points,4 Points,166 points,PS2_L3.csv,,,,,,,,,,,,,,,,,,,,,,,,,,,,,0,2,2,2,0,14,14,14,,,,,,,,,,,,,,,,,,,730.486770916963,p,2.4362705419771373,733.0053424579091,,,,,,271585,B,2024-08-01_11h43.09.351,EPIDM,2023.1.2,None,
1111.jpg,1040.jpg,0 Points,0 Points,166 points,PS2_L3.csv,,,,,,,,,,,,,,,,,,,,,,,,,,,,,0,2,2,2,0,15,15,15,,,,,,,,,,,,,,,,,,,737.2665939580183,q,1.3300593341700733,738.6707157918718,,,,,,271585,B,2024-08-01_11h43.09.351,EPIDM,2023.1.2,None,
1112.jpg,6230.jpg,3 Points,3 Points,169 points,PS2_L3.csv,,,,,,,,,,,,,,,,,,,,,,,,,,,,,0,2,2,2,0,16,16,16,,,,,,,,,,,,,,,,,,,742.9162495420314,p,1.4069866251666099,744.3979288330302,,,,,,271585,B,2024-08-01_11h43.09.351,EPIDM,2023.1.2,None,
8161.jpg,1900.jpg,4 Points,4 Points,173 points,PS2_L3.csv,,,,,,,,,,,,,,,,,,,,,,,,,,,,,0,2,2,2,0,17,17,17,,,,,,,,,,,,,,,,,,,748.6488187920768,q,1.9389667510986328,750.649920792086,,,,,,271585,B,2024-08-01_11h43.09.351,EPIDM,2023.1.2,None,
9800.jpg,9433.jpg,1 Point,1 Point,174 points,PS2_L3.csv,,,,,,,,,,,,,,,,,,,,,,,,,,,,,0,2,2,2,0,18,18,18,,,,,,,,,,,,,,,,,,,754.8994492080528,p,1.4635928750503808,756.4296326250769,,,,,,271585,B,2024-08-01_11h43.09.351,EPIDM,2023.1.2,None,
1390.jpg,9421.jpg,2 Points,2 Points,176 points,PS2_L3.csv,,,,,,,,,,,,,,,,,,,,,,,,,,,,,0,2,2,2,0,19,19,19,,,,,,,,,,,,,,,,,,,760.6773504170123,p,1.710218375083059,762.4535430830438,,,,,,271585,B,2024-08-01_11h43.09.351,EPIDM,2023.1.2,None,
2850.jpg,4532.jpg,3 Points,3 Points,179 points,PS2_L3.csv,,,,,,,,,,,,,,,,,,,,,,,,,,,,,0,2,2,2,0,20,20,20,,,,,,,,,,,,,,,,,,,766.6993289580569,q,1.6882516669575125,768.4549670419656,,,,,,271585,B,2024-08-01_11h43.09.351,EPIDM,2023.1.2,None,
1560.jpg,8185.jpg,0 Points,0 Points,179 points,PS2_L3.csv,,,,,,,,,,,,,,,,,,,,,,,,,,,,,0,2,2,2,0,21,21,21,,,,,,,,,,,,,,,,,,,772.711806083098,q,3.178148209117353,775.9556778329425,,,,,,271585,B,2024-08-01_11h43.09.351,EPIDM,2023.1.2,None,
6314.jpg,O022.jpg,2 Points,2 Points,181 points,PS2_L3.csv,,,,,,,,,,,,,,,,,,,,,,,,,,,,,0,2,2,2,0,22,22,22,,,,,,,,,,,,,,,,,,,780.202232291922,p,1.5774278750177473,781.888732082909,,,,,,271585,B,2024-08-01_11h43.09.351,EPIDM,2023.1.2,None,
4274.jpg,8160.jpg,2 Points,2 Points,183 points,PS2_L3.csv,,,,,,,,,,,,,,,,,,,,,,,,,,,,,0,2,2,2,0,23,23,23,,,,,,,,,,,,,,,,,,,786.1015476249158,p,1.910787417087704,788.0842059999704,,,798.5513519579545,space,5.363242249935865,271585,B,2024-08-01_11h43.09.351,EPIDM,2023.1.2,None,
8117.jpg,2880.jpg,5 Points,5 Points,188 points,PS2_L4.csv,,,,,,,,,,,,,,,,,,,,,,,,,,,,,0,3,3,3,0,0,0,0,,,,,,,,,,,,,,,,,,,807.2413590420038,p,1.137150791939348,808.465152541874,,,,,,271585,B,2024-08-01_11h43.09.351,EPIDM,2023.1.2,None,
3220.jpg,3063.jpg,5 Points,5 Points,193 points,PS2_L4.csv,,,,,,,,,,,,,,,,,,,,,,,,,,,,,0,3,3,3,0,1,1,1,,,,,,,,,,,,,,,,,,,812.6983657500241,p,1.4468800011090934,814.2129731669556,5,1.3632609581109136,,,,271585,B,2024-08-01_11h43.09.351,EPIDM,2023.1.2,None,
9040.jpg,1120.jpg,3 Points,3 Points,196 points,PS2_L4.csv,,,,,,,,,,,,,,,,,,,,,,,,,,,,,0,3,3,3,0,2,2,2,,,,,,,,,,,,,,,,,,,819.916010875022,q,1.781528834020719,821.7665910420474,,,,,,271585,B,2024-08-01_11h43.09.351,EPIDM,2023.1.2,None,
5030.jpg,1670.jpg,3 Points,3 Points,199 points,PS2_L4.csv,,,,,,,,,,,,,,,,,,,,,,,,,,,,,0,3,3,3,0,3,3,3,,,,,,,,,,,,,,,,,,,826.0305919998791,p,1.2029136249329895,827.2970662079751,,,,,,271585,B,2024-08-01_11h43.09.351,EPIDM,2023.1.2,None,
2276.jpg,6540.jpg,3 Points,3 Points,202 points,PS2_L4.csv,,,,,,,,,,,,,,,,,,,,,,,,,,,,,0,3,3,3,0,4,4,4,,,,,,,,,,,,,,,,,,,831.5572081250139,q,2.2127107090782374,833.8191630418878,,,,,,271585,B,2024-08-01_11h43.09.351,EPIDM,2023.1.2,None,
1540.jpg,2600.jpg,1 Point,1 Point,203 points,PS2_L4.csv,,,,,,,,,,,,,,,,,,,,,,,,,,,,,0,3,3,3,0,5,5,5,,,,,,,,,,,,,,,,,,,838.0777799999341,q,3.178764041978866,841.3277119169943,,,,,,271585,B,2024-08-01_11h43.09.351,EPIDM,2023.1.2,None,
8465.jpg,8400.jpg,1 Point,1 Point,204 points,PS2_L4.csv,,,,,,,,,,,,,,,,,,,,,,,,,,,,,0,3,3,3,0,6,6,6,,,,,,,,,,,,,,,,,,,845.5732052079402,p,1.315780458971858,846.9577562499326,,,,,,271585,B,2024-08-01_11h43.09.351,EPIDM,2023.1.2,None,
3110.jpg,9000.jpg,4 Points,4 Points,208 points,PS2_L4.csv,,,,,,,,,,,,,,,,,,,,,,,,,,,,,0,3,3,3,0,7,7,7,,,,,,,,,,,,,,,,,,,851.2300850830507,q,0.8908395001199096,852.1873281248845,,,,,,271585,B,2024-08-01_11h43.09.351,EPIDM,2023.1.2,None,
9570.jpg,6610.jpg,0 Points,0 Points,208 points,PS2_L4.csv,,,,,,,,,,,,,,,,,,,,,,,,,,,,,0,3,3,3,0,8,8,8,,,,,,,,,,,,,,,,,,,856.43800383294,q,1.2195043752435595,857.7312503750436,,,,,,271585,B,2024-08-01_11h43.09.351,EPIDM,2023.1.2,None,
2690.jpg,9360.jpg,1 Point,1 Point,209 points,PS2_L4.csv,,,,,,,,,,,,,,,,,,,,,,,,,,,,,0,3,3,3,0,9,9,9,,,,,,,,,,,,,,,,,,,861.9758445420302,q,1.6096621251199394,863.6642010000069,,,,,,271585,B,2024-08-01_11h43.09.351,EPIDM,2023.1.2,None,
8250.jpg,1313.jpg,4 Points,4 Points,213 points,PS2_L4.csv,,,,,,,,,,,,,,,,,,,,,,,,,,,,,0,3,3,3,0,10,10,10,,,,,,,,,,,,,,,,,,,867.9105282500386,p,1.0426185419782996,869.031758582918,,,,,,271585,B,2024-08-01_11h43.09.351,EPIDM,2023.1.2,None,
3022.jpg,2352.2.jpg,0 Points,0 Points,213 points,PS2_L4.csv,,,,,,,,,,,,,,,,,,,,,,,,,,,,,0,3,3,3,0,11,11,11,,,,,,,,,,,,,,,,,,,873.2867314580362,p,1.2010240419767797,874.5670543329325,,,,,,271585,B,2024-08-01_11h43.09.351,EPIDM,2023.1.2,None,
9920.jpg,3068.jpg,5 Points,5 Points,218 points,PS2_L4.csv,,,,,,,,,,,,,,,,,,,,,,,,,,,,,0,3,3,3,0,12,12,12,,,,,,,,,,,,,,,,,,,878.8301778330933,q,1.7474346670787781,880.6435335420538,,,,,,271585,B,2024-08-01_11h43.09.351,EPIDM,2023.1.2,None,
7234.jpg,5533.jpg,3 Points,3 Points,221 points,PS2_L4.csv,,,,,,,,,,,,,,,,,,,,,,,,,,,,,0,3,3,3,0,13,13,13,,,,,,,,,,,,,,,,,,,884.8922897500452,q,1.4041566671803594,886.362911083037,3,1.730466001201421,,,,271585,B,2024-08-01_11h43.09.351,EPIDM,2023.1.2,None,
6250.1.jpg,3301.jpg,0 Points,0 Points,221 points,PS2_L4.csv,,,,,,,,,,,,,,,,,,,,,,,,,,,,,0,3,3,3,0,14,14,14,,,,,,,,,,,,,,,,,,,892.4028593329713,p,1.375023250002414,893.8430476670619,,,,,,271585,B,2024-08-01_11h43.09.351,EPIDM,2023.1.2,None,
2518.jpg,2381.jpg,1 Point,1 Point,222 points,PS2_L4.csv,,,,,,,,,,,,,,,,,,,,,,,,,,,,,0,3,3,3,0,15,15,15,,,,,,,,,,,,,,,,,,,898.0919698749203,q,2.0525834169238806,900.2181135830469,,,,,,271585,B,2024-08-01_11h43.09.351,EPIDM,2023.1.2,None,
1910.jpg,2575.jpg,2 Points,2 Points,224 points,PS2_L4.csv,,,,,,,,,,,,,,,,,,,,,,,,,,,,,0,3,3,3,0,16,16,16,,,,,,,,,,,,,,,,,,,904.496201749891,p,2.111981333233416,906.6703529169317,,,,,,271585,B,2024-08-01_11h43.09.351,EPIDM,2023.1.2,None,
1275.jpg,3150.jpg,1 Point,1 Point,225 points,PS2_L4.csv,,,,,,,,,,,,,,,,,,,,,,,,,,,,,0,3,3,3,0,17,17,17,,,,,,,,,,,,,,,,,,,910.9274146670941,p,0.8964603340718895,911.8849865419324,,,,,,271585,B,2024-08-01_11h43.09.351,EPIDM,2023.1.2,None,
2702.jpg,1590.jpg,5 Points,5 Points,230 points,PS2_L4.csv,,,,,,,,,,,,,,,,,,,,,,,,,,,,,0,3,3,3,0,18,18,18,,,,,,,,,,,,,,,,,,,916.1417549168691,p,1.2734975419007242,917.4870310418773,,,,,,271585,B,2024-08-01_11h43.09.351,EPIDM,2023.1.2,None,
8480.jpg,6410.jpg,1 Point,1 Point,231 points,PS2_L4.csv,,,,,,,,,,,,,,,,,,,,,,,,,,,,,0,3,3,3,0,19,19,19,,,,,,,,,,,,,,,,,,,921.7253983330447,p,1.4338975420687348,923.2342915830668,,,,,,271585,B,2024-08-01_11h43.09.351,EPIDM,2023.1.2,None,
5621.jpg,5534.jpg,3 Points,3 Points,234 points,PS2_L4.csv,,,,,,,,,,,,,,,,,,,,,,,,,,,,,0,3,3,3,0,20,20,20,,,,,,,,,,,,,,,,,,,927.4819994580466,q,1.412979292217642,928.9808633329812,,,,,,271585,B,2024-08-01_11h43.09.351,EPIDM,2023.1.2,None,
5972.jpg,6838.jpg,5 Points,5 Points,239 points,PS2_L4.csv,,,,,,,,,,,,,,,,,,,,,,,,,,,,,0,3,3,3,0,21,21,21,,,,,,,,,,,,,,,,,,,933.2212367078755,q,1.7050558750052005,935.0067577499431,,,,,,271585,B,2024-08-01_11h43.09.351,EPIDM,2023.1.2,None,
2580.jpg,8300.jpg,3 Points,3 Points,242 points,PS2_L4.csv,,,,,,,,,,,,,,,,,,,,,,,,,,,,,0,3,3,3,0,22,22,22,,,,,,,,,,,,,,,,,,,939.251897332957,q,1.9154007080942392,941.2405514579732,,,,,,271585,B,2024-08-01_11h43.09.351,EPIDM,2023.1.2,None,
7280.jpg,7160.jpg,0 Points,0 Points,242 points,PS2_L4.csv,,,,,,,,,,,,,,,,,,,,,,,,,,,,,0,3,3,3,0,23,23,23,,,,,,,,,,,,,,,,,,,945.4851783749182,p,1.5215815010014921,947.082332167076,,,957.5471222079359,space,5.484084667172283,271585,B,2024-08-01_11h43.09.351,EPIDM,2023.1.2,None,
6243.jpg,2752.jpg,2 Points,2 Points,244 points,PS2_L5.csv,,,,,,,,,,,,,,,,,,,,,,,,,,,,,0,4,4,4,0,0,0,0,,,,,,,,,,,,,,,,,,,966.3609744580463,q,1.3248124171514064,967.7651589580346,,,,,,271585,B,2024-08-01_11h43.09.351,EPIDM,2023.1.2,None,
8340.jpg,7546.jpg,2 Points,2 Points,246 points,PS2_L5.csv,,,,,,,,,,,,,,,,,,,,,,,,,,,,,0,4,4,4,0,1,1,1,,,,,,,,,,,,,,,,,,,972.0073832499329,p,1.2229220420122147,973.2994104169775,2,1.2119940009433776,,,,271585,B,2024-08-01_11h43.09.351,EPIDM,2023.1.2,None,
1022.jpg,6930.jpg,1 Point,1 Point,247 points,PS2_L5.csv,,,,,,,,,,,,,,,,,,,,,,,,,,,,,0,4,4,4,0,2,2,2,,,,,,,,,,,,,,,,,,,978.8471961249597,q,2.3276390843093395,981.2443068330176,,,,,,271585,B,2024-08-01_11h43.09.351,EPIDM,2023.1.2,None,
7230.jpg,7570.jpg,5 Points,5 Points,252 points,PS2_L5.csv,,,,,,,,,,,,,,,,,,,,,,,,,,,,,0,4,4,4,0,3,3,3,,,,,,,,,,,,,,,,,,,985.4942022499163,p,1.3673602091148496,986.9382503330708,,,,,,271585,B,2024-08-01_11h43.09.351,EPIDM,2023.1.2,None,
5760.jpg,1602.jpg,1 Point,1 Point,253 points,PS2_L5.csv,,,,,,,,,,,,,,,,,,,,,,,,,,,,,0,4,4,4,0,4,4,4,,,,,,,,,,,,,,,,,,,991.1796277919784,p,1.7538620419800282,993.0056162918918,,,,,,271585,B,2024-08-01_11h43.09.351,EPIDM,2023.1.2,None,
9584.jpg,3400.jpg,2 Points,2 Points,255 points,PS2_L5.csv,,,,,,,,,,,,,,,,,,,,,,,,,,,,,0,4,4,4,0,5,5,5,,,,,,,,,,,,,,,,,,,997.2563402920496,p,1.0378894580062479,998.3724844579119,,,,,,271585,B,2024-08-01_11h43.09.351,EPIDM,2023.1.2,None,
2560.jpg,5270.jpg,4 Points,4 Points,259 points,PS2_L5.csv,,,,,,,,,,,,,,,,,,,,,,,,,,,,,0,4,4,4,0,6,6,6,,,,,,,,,,,,,,,,,,,1002.62647237489,p,2.819033541949466,1005.5292027499527,,,,,,271585,B,2024-08-01_11h43.09.351,EPIDM,2023.1.2,None,
3350.jpg,3210.jpg,1 Point,1 Point,260 points,PS2_L5.csv,,,,,,,,,,,,,,,,,,,,,,,,,,,,,0,4,4,4,0,7,7,7,,,,,,,,,,,,,,,,,,,1009.7756232500542,p,2.4373117089271545,1012.2683590829838,,,,,,271585,B,2024-08-01_11h43.09.351,EPIDM,2023.1.2,None,
5455.jpg,5220.jpg,0 Points,0 Points,260 points,PS2_L5.csv,,,,,,,,,,,,,,,,,,,,,,,,,,,,,0,4,4,4,0,8,8,8,,,,,,,,,,,,,,,,,,,1016.5305114169605,q,1.098047292092815,1017.688815082889,,,,,,271585,B,2024-08-01_11h43.09.351,EPIDM,2023.1.2,None,
7920.jpg,9102.jpg,3 Points,3 Points,263 points,PS2_L5.csv,,,,,,,,,,,,,,,,,,,,,,,,,,,,,0,4,4,4,0,9,9,9,,,,,,,,,,,,,,,,,,,1021.9539037500508,q,1.227537333033979,1023.2625853749923,,,,,,271585,B,2024-08-01_11h43.09.351,EPIDM,2023.1.2,None,
1301.jpg,1070.jpg,2 Points,2 Points,265 points,PS2_L5.csv,,,,,,,,,,,,,,,,,,,,,,,,,,,,,0,4,4,4,0,10,10,10,,,,,,,,,,,,,,,,,,,1027.5094964578748,q,0.9434192511253059,1028.5325615420006,,,,,,271585,B,2024-08-01_11h43.09.351,EPIDM,2023.1.2,None,
5982.jpg,5260.jpg,5 Points,5 Points,270 points,PS2_L5.csv,,,,,,,,,,,,,,,,,,,,,,,,,,,,,0,4,4,4,0,11,11,11,,,,,,,,,,,,,,,,,,,1032.7792377918959,p,1.5131512500811368,1034.3711622499395,,,,,,271585,B,2024-08-01_11h43.09.351,EPIDM,2023.1.2,None,
5000.jpg,8180.jpg,4 Points,4 Points,274 points,PS2_L5.csv,,,,,,,,,,,,,,,,,,,,,,,,,,,,,0,4,4,4,0,12,12,12,,,,,,,,,,,,,,,,,,,1038.6083005419932,p,1.332304583163932,1040.024039916927,,,,,,271585,B,2024-08-01_11h43.09.351,EPIDM,2023.1.2,None,
6244.jpg,9265.jpg,0 Points,0 Points,274 points,PS2_L5.csv,,,,,,,,,,,,,,,,,,,,,,,,,,,,,0,4,4,4,0,13,13,13,,,,,,,,,,,,,,,,,,,1044.2726214169525,q,1.2513935000170022,1045.5998572499957,0,1.424470583209768,,,,271585,B,2024-08-01_11h43.09.351,EPIDM,2023.1.2,None,
5990.jpg,5780.jpg,3 Points,3 Points,277 points,PS2_L5.csv,,,,,,,,,,,,,,,,,,,,,,,,,,,,,0,4,4,4,0,14,14,14,,,,,,,,,,,,,,,,,,,1051.3458422499243,q,0.9785638749599457,1052.3926032499876,,,,,,271585,B,2024-08-01_11h43.09.351,EPIDM,2023.1.2,None,
9440.jpg,6350.jpg,4 Points,4 Points,281 points,PS2_L5.csv,,,,,,,,,,,,,,,,,,,,,,,,,,,,,0,4,4,4,0,15,15,15,,,,,,,,,,,,,,,,,,,1056.6490524169058,p,0.6660895422101021,1057.3864359168801,,,,,,271585,B,2024-08-01_11h43.09.351,EPIDM,2023.1.2,None,
1850.jpg,5623.jpg,5 Points,5 Points,286 points,PS2_L5.csv,,,,,,,,,,,,,,,,,,,,,,,,,,,,,0,4,4,4,0,16,16,16,,,,,,,,,,,,,,,,,,,1061.6396280000918,q,1.2684196669142693,1062.9782145419158,,,,,,271585,B,2024-08-01_11h43.09.351,EPIDM,2023.1.2,None,
5200.jpg,5020.jpg,0 Points,0 Points,286 points,PS2_L5.csv,,,,,,,,,,,,,,,,,,,,,,,,,,,,,0,4,4,4,0,17,17,17,,,,,,,,,,,,,,,,,,,1067.2292357499246,q,1.3113848338834941,1068.6325909579173,,,,,,271585,B,2024-08-01_11h43.09.351,EPIDM,2023.1.2,None,
P211.jpg,9041.jpg,4 Points,4 Points,290 points,PS2_L5.csv,,,,,,,,,,,,,,,,,,,,,,,,,,,,,0,4,4,4,0,18,18,18,,,,,,,,,,,,,,,,,,,1072.8649609170388,p,1.433785708155483,1074.4129939170089,,,,,,271585,B,2024-08-01_11h43.09.351,EPIDM,2023.1.2,None,
5600.jpg,9080.jpg,5 Points,5 Points,295 points,PS2_L5.csv,,,,,,,,,,,,,,,,,,,,,,,,,,,,,0,4,4,4,0,19,19,19,,,,,,,,,,,,,,,,,,,1078.6245132079348,p,1.5861822091974318,1080.3295764580835,,,,,,271585,B,2024-08-01_11h43.09.351,EPIDM,2023.1.2,None,
6800.jpg,9190.jpg,0 Points,0 Points,295 points,PS2_L5.csv,,,,,,,,,,,,,,,,,,,,,,,,,,,,,0,4,4,4,0,20,20,20,,,,,,,,,,,,,,,,,,,1084.5313526669051,q,1.5750810829922557,1086.1800285829231,,,,,,271585,B,2024-08-01_11h43.09.351,EPIDM,2023.1.2,None,
3280.jpg,9270.jpg,0 Points,0 Points,295 points,PS2_L5.csv,,,,,,,,,,,,,,,,,,,,,,,,,,,,,0,4,4,4,0,21,21,21,,,,,,,,,,,,,,,,,,,1090.431347917067,p,1.5480207921937108,1092.04560029204,,,,,,271585,B,2024-08-01_11h43.09.351,EPIDM,2023.1.2,None,
4613.jpg,2720.jpg,4 Points,4 Points,299 points,PS2_L5.csv,,,,,,,,,,,,,,,,,,,,,,,,,,,,,0,4,4,4,0,22,22,22,,,,,,,,,,,,,,,,,,,1096.3078472919296,p,1.7036472500767559,1098.0797048748937,,,,,,271585,B,2024-08-01_11h43.09.351,EPIDM,2023.1.2,None,
1930.jpg,9008.jpg,1 Point,1 Point,300 points,PS2_L5.csv,,,,,,,,,,,,,,,,,,,,,,,,,,,,,0,4,4,4,0,23,23,23,,,,,,,,,,,,,,,,,,,1102.3315314999782,p,1.7837918761651963,1104.188266791869,,,1114.6486380000133,space,12.393426000140607,271585,B,2024-08-01_11h43.09.351,EPIDM,2023.1.2,None,
2190.jpg,7503.jpg,2 Points,2 Points,302 points,PS2_L6.csv,,,,,,,,,,,,,,,,,,,,,,,,,,,,,0,5,5,5,0,0,0,0,,,,,,,,,,,,,,,,,,,1130.36345049995,p,1.1102189999073744,1131.5464929579757,,,,,,271585,B,2024-08-01_11h43.09.351,EPIDM,2023.1.2,None,
2490.jpg,2590.jpg,4 Points,4 Points,306 points,PS2_L6.csv,,,,,,,,,,,,,,,,,,,,,,,,,,,,,0,5,5,5,0,1,1,1,,,,,,,,,,,,,,,,,,,1135.7897976250388,q,1.781179124955088,1137.6440966250375,4,2.5392919171135873,,,,271585,B,2024-08-01_11h43.09.351,EPIDM,2023.1.2,None,
9592.jpg,1300.jpg,2 Points,2 Points,308 points,PS2_L6.csv,,,,,,,,,,,,,,,,,,,,,,,,,,,,,0,5,5,5,0,2,2,2,,,,,,,,,,,,,,,,,,,1144.5007661669515,p,1.7568541252985597,1146.32513487502,,,,,,271585,B,2024-08-01_11h43.09.351,EPIDM,2023.1.2,None,
8230.jpg,2682.jpg,5 Points,5 Points,313 points,PS2_L6.csv,,,,,,,,,,,,,,,,,,,,,,,,,,,,,0,5,5,5,0,3,3,3,,,,,,,,,,,,,,,,,,,1150.5850507919677,q,0.9288647079374641,1151.5870115829166,,,,,,271585,B,2024-08-01_11h43.09.351,EPIDM,2023.1.2,None,
9090.jpg,7580.jpg,3 Points,3 Points,316 points,PS2_L6.csv,,,,,,,,,,,,,,,,,,,,,,,,,,,,,0,5,5,5,0,4,4,4,,,,,,,,,,,,,,,,,,,1155.832739250036,q,1.138509042095393,1157.04967187508,,,,,,271585,B,2024-08-01_11h43.09.351,EPIDM,2023.1.2,None,
3530.jpg,6213.jpg,1 Point,1 Point,317 points,PS2_L6.csv,,,,,,,,,,,,,,,,,,,,,,,,,,,,,0,5,5,5,0,5,5,5,,,,,,,,,,,,,,,,,,,1161.289906708058,q,1.8156017090659589,1163.1754587918986,,,,,,271585,B,2024-08-01_11h43.09.351,EPIDM,2023.1.2,None,
1640.jpg,5531.jpg,3 Points,3 Points,320 points,PS2_L6.csv,,,,,,,,,,,,,,,,,,,,,,,,,,,,,0,5,5,5,0,6,6,6,,,,,,,,,,,,,,,,,,,1167.4159731250256,p,0.9133171672001481,1168.3993898748886,,,,,,271585,B,2024-08-01_11h43.09.351,EPIDM,2023.1.2,None,
3064.jpg,3168.jpg,4 Points,4 Points,324 points,PS2_L6.csv,,,,,,,,,,,,,,,,,,,,,,,,,,,,,0,5,5,5,0,7,7,7,,,,,,,,,,,,,,,,,,,1172.6475232918747,p,1.617064667167142,1174.3366533750668,,,,,,271585,B,2024-08-01_11h43.09.351,EPIDM,2023.1.2,None,
2710.jpg,9252.jpg,1 Point,1 Point,325 points,PS2_L6.csv,,,,,,,,,,,,,,,,,,,,,,,,,,,,,0,5,5,5,0,8,8,8,,,,,,,,,,,,,,,,,,,1178.5795283329207,q,2.3255531669128686,1180.9676471250132,,,,,,271585,B,2024-08-01_11h43.09.351,EPIDM,2023.1.2,None,
2260.jpg,2830.jpg,5 Points,5 Points,330 points,PS2_L6.csv,,,,,,,,,,,,,,,,,,,,,,,,,,,,,0,5,5,5,0,9,9,9,,,,,,,,,,,,,,,,,,,1185.2180416670162,q,1.7188597512431443,1187.0059911250137,,,,,,271585,B,2024-08-01_11h43.09.351,EPIDM,2023.1.2,None,
6510.jpg,A074.jpg,2 Points,2 Points,332 points,PS2_L6.csv,,,,,,,,,,,,,,,,,,,,,,,,,,,,,0,5,5,5,0,10,10,10,,,,,,,,,,,,,,,,,,,1191.2716822919901,q,1.6253208760172129,1193.0144397080876,,,,,,271585,B,2024-08-01_11h43.09.351,EPIDM,2023.1.2,None,
5300.jpg,2372.jpg,1 Point,1 Point,333 points,PS2_L6.csv,,,,,,,,,,,,,,,,,,,,,,,,,,,,,0,5,5,5,0,11,11,11,,,,,,,,,,,,,,,,,,,1197.2138738329522,p,1.4507744999136776,1198.7442532500718,,,,,,271585,B,2024-08-01_11h43.09.351,EPIDM,2023.1.2,None,
2749.jpg,7282.jpg,3 Points,3 Points,336 points,PS2_L6.csv,,,,,,,,,,,,,,,,,,,,,,,,,,,,,0,5,5,5,0,12,12,12,,,,,,,,,,,,,,,,,,,1202.9955885000527,q,1.5972545421682298,1204.6587439170107,,,,,,271585,B,2024-08-01_11h43.09.351,EPIDM,2023.1.2,None,
3130.jpg,3500.jpg,4 Points,4 Points,340 points,PS2_L6.csv,,,,,,,,,,,,,,,,,,,,,,,,,,,,,0,5,5,5,0,13,13,13,,,,,,,,,,,,,,,,,,,1208.9145526250359,p,1.2710479171946645,1210.2540567500982,4,1.4256749171763659,,,,271585,B,2024-08-01_11h43.09.351,EPIDM,2023.1.2,None,
6312.jpg,3230.jpg,2 Points,2 Points,342 points,PS2_L6.csv,,,,,,,,,,,,,,,,,,,,,,,,,,,,,0,5,5,5,0,14,14,14,,,,,,,,,,,,,,,,,,,1216.0051196250133,p,1.642996417125687,1217.7171866248827,,,,,,271585,B,2024-08-01_11h43.09.351,EPIDM,2023.1.2,None,
2597.jpg,5870.jpg,5 Points,5 Points,347 points,PS2_L6.csv,,,,,,,,,,,,,,,,,,,,,,,,,,,,,0,5,5,5,0,15,15,15,,,,,,,,,,,,,,,,,,,1221.964972625021,q,0.9867086261510849,1223.0198295828886,,,,,,271585,B,2024-08-01_11h43.09.351,EPIDM,2023.1.2,None,
8033.jpg,7270.jpg,3 Points,3 Points,350 points,PS2_L6.csv,,,,,,,,,,,,,,,,,,,,,,,,,,,,,0,5,5,5,0,16,16,16,,,,,,,,,,,,,,,,,,,1227.2718000828754,p,0.8323040001560003,1228.175979749998,,,,,,271585,B,2024-08-01_11h43.09.351,EPIDM,2023.1.2,None,
3170.jpg,6560.jpg,2 Points,2 Points,352 points,PS2_L6.csv,,,,,,,,,,,,,,,,,,,,,,,,,,,,,0,5,5,5,0,17,17,17,,,,,,,,,,,,,,,,,,,1232.427717332961,p,1.2432676672469825,1233.7337974170223,,,,,,271585,B,2024-08-01_11h43.09.351,EPIDM,2023.1.2,None,
6242.jpg,F034.jpg,4 Points,4 Points,356 points,PS2_L6.csv,,,,,,,,,,,,,,,,,,,,,,,,,,,,,0,5,5,5,0,18,18,18,,,,,,,,,,,,,,,,,,,1237.994898499921,p,1.332309959223494,1239.4368240830954,,,,,,271585,B,2024-08-01_11h43.09.351,EPIDM,2023.1.2,None,
2485.jpg,7350.jpg,0 Points,0 Points,356 points,PS2_L6.csv,,,,,,,,,,,,,,,,,,,,,,,,,,,,,0,5,5,5,0,19,19,19,,,,,,,,,,,,,,,,,,,1243.6499230829068,q,1.6209162091836333,1245.3843759999145,,,,,,271585,B,2024-08-01_11h43.09.351,EPIDM,2023.1.2,None,
2900.jpg,1101.jpg,3 Points,3 Points,359 points,PS2_L6.csv,,,,,,,,,,,,,,,,,,,,,,,,,,,,,0,5,5,5,0,20,20,20,,,,,,,,,,,,,,,,,,,1249.5870180830825,q,1.2126043762546033,1250.8751076669432,,,,,,271585,B,2024-08-01_11h43.09.351,EPIDM,2023.1.2,None,
7002.jpg,4660.jpg,4 Points,4 Points,363 points,PS2_L6.csv,,,,,,,,,,,,,,,,,,,,,,,,,,,,,0,5,5,5,0,21,21,21,,,,,,,,,,,,,,,,,,,1255.1204500419553,q,1.1907262920867652,1256.3974556250032,,,,,,271585,B,2024-08-01_11h43.09.351,EPIDM,2023.1.2,None,
A025.jpg,1051.jpg,0 Points,0 Points,363 points,PS2_L6.csv,,,,,,,,,,,,,,,,,,,,,,,,,,,,,0,5,5,5,0,22,22,22,,,,,,,,,,,,,,,,,,,1260.654191749869,p,1.968676167074591,1262.7483241669834,,,,,,271585,B,2024-08-01_11h43.09.351,EPIDM,2023.1.2,None,
4510.jpg,2230.jpg,5 Points,5 Points,368 points,PS2_L6.csv,,,,,,,,,,,,,,,,,,,,,,,,,,,,,0,5,5,5,0,23,23,23,,,,,,,,,,,,,,,,,,,1266.9366066670045,p,1.3426436251029372,1268.4032347500324,,,1278.84418212506,space,6.737416000105441,271585,B,2024-08-01_11h43.09.351,EPIDM,2023.1.2,None,
2383.jpg,1616.jpg,2 Points,2 Points,370 points,PS2_L7.csv,,,,,,,,,,,,,,,,,,,,,,,,,,,,,0,6,6,6,0,0,0,0,,,,,,,,,,,,,,,,,,,1288.9061842500232,q,1.8443215421866626,1290.8262213328853,,,,,,271585,B,2024-08-01_11h43.09.351,EPIDM,2023.1.2,None,
1310.jpg,3181.jpg,4 Points,4 Points,374 points,PS2_L7.csv,,,,,,,,,,,,,,,,,,,,,,,,,,,,,0,6,6,6,0,1,1,1,,,,,,,,,,,,,,,,,,,1295.0786492920015,q,1.0473437081091106,1296.1954239169136,4,0.9251692921388894,,,,271585,B,2024-08-01_11h43.09.351,EPIDM,2023.1.2,None,
7289.jpg,4534.jpg,0 Points,0 Points,374 points,PS2_L7.csv,,,,,,,,,,,,,,,,,,,,,,,,,,,,,0,6,6,6,0,2,2,2,,,,,,,,,,,,,,,,,,,1301.4324175419752,q,1.4781902090180665,1302.9925646670163,,,,,,271585,B,2024-08-01_11h43.09.351,EPIDM,2023.1.2,None,
6010.jpg,7361.jpg,2 Points,2 Points,376 points,PS2_L7.csv,,,,,,,,,,,,,,,,,,,,,,,,,,,,,0,6,6,6,0,3,3,3,,,,,,,,,,,,,,,,,,,1307.2441838330124,p,1.226328292163089,1308.5526645830832,,,,,,271585,B,2024-08-01_11h43.09.351,EPIDM,2023.1.2,None,
2661.jpg,2870.jpg,5 Points,5 Points,381 points,PS2_L7.csv,,,,,,,,,,,,,,,,,,,,,,,,,,,,,0,6,6,6,0,4,4,4,,,,,,,,,,,,,,,,,,,1312.8033529170789,p,1.4589346672873944,1314.3326893749181,,,,,,271585,B,2024-08-01_11h43.09.351,EPIDM,2023.1.2,None,
7220.jpg,8090.jpg,2 Points,2 Points,383 points,PS2_L7.csv,,,,,,,,,,,,,,,,,,,,,,,,,,,,,0,6,6,6,0,5,5,5,,,,,,,,,,,,,,,,,,,1318.5762577920686,p,1.8530537921469659,1320.4905681670643,,,,,,271585,B,2024-08-01_11h43.09.351,EPIDM,2023.1.2,None,
9140.jpg,2810.jpg,3 Points,3 Points,386 points,PS2_L7.csv,,,,,,,,,,,,,,,,,,,,,,,,,,,,,0,6,6,6,0,6,6,6,,,,,,,,,,,,,,,,,,,1324.737470791908,p,2.459772208938375,1327.2520366669632,,,,,,271585,B,2024-08-01_11h43.09.351,EPIDM,2023.1.2,None,
2516.jpg,8500.jpg,4 Points,4 Points,390 points,PS2_L7.csv,,,,,,,,,,,,,,,,,,,,,,,,,,,,,0,6,6,6,0,7,7,7,,,,,,,,,,,,,,,,,,,1331.5113717080094,q,1.7498960841912776,1333.327247374924,,,,,,271585,B,2024-08-01_11h43.09.351,EPIDM,2023.1.2,None,
9070.jpg,9420.jpg,2 Points,2 Points,392 points,PS2_L7.csv,,,,,,,,,,,,,,,,,,,,,,,,,,,,,0,6,6,6,0,8,8,8,,,,,,,,,,,,,,,,,,,1337.575717708096,q,1.7648288342170417,1339.4125737920403,,,,,,271585,B,2024-08-01_11h43.09.351,EPIDM,2023.1.2,None,
6561.jpg,1525.jpg,2 Points,2 Points,394 points,PS2_L7.csv,,,,,,,,,,,,,,,,,,,,,,,,,,,,,0,6,6,6,0,9,9,9,,,,,,,,,,,,,,,,,,,1343.6681358329952,q,0.968699875054881,1344.6942727500573,,,,,,271585,B,2024-08-01_11h43.09.351,EPIDM,2023.1.2,None,
7175.jpg,7490.jpg,2 Points,2 Points,396 points,PS2_L7.csv,,,,,,,,,,,,,,,,,,,,,,,,,,,,,0,6,6,6,0,10,10,10,,,,,,,,,,,,,,,,,,,1348.9548054579645,p,1.4501665001735091,1350.4723463330884,,,,,,271585,B,2024-08-01_11h43.09.351,EPIDM,2023.1.2,None,
8010.jpg,2630.jpg,0 Points,0 Points,396 points,PS2_L7.csv,,,,,,,,,,,,,,,,,,,,,,,,,,,,,0,6,6,6,0,11,11,11,,,,,,,,,,,,,,,,,,,1354.7248970419168,q,1.4083294172305614,1356.213456749916,,,,,,271585,B,2024-08-01_11h43.09.351,EPIDM,2023.1.2,None,
F174.jpg,9404.jpg,5 Points,5 Points,401 points,PS2_L7.csv,,,,,,,,,,,,,,,,,,,,,,,,,,,,,0,6,6,6,0,12,12,12,,,,,,,,,,,,,,,,,,,1360.4555019999389,q,1.0376524589955807,1361.6025682499167,,,,,,271585,B,2024-08-01_11h43.09.351,EPIDM,2023.1.2,None,
2692.jpg,8231.jpg,4 Points,4 Points,405 points,PS2_L7.csv,,,,,,,,,,,,,,,,,,,,,,,,,,,,,0,6,6,6,0,13,13,13,,,,,,,,,,,,,,,,,,,1365.8044139998965,q,1.615641166921705,1367.4764808749314,4,1.3146501672454178,,,,271585,B,2024-08-01_11h43.09.351,EPIDM,2023.1.2,None,
5994.jpg,5390.jpg,0 Points,0 Points,405 points,PS2_L7.csv,,,,,,,,,,,,,,,,,,,,,,,,,,,,,0,6,6,6,0,14,14,14,,,,,,,,,,,,,,,,,,,1373.10486387508,q,1.0607507498934865,1374.2216525000986,,,,,,271585,B,2024-08-01_11h43.09.351,EPIDM,2023.1.2,None,
9560.jpg,3071.jpg,1 Point,1 Point,406 points,PS2_L7.csv,,,,,,,,,,,,,,,,,,,,,,,,,,,,,0,6,6,6,0,15,15,15,,,,,,,,,,,,,,,,,,,1378.4801718750969,q,1.332069125259295,1379.88049637503,,,,,,271585,B,2024-08-01_11h43.09.351,EPIDM,2023.1.2,None,
9330.jpg,3015.jpg,5 Points,5 Points,411 points,PS2_L7.csv,,,,,,,,,,,,,,,,,,,,,,,,,,,,,0,6,6,6,0,16,16,16,,,,,,,,,,,,,,,,,,,1384.1285649170168,p,1.4669829169288278,1385.664017375093,,,,,,271585,B,2024-08-01_11h43.09.351,EPIDM,2023.1.2,None,
2389.jpg,7320.jpg,0 Points,0 Points,411 points,PS2_L7.csv,,,,,,,,,,,,,,,,,,,,,,,,,,,,,0,6,6,6,0,17,17,17,,,,,,,,,,,,,,,,,,,1389.9239309579134,p,1.8237552919890732,1391.8281367919408,,,,,,271585,B,2024-08-01_11h43.09.351,EPIDM,2023.1.2,None,
6570.1.jpg,9432.jpg,5 Points,5 Points,416 points,PS2_L7.csv,,,,,,,,,,,,,,,,,,,,,,,,,,,,,0,6,6,6,0,18,18,18,,,,,,,,,,,,,,,,,,,1396.0839587079827,p,1.824045917019248,1397.9754774579778,,,,,,271585,B,2024-08-01_11h43.09.351,EPIDM,2023.1.2,None,
9452.jpg,7184.jpg,4 Points,4 Points,420 points,PS2_L7.csv,,,,,,,,,,,,,,,,,,,,,,,,,,,,,0,6,6,6,0,19,19,19,,,,,,,,,,,,,,,,,,,1402.2257877918892,p,1.8733402921352535,1404.170218042098,,,,,,271585,B,2024-08-01_11h43.09.351,EPIDM,2023.1.2,None,
5120.jpg,5520.jpg,2 Points,2 Points,422 points,PS2_L7.csv,,,,,,,,,,,,,,,,,,,,,,,,,,,,,0,6,6,6,0,20,20,20,,,,,,,,,,,,,,,,,,,1408.4099420830607,q,1.9879614170640707,1410.479393583024,,,,,,271585,B,2024-08-01_11h43.09.351,EPIDM,2023.1.2,None,
5970.jpg,3300.jpg,0 Points,0 Points,422 points,PS2_L7.csv,,,,,,,,,,,,,,,,,,,,,,,,,,,,,0,6,6,6,0,21,21,21,,,,,,,,,,,,,,,,,,,1414.7231896668673,q,1.767748667160049,1416.5592227499,,,,,,271585,B,2024-08-01_11h43.09.351,EPIDM,2023.1.2,None,
7620.jpg,5395.jpg,1 Point,1 Point,423 points,PS2_L7.csv,,,,,,,,,,,,,,,,,,,,,,,,,,,,,0,6,6,6,0,22,22,22,,,,,,,,,,,,,,,,,,,1420.806781792082,p,1.9316966668702662,1422.8085258330684,,,,,,271585,B,2024-08-01_11h43.09.351,EPIDM,2023.1.2,None,
P019.jpg,F158.jpg,3 Points,3 Points,426 points,PS2_L7.csv,,,,,,,,,,,,,,,,,,,,,,,,,,,,,0,6,6,6,0,23,23,23,,,,,,,,,,,,,,,,,,,1427.0625004169997,p,1.6841037080157548,1428.8829222079366,,,1439.277883166913,space,10.916169917210937,271585,B,2024-08-01_11h43.09.351,EPIDM,2023.1.2,None,
2620.jpg,2594.jpg,0 Points,0 Points,426 points,PS2_L8.csv,,,,,,,,,,,,,,,,,,,,,,,,,,,,,0,7,7,7,0,0,0,0,,,,,,,,,,,,,,,,,,,1453.5174154168926,p,1.964676125207916,1455.605694750091,,,,,,271585,B,2024-08-01_11h43.09.351,EPIDM,2023.1.2,None,
F369.jpg,3100.jpg,2 Points,2 Points,428 points,PS2_L8.csv,,,,,,,,,,,,,,,,,,,,,,,,,,,,,0,7,7,7,0,1,1,1,,,,,,,,,,,,,,,,,,,1459.808154416969,q,1.289698583073914,1461.1979711670429,2,0.5558071250561625,,,,271585,B,2024-08-01_11h43.09.351,EPIDM,2023.1.2,None,
1052.jpg,1201.jpg,3 Points,3 Points,431 points,PS2_L8.csv,,,,,,,,,,,,,,,,,,,,,,,,,,,,,0,7,7,7,0,2,2,2,,,,,,,,,,,,,,,,,,,1466.075222583022,p,0.9980444998946041,1467.1774505418725,,,,,,271585,B,2024-08-01_11h43.09.351,EPIDM,2023.1.2,None,
2606.jpg,2480.jpg,1 Point,1 Point,432 points,PS2_L8.csv,,,,,,,,,,,,,,,,,,,,,,,,,,,,,0,7,7,7,0,3,3,3,,,,,,,,,,,,,,,,,,,1471.397135291947,p,1.7085792089346796,1473.1649107919075,,,,,,271585,B,2024-08-01_11h43.09.351,EPIDM,2023.1.2,None,
9594.jpg,1080.jpg,4 Points,4 Points,436 points,PS2_L8.csv,,,,,,,,,,,,,,,,,,,,,,,,,,,,,0,7,7,7,0,4,4,4,,,,,,,,,,,,,,,,,,,1477.428628708003,q,1.2604123339988291,1478.7692559580319,,,,,,271585,B,2024-08-01_11h43.09.351,EPIDM,2023.1.2,None,
4770.jpg,4275.jpg,3 Points,3 Points,439 points,PS2_L8.csv,,,,,,,,,,,,,,,,,,,,,,,,,,,,,0,7,7,7,0,5,5,5,,,,,,,,,,,,,,,,,,,1483.007664707955,q,1.6407317919656634,1484.7351748330984,,,,,,271585,B,2024-08-01_11h43.09.351,EPIDM,2023.1.2,None,
P077.jpg,A041.jpg,1 Point,1 Point,440 points,PS2_L8.csv,,,,,,,,,,,,,,,,,,,,,,,,,,,,,0,7,7,7,0,6,6,6,,,,,,,,,,,,,,,,,,,1488.9819507920183,p,1.7809333752375096,1490.9095003330149,,,,,,271585,B,2024-08-01_11h43.09.351,EPIDM,2023.1.2,None,
6550.jpg,9582.jpg,5 Points,5 Points,445 points,PS2_L8.csv,,,,,,,,,,,,,,,,,,,,,,,,,,,,,0,7,7,7,0,7,7,7,,,,,,,,,,,,,,,,,,,1495.0908564580604,p,1.6302326249424368,1496.8368614579085,,,,,,271585,B,2024-08-01_11h43.09.351,EPIDM,2023.1.2,None,
8040.jpg,7185.jpg,1 Point,1 Point,446 points,PS2_L8.csv,,,,,,,,,,,,,,,,,,,,,,,,,,,,,0,7,7,7,0,8,8,8,,,,,,,,,,,,,,,,,,,1501.0482775829732,p,1.7134933341294527,1502.8448694169056,,,,,,271585,B,2024-08-01_11h43.09.351,EPIDM,2023.1.2,None,
P233.jpg,3060.jpg,1 Point,1 Point,447 points,PS2_L8.csv,,,,,,,,,,,,,,,,,,,,,,,,,,,,,0,7,7,7,0,9,9,9,,,,,,,,,,,,,,,,,,,1507.0815726250876,p,2.5037047499790788,1509.6957975418773,,,,,,271585,B,2024-08-01_11h43.09.351,EPIDM,2023.1.2,None,
1090.jpg,P217.jpg,5 Points,5 Points,452 points,PS2_L8.csv,,,,,,,,,,,,,,,,,,,,,,,,,,,,,0,7,7,7,0,10,10,10,,,,,,,,,,,,,,,,,,,1513.8935507079586,q,1.3551225010305643,1515.3726657079533,,,,,,271585,B,2024-08-01_11h43.09.351,EPIDM,2023.1.2,None,
9405.jpg,6250.2.jpg,3 Points,3 Points,455 points,PS2_L8.csv,,,,,,,,,,,,,,,,,,,,,,,,,,,,,0,7,7,7,0,11,11,11,,,,,,,,,,,,,,,,,,,1519.5709063329268,p,1.7491206261329353,1521.398791207932,,,,,,271585,B,2024-08-01_11h43.09.351,EPIDM,2023.1.2,None,
1610.jpg,F203.jpg,0 Points,0 Points,455 points,PS2_L8.csv,,,,,,,,,,,,,,,,,,,,,,,,,,,,,0,7,7,7,0,12,12,12,,,,,,,,,,,,,,,,,,,1525.6421039579436,q,1.6459532510489225,1527.402619499946,,,,,,271585,B,2024-08-01_11h43.09.351,EPIDM,2023.1.2,None,
P222.jpg,9401.jpg,2 Points,2 Points,457 points,PS2_L8.csv,,,,,,,,,,,,,,,,,,,,,,,,,,,,,0,7,7,7,0,13,13,13,,,,,,,,,,,,,,,,,,,1531.6133066669572,p,1.7552786669693887,1533.4825987080112,3,2.1829554170835763,,,,271585,B,2024-08-01_11h43.09.351,EPIDM,2023.1.2,None,
5471.jpg,7352.jpg,2 Points,2 Points,459 points,PS2_L8.csv,,,,,,,,,,,,,,,,,,,,,,,,,,,,,0,7,7,7,0,14,14,14,,,,,,,,,,,,,,,,,,,1539.9966354169883,q,3.602903417078778,1543.6768220830709,,,,,,271585,B,2024-08-01_11h43.09.351,EPIDM,2023.1.2,None,
9042.jpg,2753.jpg,0 Points,0 Points,459 points,PS2_L8.csv,,,,,,,,,,,,,,,,,,,,,,,,,,,,,0,7,7,7,0,15,15,15,,,,,,,,,,,,,,,,,,,1547.9164249580353,q,1.9233921251725405,1549.9029168330599,,,,,,271585,B,2024-08-01_11h43.09.351,EPIDM,2023.1.2,None,
8311.jpg,4609.jpg,2 Points,2 Points,461 points,PS2_L8.csv,,,,,,,,,,,,,,,,,,,,,,,,,,,,,0,7,7,7,0,16,16,16,,,,,,,,,,,,,,,,,,,1554.155583292013,q,1.4436217090114951,1555.6709691248834,,,,,,271585,B,2024-08-01_11h43.09.351,EPIDM,2023.1.2,None,
2320.jpg,2791.jpg,4 Points,4 Points,465 points,PS2_L8.csv,,,,,,,,,,,,,,,,,,,,,,,,,,,,,0,7,7,7,0,17,17,17,,,,,,,,,,,,,,,,,,,1559.9292577500455,q,1.5828422501217574,1561.580904708011,,,,,,271585,B,2024-08-01_11h43.09.351,EPIDM,2023.1.2,None,
F365.jpg,3180.jpg,5 Points,5 Points,470 points,PS2_L8.csv,,,,,,,,,,,,,,,,,,,,,,,,,,,,,0,7,7,7,0,18,18,18,,,,,,,,,,,,,,,,,,,1565.8259676250163,q,1.1492325831204653,1567.078921499895,,,,,,271585,B,2024-08-01_11h43.09.351,EPIDM,2023.1.2,None,
9300.jpg,1050.jpg,4 Points,4 Points,474 points,PS2_L8.csv,,,,,,,,,,,,,,,,,,,,,,,,,,,,,0,7,7,7,0,19,19,19,,,,,,,,,,,,,,,,,,,1571.2964332920965,p,1.574170459061861,1572.966483874945,,,,,,271585,B,2024-08-01_11h43.09.351,EPIDM,2023.1.2,None,
6150.jpg,2206.jpg,0 Points,0 Points,474 points,PS2_L8.csv,,,,,,,,,,,,,,,,,,,,,,,,,,,,,0,7,7,7,0,20,20,20,,,,,,,,,,,,,,,,,,,1577.195528042037,q,1.8675498340744525,1579.1407294580713,,,,,,271585,B,2024-08-01_11h43.09.351,EPIDM,2023.1.2,None,
6260.jpg,3062.jpg,3 Points,3 Points,477 points,PS2_L8.csv,,,,,,,,,,,,,,,,,,,,,,,,,,,,,0,7,7,7,0,21,21,21,,,,,,,,,,,,,,,,,,,1583.3822980830446,p,1.0171157501172274,1584.4699514580425,,,,,,271585,B,2024-08-01_11h43.09.351,EPIDM,2023.1.2,None,
6571.jpg,P237.jpg,2 Points,2 Points,479 points,PS2_L8.csv,,,,,,,,,,,,,,,,,,,,,,,,,,,,,0,7,7,7,0,22,22,22,,,,,,,,,,,,,,,,,,,1588.7201375418808,p,1.3190045421943069,1590.157736208057,,,,,,271585,B,2024-08-01_11h43.09.351,EPIDM,2023.1.2,None,
7283.jpg,1720.jpg,4 Points,4 Points,483 points,PS2_L8.csv,,,,,,,,,,,,,,,,,,,,,,,,,,,,,0,7,7,7,0,23,23,23,,,,,,,,,,,,,,,,,,,1594.3791065420955,q,1.1073897511232644,1595.6069469579961,,,1606.0157120830845,space,8.950496166944504,271585,B,2024-08-01_11h43.09.351,EPIDM,2023.1.2,None,
3160.jpg,6210.jpg,1 Point,1 Point,484 points,PS2_L9.csv,,,,,,,,,,,,,,,,,,,,,,,,,,,,,0,8,8,8,0,0,0,0,,,,,,,,,,,,,,,,,,,1618.3119755829684,p,1.558765834197402,1619.9487958329264,,,,,,271585,B,2024-08-01_11h43.09.351,EPIDM,2023.1.2,None,
2100.jpg,7205.jpg,5 Points,5 Points,489 points,PS2_L9.csv,,,,,,,,,,,,,,,,,,,,,,,,,,,,,0,8,8,8,0,1,1,1,,,,,,,,,,,,,,,,,,,1624.1941012078896,q,1.5082337502390146,1625.7790925418958,5,0.787092792103067,,,,271585,B,2024-08-01_11h43.09.351,EPIDM,2023.1.2,None,
9110.jpg,3051.jpg,1 Point,1 Point,490 points,PS2_L9.csv,,,,,,,,,,,,,,,,,,,,,,,,,,,,,0,8,8,8,0,2,2,2,,,,,,,,,,,,,,,,,,,1630.911769791972,q,1.13305479218252,1632.128129541874,,,,,,271585,B,2024-08-01_11h43.09.351,EPIDM,2023.1.2,None,
9101.jpg,9571.jpg,2 Points,2 Points,492 points,PS2_L9.csv,,,,,,,,,,,,,,,,,,,,,,,,,,,,,0,8,8,8,0,3,3,3,,,,,,,,,,,,,,,,,,,1636.3701387920883,p,0.8048228330444545,1637.2529489998706,,,,,,271585,B,2024-08-01_11h43.09.351,EPIDM,2023.1.2,None,
5410.jpg,1450.jpg,5 Points,5 Points,497 points,PS2_L9.csv,,,,,,,,,,,,,,,,,,,,,,,,,,,,,0,8,8,8,0,4,4,4,,,,,,,,,,,,,,,,,,,1641.5011009580921,q,0.8005347920116037,1642.360693332972,,,,,,271585,B,2024-08-01_11h43.09.351,EPIDM,2023.1.2,None,
F149.jpg,3030.jpg,0 Points,0 Points,497 points,PS2_L9.csv,,,,,,,,,,,,,,,,,,,,,,,,,,,,,0,8,8,8,0,5,5,5,,,,,,,,,,,,,,,,,,,1646.6149933328852,q,1.0466372922528535,1647.7741074999794,,,,,,271585,B,2024-08-01_11h43.09.351,EPIDM,2023.1.2,None,
3266.jpg,7360.jpg,1 Point,1 Point,498 points,PS2_L9.csv,,,,,,,,,,,,,,,,,,,,,,,,,,,,,0,8,8,8,0,6,6,6,,,,,,,,,,,,,,,,,,,1651.992034957977,q,0.9415017501451075,1653.0095205418766,,,,,,271585,B,2024-08-01_11h43.09.351,EPIDM,2023.1.2,None,
5660.jpg,5201.jpg,0 Points,0 Points,498 points,PS2_L9.csv,,,,,,,,,,,,,,,,,,,,,,,,,,,,,0,8,8,8,0,7,7,7,,,,,,,,,,,,,,,,,,,1657.2775963330641,q,1.5431000841781497,1658.8946721248794,,,,,,271585,B,2024-08-01_11h43.09.351,EPIDM,2023.1.2,None,
1945.jpg,2800.jpg,4 Points,4 Points,502 points,PS2_L9.csv,,,,,,,,,,,,,,,,,,,,,,,,,,,,,0,8,8,8,0,8,8,8,,,,,,,,,,,,,,,,,,,1663.1342089169193,q,1.1420709590893239,1664.347968207905,,,,,,271585,B,2024-08-01_11h43.09.351,EPIDM,2023.1.2,None,
3000.jpg,6200.jpg,5 Points,5 Points,507 points,PS2_L9.csv,,,,,,,,,,,,,,,,,,,,,,,,,,,,,0,8,8,8,0,9,9,9,,,,,,,,,,,,,,,,,,,1668.6006206669845,p,1.8120886669494212,1670.49826854188,,,,,,271585,B,2024-08-01_11h43.09.351,EPIDM,2023.1.2,None,
2215.jpg,2512.jpg,1 Point,1 Point,508 points,PS2_L9.csv,,,,,,,,,,,,,,,,,,,,,,,,,,,,,0,8,8,8,0,10,10,10,,,,,,,,,,,,,,,,,,,1674.739284374984,p,1.8418806672561914,1676.6491333749145,,,,,,271585,B,2024-08-01_11h43.09.351,EPIDM,2023.1.2,None,
5460.jpg,5800.jpg,0 Points,0 Points,508 points,PS2_L9.csv,,,,,,,,,,,,,,,,,,,,,,,,,,,,,0,8,8,8,0,11,11,11,,,,,,,,,,,,,,,,,,,1680.9094314998947,p,1.6865044590085745,1682.6855694579426,,,,,,271585,B,2024-08-01_11h43.09.351,EPIDM,2023.1.2,None,
3061.jpg,2717.jpg,4 Points,4 Points,512 points,PS2_L9.csv,,,,,,,,,,,,,,,,,,,,,,,,,,,,,0,8,8,8,0,12,12,12,,,,,,,,,,,,,,,,,,,1686.9227266670205,p,2.169047250179574,1689.165217249887,,,,,,271585,B,2024-08-01_11h43.09.351,EPIDM,2023.1.2,None,
7380.jpg,1220.jpg,1 Point,1 Point,513 points,PS2_L9.csv,,,,,,,,,,,,,,,,,,,,,,,,,,,,,0,8,8,8,0,13,13,13,,,,,,,,,,,,,,,,,,,1693.4170448330697,q,1.7310845840256661,1695.2122964579612,1,1.0812986250966787,,,,271585,B,2024-08-01_11h43.09.351,EPIDM,2023.1.2,None,
1740.jpg,7480.jpg,0 Points,0 Points,513 points,PS2_L9.csv,,,,,,,,,,,,,,,,,,,,,,,,,,,,,0,8,8,8,0,14,14,14,,,,,,,,,,,,,,,,,,,1700.626385957934,q,1.52218595915474,1702.2233187500387,,,,,,271585,B,2024-08-01_11h43.09.351,EPIDM,2023.1.2,None,
7285.jpg,4233.jpg,5 Points,5 Points,518 points,PS2_L9.csv,,,,,,,,,,,,,,,,,,,,,,,,,,,,,0,8,8,8,0,15,15,15,,,,,,,,,,,,,,,,,,,1706.4795136670582,q,1.2288330001756549,1707.7925302078947,,,,,,271585,B,2024-08-01_11h43.09.351,EPIDM,2023.1.2,None,
6830.jpg,6212.jpg,4 Points,4 Points,522 points,PS2_L9.csv,,,,,,,,,,,,,,,,,,,,,,,,,,,,,0,8,8,8,0,16,16,16,,,,,,,,,,,,,,,,,,,1712.038334999932,p,0.9097006670199335,1713.0221875829156,,,,,,271585,B,2024-08-01_11h43.09.351,EPIDM,2023.1.2,None,
7830.jpg,2499.jpg,3 Points,3 Points,525 points,PS2_L9.csv,,,,,,,,,,,,,,,,,,,,,,,,,,,,,0,8,8,8,0,17,17,17,,,,,,,,,,,,,,,,,,,1717.2727905830834,q,0.9534577091690153,1718.3049450828694,,,,,,271585,B,2024-08-01_11h43.09.351,EPIDM,2023.1.2,None,
9520.jpg,1931.jpg,3 Points,3 Points,528 points,PS2_L9.csv,,,,,,,,,,,,,,,,,,,,,,,,,,,,,0,8,8,8,0,18,18,18,,,,,,,,,,,,,,,,,,,1722.552666875068,q,1.187190875178203,1723.8025708750356,,,,,,271585,B,2024-08-01_11h43.09.351,EPIDM,2023.1.2,None,
9160.jpg,1200.jpg,4 Points,4 Points,532 points,PS2_L9.csv,,,,,,,,,,,,,,,,,,,,,,,,,,,,,0,8,8,8,0,19,19,19,,,,,,,,,,,,,,,,,,,1728.0624600830488,q,1.4942256670910865,1729.646687041968,,,,,,271585,B,2024-08-01_11h43.09.351,EPIDM,2023.1.2,None,
2020.jpg,1947.jpg,5 Points,5 Points,537 points,PS2_L9.csv,,,,,,,,,,,,,,,,,,,,,,,,,,,,,0,8,8,8,0,20,20,20,,,,,,,,,,,,,,,,,,,1733.8950734168757,q,1.0041876670438796,1734.9794890829362,,,,,,271585,B,2024-08-01_11h43.09.351,EPIDM,2023.1.2,None,
4535.jpg,1811.jpg,1 Point,1 Point,538 points,PS2_L9.csv,,,,,,,,,,,,,,,,,,,,,,,,,,,,,0,8,8,8,0,21,21,21,,,,,,,,,,,,,,,,,,,1739.2320860829204,q,1.514781542122364,1740.8162822499871,,,,,,271585,B,2024-08-01_11h43.09.351,EPIDM,2023.1.2,None,
9910.jpg,6940.jpg,2 Points,2 Points,540 points,PS2_L9.csv,,,,,,,,,,,,,,,,,,,,,,,,,,,,,0,8,8,8,0,22,22,22,,,,,,,,,,,,,,,,,,,1745.0553840419743,q,1.3317703751381487,1746.4577623750083,,,,,,271585,B,2024-08-01_11h43.09.351,EPIDM,2023.1.2,None,
9480.jpg,9250.jpg,0 Points,0 Points,540 points,PS2_L9.csv,,,,,,,,,,,,,,,,,,,,,,,,,,,,,0,8,8,8,0,23,23,23,,,,,,,,,,,,,,,,,,,1750.7246080420446,p,2.206448083044961,1752.9894125000574,,,1763.4963178329635,space,12.393266167026013,271585,B,2024-08-01_11h43.09.351,EPIDM,2023.1.2,None,
1660.jpg,2840.jpg,2 Points,2 Points,542 points,PS2_L10.csv,,,,,,,,,,,,,,,,,,,,,,,,,,,,,0,9,9,9,0,0,0,0,,,,,,,,,,,,,,,,,,,1779.2246788749471,q,0.6813770420849323,1779.9787425000686,,,,,,271585,B,2024-08-01_11h43.09.351,EPIDM,2023.1.2,None,
2691.jpg,7640.jpg,0 Points,0 Points,542 points,PS2_L10.csv,,,,,,,,,,,,,,,,,,,,,,,,,,,,,0,9,9,9,0,1,1,1,,,,,,,,,,,,,,,,,,,1784.2237403749023,p,1.4344227511901408,1785.727282000007,0,0.9490809580311179,,,,271585,B,2024-08-01_11h43.09.351,EPIDM,2023.1.2,None,
9180.jpg,9046.jpg,3 Points,3 Points,545 points,PS2_L10.csv,,,,,,,,,,,,,,,,,,,,,,,,,,,,,0,9,9,9,0,2,2,2,,,,,,,,,,,,,,,,,,,1790.9871152918786,q,0.6296028331853449,1791.6893392500933,,,,,,271585,B,2024-08-01_11h43.09.351,EPIDM,2023.1.2,None,
8041.jpg,2271.jpg,2 Points,2 Points,547 points,PS2_L10.csv,,,,,,,,,,,,,,,,,,,,,,,,,,,,,0,9,9,9,0,3,3,3,,,,,,,,,,,,,,,,,,,1795.9365641670302,p,0.769281541928649,1796.7811472499743,,,,,,271585,B,2024-08-01_11h43.09.351,EPIDM,2023.1.2,None,
1661.jpg,1321.jpg,3 Points,3 Points,550 points,PS2_L10.csv,,,,,,,,,,,,,,,,,,,,,,,,,,,,,0,9,9,9,0,4,4,4,,,,,,,,,,,,,,,,,,,1801.0407155419234,q,1.3765031669754535,1802.4878171249293,,,,,,271585,B,2024-08-01_11h43.09.351,EPIDM,2023.1.2,None,
9430.jpg,3010.jpg,5 Points,5 Points,555 points,PS2_L10.csv,,,,,,,,,,,,,,,,,,,,,,,,,,,,,0,9,9,9,0,5,5,5,,,,,,,,,,,,,,,,,,,1806.7467297080439,q,1.0942429171409458,1807.8988175829872,,,,,,271585,B,2024-08-01_11h43.09.351,EPIDM,2023.1.2,None,
2616.jpg,7238.jpg,4 Points,4 Points,559 points,PS2_L10.csv,,,,,,,,,,,,,,,,,,,,,,,,,,,,,0,9,9,9,0,6,6,6,,,,,,,,,,,,,,,,,,,1812.152837707894,p,1.2800723330583423,1813.5046864580363,,,,,,271585,B,2024-08-01_11h43.09.351,EPIDM,2023.1.2,None,
9470.jpg,9400.jpg,3 Points,3 Points,562 points,PS2_L10.csv,,,,,,,,,,,,,,,,,,,,,,,,,,,,,0,9,9,9,0,7,7,7,,,,,,,,,,,,,,,,,,,1817.7579355419148,p,1.8499320421833545,1819.673641917063,,,,,,271585,B,2024-08-01_11h43.09.351,EPIDM,2023.1.2,None,
8260.jpg,8280.jpg,3 Points,3 Points,565 points,PS2_L10.csv,,,,,,,,,,,,,,,,,,,,,,,,,,,,,0,9,9,9,0,8,8,8,,,,,,,,,,,,,,,,,,,1823.9337932919152,p,1.4371841249521822,1825.440524250036,,,,,,271585,B,2024-08-01_11h43.09.351,EPIDM,2023.1.2,None,
9230.jpg,9181.jpg,0 Points,0 Points,565 points,PS2_L10.csv,,,,,,,,,,,,,,,,,,,,,,,,,,,,,0,9,9,9,0,9,9,9,,,,,,,,,,,,,,,,,,,1829.7032894580625,q,1.6090042919386178,1831.3788904580288,,,,,,271585,B,2024-08-01_11h43.09.351,EPIDM,2023.1.2,None,
6834.jpg,9120.jpg,5 Points,5 Points,570 points,PS2_L10.csv,,,,,,,,,,,,,,,,,,,,,,,,,,,,,0,9,9,9,0,10,10,10,,,,,,,,,,,,,,,,,,,1835.632545917062,q,1.671847625169903,1837.369349458022,,,,,,271585,B,2024-08-01_11h43.09.351,EPIDM,2023.1.2,None,
2440.jpg,7351.jpg,4 Points,4 Points,574 points,PS2_L10.csv,,,,,,,,,,,,,,,,,,,,,,,,,,,,,0,9,9,9,0,11,11,11,,,,,,,,,,,,,,,,,,,1841.6257077080663,q,1.5269462512806058,1843.2246872920077,,,,,,271585,B,2024-08-01_11h43.09.351,EPIDM,2023.1.2,None,
9280.jpg,9390.jpg,1 Point,1 Point,575 points,PS2_L10.csv,,,,,,,,,,,,,,,,,,,,,,,,,,,,,0,9,9,9,0,12,12,12,,,,,,,,,,,,,,,,,,,1847.4643120418768,p,2.431404124945402,1849.9681784580462,,,,,,271585,B,2024-08-01_11h43.09.351,EPIDM,2023.1.2,None,
7186.jpg,9182.jpg,2 Points,2 Points,577 points,PS2_L10.csv,,,,,,,,,,,,,,,,,,,,,,,,,,,,,0,9,9,9,0,13,13,13,,,,,,,,,,,,,,,,,,,1854.2121876250021,p,1.6914187090005726,1855.9927485000808,2,1.0565638339612633,,,,271585,B,2024-08-01_11h43.09.351,EPIDM,2023.1.2,None,
7820.jpg,1121.jpg,0 Points,0 Points,577 points,PS2_L10.csv,,,,,,,,,,,,,,,,,,,,,,,,,,,,,0,9,9,9,0,14,14,14,,,,,,,,,,,,,,,,,,,1861.3855259169359,q,1.1493938341736794,1862.6115536249708,,,,,,271585,B,2024-08-01_11h43.09.351,EPIDM,2023.1.2,None,
1110.jpg,9331.jpg,2 Points,2 Points,579 points,PS2_L10.csv,,,,,,,,,,,,,,,,,,,,,,,,,,,,,0,9,9,9,0,15,15,15,,,,,,,,,,,,,,,,,,,1866.8476557079703,p,0.9836783329956234,1867.8987499580253,,,,,,271585,B,2024-08-01_11h43.09.351,EPIDM,2023.1.2,None,
9001.jpg,9620.jpg,1 Point,1 Point,580 points,PS2_L10.csv,,,,,,,,,,,,,,,,,,,,,,,,,,,,,0,9,9,9,0,16,16,16,,,,,,,,,,,,,,,,,,,1872.149005125044,q,1.4040485832374543,1873.627710333094,,,,,,271585,B,2024-08-01_11h43.09.351,EPIDM,2023.1.2,None,
5535.jpg,8210.jpg,3 Points,3 Points,583 points,PS2_L10.csv,,,,,,,,,,,,,,,,,,,,,,,,,,,,,0,9,9,9,0,17,17,17,,,,,,,,,,,,,,,,,,,1877.8650145828724,p,1.206603999948129,1879.1403921248857,,,,,,271585,B,2024-08-01_11h43.09.351,EPIDM,2023.1.2,None,
7950.jpg,7187.jpg,1 Point,1 Point,584 points,PS2_L10.csv,,,,,,,,,,,,,,,,,,,,,,,,,,,,,0,9,9,9,0,18,18,18,,,,,,,,,,,,,,,,,,,1883.387594500091,q,1.0995969590730965,1884.5590355829336,,,,,,271585,B,2024-08-01_11h43.09.351,EPIDM,2023.1.2,None,
3250.jpg,A053.jpg,3 Points,3 Points,587 points,PS2_L10.csv,,,,,,,,,,,,,,,,,,,,,,,,,,,,,0,9,9,9,0,19,19,19,,,,,,,,,,,,,,,,,,,1888.8035548329353,q,1.2758520420175046,1890.1904192080256,,,,,,271585,B,2024-08-01_11h43.09.351,EPIDM,2023.1.2,None,
2205.jpg,3053.jpg,4 Points,4 Points,591 points,PS2_L10.csv,,,,,,,,,,,,,,,,,,,,,,,,,,,,,0,9,9,9,0,20,20,20,,,,,,,,,,,,,,,,,,,1894.4112847920042,q,1.1238153751473874,1895.6308194999583,,,,,,271585,B,2024-08-01_11h43.09.351,EPIDM,2023.1.2,None,
5594.jpg,5750.jpg,5 Points,5 Points,596 points,PS2_L10.csv,,,,,,,,,,,,,,,,,,,,,,,,,,,,,0,9,9,9,0,21,21,21,,,,,,,,,,,,,,,,,,,1899.8473870418966,q,0.9835995421744883,1900.904625041876,,,,,,271585,B,2024-08-01_11h43.09.351,EPIDM,2023.1.2,None,
6900.jpg,8531.jpg,4 Points,4 Points,600 points,PS2_L10.csv,,,,,,,,,,,,,,,,,,,,,,,,,,,,,0,9,9,9,0,22,22,22,,,,,,,,,,,,,,,,,,,1905.144202833064,p,1.2463676671031862,1906.4581597079523,,,,,,271585,B,2024-08-01_11h43.09.351,EPIDM,2023.1.2,None,
1019.jpg,2120.jpg,0 Points,0 Points,600 points,PS2_L10.csv,,,,,,,,,,,,,,,,,,,,,,,,,,,,,0,9,9,9,0,23,23,23,,,,,,,,,,,,,,,,,,,1910.7003520000726,q,1.834997541969642,1912.624220292084,,,1923.1002919999883,space,5.786673542112112,271585,B,2024-08-01_11h43.09.351,EPIDM,2023.1.2,None,
