L_Scene,R_Scene,Points_L,Points_R,PtTotal,blockFile,Instructions_Loop.thisRepN,Instructions_Loop.thisTrialN,Instructions_Loop.thisN,Instructions_Loop.thisIndex,Redo_Instructions_Loop.thisRepN,Redo_Instructions_Loop.thisTrialN,Redo_Instructions_Loop.thisN,Redo_Instructions_Loop.thisIndex,Practice_Encoding_Loop.thisRepN,Practice_Encoding_Loop.thisTrialN,Practice_Encoding_Loop.thisN,Practice_Encoding_Loop.thisIndex,Practice_Response_Fail_Loop.thisRepN,Practice_Response_Fail_Loop.thisTrialN,Practice_Response_Fail_Loop.thisN,Practice_Response_Fail_Loop.thisIndex,Practice_FB_Loop.thisRepN,Practice_FB_Loop.thisTrialN,Practice_FB_Loop.thisN,Practice_FB_Loop.thisIndex,Practice_Attention_Loop.thisRepN,Practice_Attention_Loop.thisTrialN,Practice_Attention_Loop.thisN,Practice_Attention_Loop.thisIndex,Practice_EncBrk_Loop.thisRepN,Practice_EncBrk_Loop.thisTrialN,Practice_EncBrk_Loop.thisN,Practice_EncBrk_Loop.thisIndex,Encoding_Loop.thisRepN,Encoding_Loop.thisTrialN,Encoding_Loop.thisN,Encoding_Loop.thisIndex,EncStim_Loop.thisRepN,EncStim_Loop.thisTrialN,EncStim_Loop.thisN,EncStim_Loop.thisIndex,Response_Fail_Loop.thisRepN,Response_Fail_Loop.thisTrialN,Response_Fail_Loop.thisN,Response_Fail_Loop.thisIndex,FB_Loop.thisRepN,FB_Loop.thisTrialN,FB_Loop.thisN,FB_Loop.thisIndex,Attention_Loop.thisRepN,Attention_Loop.thisTrialN,Attention_Loop.thisN,Attention_Loop.thisIndex,EncBrk_Loop.thisRepN,EncBrk_Loop.thisTrialN,EncBrk_Loop.thisN,EncBrk_Loop.thisIndex,Transition_Enc.keys,Transition_Enc.rt,Encoding_Resp.started,Encoding_Resp.keys,Encoding_Resp.rt,R_Point_FB_Stim.started,Attn_resp.keys,Attn_resp.rt,Progress_Tracker.started,EncBrk_Resp.keys,EncBrk_Resp.rt,participant,Group,date,expName,psychopyVersion,frameRate,
,,,,,,,,,,,,,,,,,,,,,,,,,,,,,,,,,,,,,,,,,,,,,,,,,,,,,,,,,,space,10.365292750298977,,,,,,,,,,271402,B,2024-08-01_15h29.33.916,EPIDM,2023.1.2,None,
A060.jpg,F041.jpg,5 Points,5 Points,5 Points,,,,,,,,,,0,0,0,0,,,,,,,,,,,,,,,,,,,,,,,,,,,,,,,,,,,,,,,,,,,311.9118015829008,p,1.7257293749134988,313.792407957837,,,,,,271402,B,2024-08-01_15h29.33.916,EPIDM,2023.1.2,None,
O161.jpg,1812.jpg,2 Points,2 Points,7 Points,,,,,,,,,,0,1,1,1,,,,,,,,,,,,,,,,,,,,,,,,,,,,,,,,,,,,,,,,,,,317.9528328329325,p,1.7800370419863611,319.89299158286303,,,,,,271402,B,2024-08-01_15h29.33.916,EPIDM,2023.1.2,None,
O013.jpg,A001.jpg,3 Points,3 Points,10 Points,,,,,,,,,,0,2,2,2,,,,,,,,,,,,,,,,,,,,,,,,,,,,,,,,,,,,,,,,,,,324.05216787499376,q,1.8415699999313802,326.0435293749906,,,,,,271402,B,2024-08-01_15h29.33.916,EPIDM,2023.1.2,None,
P036.jpg,F273.jpg,5 Points,5 Points,15 Points,,,,,,,,,,0,3,3,3,,,,,,,,,,,,,,,,,,,,,,,,,,,,,,,,,,,,,,,,,,,330.22655254183337,p,1.1860623750835657,331.58344833296724,,,,,,271402,B,2024-08-01_15h29.33.916,EPIDM,2023.1.2,None,
L130.jpg,2393.jpg,0 Points,0 Points,15 Points,,,,,,,,,,0,4,4,4,,,,,,,,,,,,,,,,,,,,,,,,,,,,,,,,,,,,,,,,,,,335.7412544998806,q,1.5109195839613676,337.40045945788734,0,8.874841167125851,,,,271402,B,2024-08-01_15h29.33.916,EPIDM,2023.1.2,None,
F279.jpg,P033.jpg,3 Points,3 Points,18 Points,,,,,,,,,,0,5,5,5,,,,,,,,,,,,,,,,,,,,,,,,,,,,,,,,,,,,,,,,,,,350.55664583295584,None,,,,,,,,271402,B,2024-08-01_15h29.33.916,EPIDM,2023.1.2,None,
A104.jpg,2593.jpg,2 Points,2 Points,20 Points,,,,,,,,,,0,6,6,6,,,,,,,,,,,,,,,,,,,,,,,,,,,,,,,,,,,,,,,,,,,358.05394495790824,p,0.6308356260415167,358.83009983296506,,,,,,271402,B,2024-08-01_15h29.33.916,EPIDM,2023.1.2,None,
2598.jpg,2605.jpg,0 Points,0 Points,20 Points,,,,,,,,,,0,7,7,7,,,,,,,,,,,,,,,,,,,,,,,,,,,,,,,,,,,,,,,,,,,363.01020129187964,q,0.4020342919975519,363.47001712489873,,,,,,271402,B,2024-08-01_15h29.33.916,EPIDM,2023.1.2,None,
L005.jpg,O011.jpg,1 Points,1 Points,21 Points,,,,,,,,,,0,8,8,8,,,,,,,,,,,,,,,,,,,,,,,,,,,,,,,,,,,,,,,,,,,367.7203294169158,p,2.0223546251654625,369.8735232499894,,,,,,271402,B,2024-08-01_15h29.33.916,EPIDM,2023.1.2,None,
8186.jpg,F078.jpg,2 Points,2 Points,23 Points,,,,,,,,,,0,9,9,9,,,,,,,,,,,,,,,,,,,,,,,,,,,,,,,,,,,,,,,,,,,374.05178574984893,q,0.5839526671916246,374.7739774999209,2,2.8846755833365023,387.89587550004944,space,76.62648049998097,271402,B,2024-08-01_15h29.33.916,EPIDM,2023.1.2,None,
,,,,,,,,,,,,,,,,,,,,,,,,,,,,,,,,,,,,,,,,,,,,,,,,,,,,,,,,,,space,3.9610489171463996,,,,,,,,,,271402,B,2024-08-01_15h29.33.916,EPIDM,2023.1.2,None,
7284.jpg,8021.jpg,4 Points,4 Points,4 Points,PS2_L1.csv,,,,,,,,,,,,,,,,,,,,,,,,,,,,,0,0,0,0,0,0,0,0,,,,,,,,,,,,,,,,,,,484.742226958042,p,0.4521198340225965,485.28609333303757,,,,,,271402,B,2024-08-01_15h29.33.916,EPIDM,2023.1.2,None,
2214.jpg,4500.jpg,3 Points,3 Points,7 points,PS2_L1.csv,,,,,,,,,,,,,,,,,,,,,,,,,,,,,0,0,0,0,0,1,1,1,,,,,,,,,,,,,,,,,,,489.528579124948,p,0.45711604226380587,490.0574846670497,3,2.5651616672985256,,,,271402,B,2024-08-01_15h29.33.916,EPIDM,2023.1.2,None,
1280.jpg,9402.jpg,2 Points,2 Points,9 points,PS2_L1.csv,,,,,,,,,,,,,,,,,,,,,,,,,,,,,0,0,0,0,0,2,2,2,,,,,,,,,,,,,,,,,,,496.95240812492557,p,1.51310458406806,498.53938816697337,,,,,,271402,B,2024-08-01_15h29.33.916,EPIDM,2023.1.2,None,
1650.jpg,2130.jpg,1 Points,1 Points,10 points,PS2_L1.csv,,,,,,,,,,,,,,,,,,,,,,,,,,,,,0,0,0,0,0,3,3,3,,,,,,,,,,,,,,,,,,,502.78842191700824,q,1.1340840000193566,503.99205124983564,,,,,,271402,B,2024-08-01_15h29.33.916,EPIDM,2023.1.2,None,
2221.jpg,2270.jpg,2 Points,2 Points,12 points,PS2_L1.csv,,,,,,,,,,,,,,,,,,,,,,,,,,,,,0,0,0,0,0,4,4,4,,,,,,,,,,,,,,,,,,,508.24039749987423,p,1.0818116259761155,509.39891674998216,,,,,,271402,B,2024-08-01_15h29.33.916,EPIDM,2023.1.2,None,
9373.jpg,9410.jpg,0 Points,0 Points,12 points,PS2_L1.csv,,,,,,,,,,,,,,,,,,,,,,,,,,,,,0,0,0,0,0,5,5,5,,,,,,,,,,,,,,,,,,,513.6537490419578,q,1.0508854582440108,514.7714115828276,,,,,,271402,B,2024-08-01_15h29.33.916,EPIDM,2023.1.2,None,
4250.jpg,7060.jpg,5 Points,5 Points,17 points,PS2_L1.csv,,,,,,,,,,,,,,,,,,,,,,,,,,,,,0,0,0,0,0,6,6,6,,,,,,,,,,,,,,,,,,,519.0141653330065,q,1.308150792028755,520.3952081250027,,,,,,271402,B,2024-08-01_15h29.33.916,EPIDM,2023.1.2,None,
5130.jpg,1810.jpg,3 Points,3 Points,20 points,PS2_L1.csv,,,,,,,,,,,,,,,,,,,,,,,,,,,,,0,0,0,0,0,7,7,7,,,,,,,,,,,,,,,,,,,524.6475346670486,q,1.3605088752228767,526.0907405829057,,,,,,271402,B,2024-08-01_15h29.33.916,EPIDM,2023.1.2,None,
6370.jpg,1270.jpg,4 Points,4 Points,24 points,PS2_L1.csv,,,,,,,,,,,,,,,,,,,,,,,,,,,,,0,0,0,0,0,8,8,8,,,,,,,,,,,,,,,,,,,530.3235043329187,p,0.47684137523174286,530.8835687499959,,,,,,271402,B,2024-08-01_15h29.33.916,EPIDM,2023.1.2,None,
5480.jpg,8200.jpg,4 Points,4 Points,28 points,PS2_L1.csv,,,,,,,,,,,,,,,,,,,,,,,,,,,,,0,0,0,0,0,9,9,9,,,,,,,,,,,,,,,,,,,535.1408706668299,p,0.5974117501173168,535.8216850829776,,,,,,271402,B,2024-08-01_15h29.33.916,EPIDM,2023.1.2,None,
2520.jpg,8503.jpg,2 Points,2 Points,30 points,PS2_L1.csv,,,,,,,,,,,,,,,,,,,,,,,,,,,,,0,0,0,0,0,10,10,10,,,,,,,,,,,,,,,,,,,540.0715751249809,q,0.552559792296961,540.7000803330448,,,,,,271402,B,2024-08-01_15h29.33.916,EPIDM,2023.1.2,None,
5971.jpg,9912.jpg,5 Points,5 Points,35 points,PS2_L1.csv,,,,,,,,,,,,,,,,,,,,,,,,,,,,,0,0,0,0,0,11,11,11,,,,,,,,,,,,,,,,,,,544.9351029170211,p,0.45684383413754404,545.4565668329597,,,,,,271402,B,2024-08-01_15h29.33.916,EPIDM,2023.1.2,None,
7195.jpg,2487.jpg,2 Points,2 Points,37 points,PS2_L1.csv,,,,,,,,,,,,,,,,,,,,,,,,,,,,,0,0,0,0,0,12,12,12,,,,,,,,,,,,,,,,,,,549.7067328328267,p,0.36462354217655957,550.142829624936,,,,,,271402,B,2024-08-01_15h29.33.916,EPIDM,2023.1.2,None,
6840.jpg,3080.jpg,1 Points,1 Points,38 points,PS2_L1.csv,,,,,,,,,,,,,,,,,,,,,,,,,,,,,0,0,0,0,0,13,13,13,,,,,,,,,,,,,,,,,,,554.3982311249711,p,0.47430833405815065,554.9447921249084,1,1.7185636670328677,,,,271402,B,2024-08-01_15h29.33.916,EPIDM,2023.1.2,None,
5510.jpg,2514.jpg,5 Points,5 Points,43 points,PS2_L1.csv,,,,,,,,,,,,,,,,,,,,,,,,,,,,,0,0,0,0,0,14,14,14,,,,,,,,,,,,,,,,,,,560.9684329999145,q,0.863560541998595,561.89443033305,,,,,,271402,B,2024-08-01_15h29.33.916,EPIDM,2023.1.2,None,
7170.jpg,2170.jpg,2 Points,2 Points,45 points,PS2_L1.csv,,,,,,,,,,,,,,,,,,,,,,,,,,,,,0,0,0,0,0,15,15,15,,,,,,,,,,,,,,,,,,,566.1438954998739,p,0.2480186251923442,566.4784658330027,,,,,,271402,B,2024-08-01_15h29.33.916,EPIDM,2023.1.2,None,
6020.jpg,6300.jpg,2 Points,2 Points,47 points,PS2_L1.csv,,,,,,,,,,,,,,,,,,,,,,,,,,,,,0,0,0,0,0,16,16,16,,,,,,,,,,,,,,,,,,,570.7158749999944,q,0.4282436252105981,571.2159784999676,,,,,,271402,B,2024-08-01_15h29.33.916,EPIDM,2023.1.2,None,
1942.jpg,2890.jpg,1 Points,1 Points,48 points,PS2_L1.csv,,,,,,,,,,,,,,,,,,,,,,,,,,,,,0,0,0,0,0,17,17,17,,,,,,,,,,,,,,,,,,,575.4649382079951,p,0.26215195818804204,575.7901464169845,,,,,,271402,B,2024-08-01_15h29.33.916,EPIDM,2023.1.2,None,
6241.jpg,9561.jpg,3 Points,3 Points,51 points,PS2_L1.csv,,,,,,,,,,,,,,,,,,,,,,,,,,,,,0,0,0,0,0,18,18,18,,,,,,,,,,,,,,,,,,,580.0459236670285,q,0.25702841696329415,580.3723091669381,,,,,,271402,B,2024-08-01_15h29.33.916,EPIDM,2023.1.2,None,
4536.jpg,2280.jpg,4 Points,4 Points,55 points,PS2_L1.csv,,,,,,,,,,,,,,,,,,,,,,,,,,,,,0,0,0,0,0,19,19,19,,,,,,,,,,,,,,,,,,,584.6187345420476,p,0.25256658415310085,584.9502757498994,,,,,,271402,B,2024-08-01_15h29.33.916,EPIDM,2023.1.2,None,
6000.jpg,6836.jpg,4 Points,4 Points,59 points,PS2_L1.csv,,,,,,,,,,,,,,,,,,,,,,,,,,,,,0,0,0,0,0,20,20,20,,,,,,,,,,,,,,,,,,,589.1927467079367,p,0.29385595908388495,589.5590898329392,,,,,,271402,B,2024-08-01_15h29.33.916,EPIDM,2023.1.2,None,
8232.jpg,4279.jpg,5 Points,5 Points,64 points,PS2_L1.csv,,,,,,,,,,,,,,,,,,,,,,,,,,,,,0,0,0,0,0,21,21,21,,,,,,,,,,,,,,,,,,,593.8032877920195,p,2.6203115831594914,596.5090032080188,,,,,,271402,B,2024-08-01_15h29.33.916,EPIDM,2023.1.2,None,
2312.jpg,2722.jpg,1 Points,1 Points,65 points,PS2_L1.csv,,,,,,,,,,,,,,,,,,,,,,,,,,,,,0,0,0,0,0,22,22,22,,,,,,,,,,,,,,,,,,,600.7482250828762,q,0.13019433431327343,600.9537158750463,,,,,,271402,B,2024-08-01_15h29.33.916,EPIDM,2023.1.2,None,
2750.jpg,9050.jpg,4 Points,4 Points,69 points,PS2_L1.csv,,,,,,,,,,,,,,,,,,,,,,,,,,,,,0,0,0,0,0,23,23,23,,,,,,,,,,,,,,,,,,,605.204951541964,p,0.13775595906190574,605.4153859999496,,,615.9156907079741,space,7.5545822500716895,271402,B,2024-08-01_15h29.33.916,EPIDM,2023.1.2,None,
1113.jpg,1240.jpg,3 Points,3 Points,72 points,PS2_L2.csv,,,,,,,,,,,,,,,,,,,,,,,,,,,,,0,1,1,1,0,0,0,0,,,,,,,,,,,,,,,,,,,626.7893503748346,p,0.4001390840858221,627.271688207984,,,,,,271402,B,2024-08-01_15h29.33.916,EPIDM,2023.1.2,None,
8220.jpg,2410.jpg,4 Points,4 Points,76 points,PS2_L2.csv,,,,,,,,,,,,,,,,,,,,,,,,,,,,,0,1,1,1,0,1,1,1,,,,,,,,,,,,,,,,,,,631.5176314169075,p,0.27316370815970004,631.8647762078326,4,1.5864314169157296,,,,271402,B,2024-08-01_15h29.33.916,EPIDM,2023.1.2,None,
4621.jpg,3550.jpg,2 Points,2 Points,78 points,PS2_L2.csv,,,,,,,,,,,,,,,,,,,,,,,,,,,,,0,1,1,1,0,2,2,2,,,,,,,,,,,,,,,,,,,637.7650973328855,q,0.35364487511105835,638.1824314170517,,,,,,271402,B,2024-08-01_15h29.33.916,EPIDM,2023.1.2,None,
2751.jpg,6313.jpg,3 Points,3 Points,81 points,PS2_L2.csv,,,,,,,,,,,,,,,,,,,,,,,,,,,,,0,1,1,1,0,3,3,3,,,,,,,,,,,,,,,,,,,642.4363790419884,p,0.22579379216767848,642.7342888328712,,,,,,271402,B,2024-08-01_15h29.33.916,EPIDM,2023.1.2,None,
4689.jpg,7009.jpg,5 Points,5 Points,86 points,PS2_L2.csv,,,,,,,,,,,,,,,,,,,,,,,,,,,,,0,1,1,1,0,4,4,4,,,,,,,,,,,,,,,,,,,646.9825228748377,q,0.2788168340921402,647.3316910418216,,,,,,271402,B,2024-08-01_15h29.33.916,EPIDM,2023.1.2,None,
6831.jpg,2141.jpg,5 Points,5 Points,91 points,PS2_L2.csv,,,,,,,,,,,,,,,,,,,,,,,,,,,,,0,1,1,1,0,5,5,5,,,,,,,,,,,,,,,,,,,651.5911528749857,p,0.18259624997153878,651.8455258328468,,,,,,271402,B,2024-08-01_15h29.33.916,EPIDM,2023.1.2,None,
9417.jpg,6530.jpg,1 Point,1 Point,92 points,PS2_L2.csv,,,,,,,,,,,,,,,,,,,,,,,,,,,,,0,1,1,1,0,6,6,6,,,,,,,,,,,,,,,,,,,656.1028992498759,p,0.23874387610703707,656.423633791972,,,,,,271402,B,2024-08-01_15h29.33.916,EPIDM,2023.1.2,None,
7237.jpg,8510.jpg,4 Points,4 Points,96 points,PS2_L2.csv,,,,,,,,,,,,,,,,,,,,,,,,,,,,,0,1,1,1,0,7,7,7,,,,,,,,,,,,,,,,,,,660.6633998330217,p,0.16691566724330187,660.9112009999808,,,,,,271402,B,2024-08-01_15h29.33.916,EPIDM,2023.1.2,None,
4608.jpg,8320.jpg,1 Point,1 Point,97 points,PS2_L2.csv,,,,,,,,,,,,,,,,,,,,,,,,,,,,,0,1,1,1,0,8,8,8,,,,,,,,,,,,,,,,,,,665.1546145419125,q,0.23448895919136703,665.450064582983,,,,,,271402,B,2024-08-01_15h29.33.916,EPIDM,2023.1.2,None,
9254.jpg,9290.jpg,2 Points,2 Points,99 points,PS2_L2.csv,,,,,,,,,,,,,,,,,,,,,,,,,,,,,0,1,1,1,0,9,9,9,,,,,,,,,,,,,,,,,,,669.701620250009,q,0.35204666713252664,670.1124071248341,,,,,,271402,B,2024-08-01_15h29.33.916,EPIDM,2023.1.2,None,
9530.jpg,9220.jpg,1 Point,1 Point,100 points,PS2_L2.csv,,,,,,,,,,,,,,,,,,,,,,,,,,,,,0,1,1,1,0,10,10,10,,,,,,,,,,,,,,,,,,,674.3653222499415,q,0.2810897920280695,674.7066388330422,,,,,,271402,B,2024-08-01_15h29.33.916,EPIDM,2023.1.2,None,
2092.jpg,2210.jpg,0 Points,0 Points,100 points,PS2_L2.csv,,,,,,,,,,,,,,,,,,,,,,,,,,,,,0,1,1,1,0,11,11,11,,,,,,,,,,,,,,,,,,,678.965153249912,q,0.37673141714185476,679.4162323330529,,,,,,271402,B,2024-08-01_15h29.33.916,EPIDM,2023.1.2,None,
9500.jpg,6360.jpg,1 Point,1 Point,101 points,PS2_L2.csv,,,,,,,,,,,,,,,,,,,,,,,,,,,,,0,1,1,1,0,12,12,12,,,,,,,,,,,,,,,,,,,683.6741289170459,q,0.5795138340909034,684.3191192918457,,,,,,271402,B,2024-08-01_15h29.33.916,EPIDM,2023.1.2,None,
2220.jpg,2010.jpg,5 Points,5 Points,106 points,PS2_L2.csv,,,,,,,,,,,,,,,,,,,,,,,,,,,,,0,1,1,1,0,13,13,13,,,,,,,,,,,,,,,,,,,688.5638815830462,q,0.39281383412890136,689.0349458330311,5,2.1971254581585526,,,,271402,B,2024-08-01_15h29.33.916,EPIDM,2023.1.2,None,
5940.jpg,9411.jpg,0 Points,0 Points,106 points,PS2_L2.csv,,,,,,,,,,,,,,,,,,,,,,,,,,,,,0,1,1,1,0,14,14,14,,,,,,,,,,,,,,,,,,,695.5377337918617,p,1.0592284169979393,696.6743641248904,,,,,,271402,B,2024-08-01_15h29.33.916,EPIDM,2023.1.2,None,
4533.jpg,2385.jpg,3 Points,3 Points,109 points,PS2_L2.csv,,,,,,,,,,,,,,,,,,,,,,,,,,,,,0,1,1,1,0,15,15,15,,,,,,,,,,,,,,,,,,,700.9159832079895,q,0.1536652920767665,701.1560135828331,,,,,,271402,B,2024-08-01_15h29.33.916,EPIDM,2023.1.2,None,
9340.jpg,6910.jpg,0 Points,0 Points,109 points,PS2_L2.csv,,,,,,,,,,,,,,,,,,,,,,,,,,,,,0,1,1,1,0,16,16,16,,,,,,,,,,,,,,,,,,,705.3963934578933,p,0.376079750014469,705.8563781250268,,,,,,271402,B,2024-08-01_15h29.33.916,EPIDM,2023.1.2,None,
8350.jpg,7190.jpg,5 Points,5 Points,114 points,PS2_L2.csv,,,,,,,,,,,,,,,,,,,,,,,,,,,,,0,1,1,1,0,17,17,17,,,,,,,,,,,,,,,,,,,710.0933807918336,q,0.11165245808660984,710.2913188328966,,,,,,271402,B,2024-08-01_15h29.33.916,EPIDM,2023.1.2,None,
6211.jpg,9611.jpg,3 Points,3 Points,117 points ,PS2_L2.csv,,,,,,,,,,,,,,,,,,,,,,,,,,,,,0,1,1,1,0,18,18,18,,,,,,,,,,,,,,,,,,,714.5339399578515,q,0.31028466718271375,714.9131287080236,,,,,,271402,B,2024-08-01_15h29.33.916,EPIDM,2023.1.2,None,
2053.jpg,9415.jpg,4 Points,4 Points,121 points,PS2_L2.csv,,,,,,,,,,,,,,,,,,,,,,,,,,,,,0,1,1,1,0,19,19,19,,,,,,,,,,,,,,,,,,,719.1684262498748,q,0.2918245419859886,719.5277336668223,,,,,,271402,B,2024-08-01_15h29.33.916,EPIDM,2023.1.2,None,
2110.jpg,7260.jpg,5 Points,5 Points,126 points,PS2_L2.csv,,,,,,,,,,,,,,,,,,,,,,,,,,,,,0,1,1,1,0,20,20,20,,,,,,,,,,,,,,,,,,,723.7893540419172,p,0.20735729206353426,724.0731990418863,,,,,,271402,B,2024-08-01_15h29.33.916,EPIDM,2023.1.2,None,
2030.jpg,2495.jpg,0 Points,0 Points,126 points,PS2_L2.csv,,,,,,,,,,,,,,,,,,,,,,,,,,,,,0,1,1,1,0,21,21,21,,,,,,,,,,,,,,,,,,,728.3192597080488,q,0.1407263760920614,728.5420837078709,,,,,,271402,B,2024-08-01_15h29.33.916,EPIDM,2023.1.2,None,
1302.jpg,2700.jpg,3 Points,3 Points,129 points,PS2_L2.csv,,,,,,,,,,,,,,,,,,,,,,,,,,,,,0,1,1,1,0,22,22,22,,,,,,,,,,,,,,,,,,,732.7824145830236,q,0.3655888340435922,733.2170211670455,,,,,,271402,B,2024-08-01_15h29.33.916,EPIDM,2023.1.2,None,
9010.jpg,9253.jpg,0 Points,0 Points,129 points,PS2_L2.csv,,,,,,,,,,,,,,,,,,,,,,,,,,,,,0,1,1,1,0,23,23,23,,,,,,,,,,,,,,,,,,,737.4618479579221,q,0.22977275028824806,737.7667171668727,,,748.3080607079901,space,3.9993513342924416,271402,B,2024-08-01_15h29.33.916,EPIDM,2023.1.2,None,
1303.jpg,2000.jpg,0 Points,0 Points,129 points,PS2_L3.csv,,,,,,,,,,,,,,,,,,,,,,,,,,,,,0,2,2,2,0,0,0,0,,,,,,,,,,,,,,,,,,,755.6301280830521,p,0.2934575011022389,756.0007112079766,,,,,,271402,B,2024-08-01_15h29.33.916,EPIDM,2023.1.2,None,
2200.jpg,4598.jpg,1 Point,1 Point,130 points,PS2_L3.csv,,,,,,,,,,,,,,,,,,,,,,,,,,,,,0,2,2,2,0,1,1,1,,,,,,,,,,,,,,,,,,,760.2443157078233,p,0.3108324590139091,760.6305972919799,1,1.5890048332512379,,,,271402,B,2024-08-01_15h29.33.916,EPIDM,2023.1.2,None,
6190.jpg,3120.jpg,5 Points,5 Points,135 points,PS2_L3.csv,,,,,,,,,,,,,,,,,,,,,,,,,,,,,0,2,2,2,0,2,2,2,,,,,,,,,,,,,,,,,,,766.5460977498442,p,0.39329508412629366,767.0185222919099,,,,,,271402,B,2024-08-01_15h29.33.916,EPIDM,2023.1.2,None,
2570.jpg,5500.jpg,3 Points,3 Points,138 points,PS2_L3.csv,,,,,,,,,,,,,,,,,,,,,,,,,,,,,0,2,2,2,0,3,3,3,,,,,,,,,,,,,,,,,,,771.2646784998942,q,0.16259395820088685,771.4974646668416,,,,,,271402,B,2024-08-01_15h29.33.916,EPIDM,2023.1.2,None,
8460.jpg,8330.jpg,0 Points,0 Points,138 points,PS2_L3.csv,,,,,,,,,,,,,,,,,,,,,,,,,,,,,0,2,2,2,0,4,4,4,,,,,,,,,,,,,,,,,,,775.7390068329405,q,0.304626792203635,776.1064784580376,,,,,,271402,B,2024-08-01_15h29.33.916,EPIDM,2023.1.2,None,
9320.jpg,9007.jpg,0 Points,0 Points,138 points,PS2_L3.csv,,,,,,,,,,,,,,,,,,,,,,,,,,,,,0,2,2,2,0,5,5,5,,,,,,,,,,,,,,,,,,,780.3547119169962,q,0.31256058416329324,780.749194541946,,,,,,271402,B,2024-08-01_15h29.33.916,EPIDM,2023.1.2,None,
2650.jpg,4531.jpg,5 Points,5 Points,143 points,PS2_L3.csv,,,,,,,,,,,,,,,,,,,,,,,,,,,,,0,2,2,2,0,6,6,6,,,,,,,,,,,,,,,,,,,785.0006892918609,q,0.2252287920564413,785.3052808330394,,,,,,271402,B,2024-08-01_15h29.33.916,EPIDM,2023.1.2,None,
4100.jpg,6570.2.jpg,3 Points,3 Points,146 points,PS2_L3.csv,,,,,,,,,,,,,,,,,,,,,,,,,,,,,0,2,2,2,0,7,7,7,,,,,,,,,,,,,,,,,,,789.5479365419596,p,0.12688441714271903,789.7449227918405,,,,,,271402,B,2024-08-01_15h29.33.916,EPIDM,2023.1.2,None,
3102.jpg,F032.jpg,1 Point,1 Point,147 points,PS2_L3.csv,,,,,,,,,,,,,,,,,,,,,,,,,,,,,0,2,2,2,0,8,8,8,,,,,,,,,,,,,,,,,,,793.9811821249314,q,0.16739258402958512,794.2631552079692,,,,,,271402,B,2024-08-01_15h29.33.916,EPIDM,2023.1.2,None,
2240.jpg,5010.jpg,5 Points,5 Points,152 points,PS2_L3.csv,,,,,,,,,,,,,,,,,,,,,,,,,,,,,0,2,2,2,0,9,9,9,,,,,,,,,,,,,,,,,,,798.4776729580481,p,0.26040329202078283,798.8223697079811,,,,,,271402,B,2024-08-01_15h29.33.916,EPIDM,2023.1.2,None,
4605.jpg,1510.jpg,4 Points,4 Points,156 points,PS2_L3.csv,,,,,,,,,,,,,,,,,,,,,,,,,,,,,0,2,2,2,0,10,10,10,,,,,,,,,,,,,,,,,,,803.0675334578846,p,0.43148137512616813,803.5672061669175,,,,,,271402,B,2024-08-01_15h29.33.916,EPIDM,2023.1.2,None,
9490.jpg,9210.jpg,1 Point,1 Point,157 points,PS2_L3.csv,,,,,,,,,,,,,,,,,,,,,,,,,,,,,0,2,2,2,0,11,11,11,,,,,,,,,,,,,,,,,,,807.8144853748381,p,0.48332308419048786,808.3635075418279,,,,,,271402,B,2024-08-01_15h29.33.916,EPIDM,2023.1.2,None,
6821.jpg,9622.jpg,2 Points,2 Points,159 points,PS2_L3.csv,,,,,,,,,,,,,,,,,,,,,,,,,,,,,0,2,2,2,0,12,12,12,,,,,,,,,,,,,,,,,,,812.6183019168675,p,0.32720320811495185,813.0003881249577,,,,,,271402,B,2024-08-01_15h29.33.916,EPIDM,2023.1.2,None,
2681.jpg,7100.jpg,3 Points,3 Points,162 points,PS2_L3.csv,,,,,,,,,,,,,,,,,,,,,,,,,,,,,0,2,2,2,0,13,13,13,,,,,,,,,,,,,,,,,,,817.2640930828638,p,0.28950066724792123,817.6135549999308,3,1.577596167102456,,,,271402,B,2024-08-01_15h29.33.916,EPIDM,2023.1.2,None,
5622.jpg,9156.jpg,4 Points,4 Points,166 points,PS2_L3.csv,,,,,,,,,,,,,,,,,,,,,,,,,,,,,0,2,2,2,0,14,14,14,,,,,,,,,,,,,,,,,,,823.5172219579108,q,0.38875095918774605,823.9870914998464,,,,,,271402,B,2024-08-01_15h29.33.916,EPIDM,2023.1.2,None,
1111.jpg,1040.jpg,0 Points,0 Points,166 points,PS2_L3.csv,,,,,,,,,,,,,,,,,,,,,,,,,,,,,0,2,2,2,0,15,15,15,,,,,,,,,,,,,,,,,,,828.2329427078366,q,0.23288612626492977,828.5374587499537,,,,,,271402,B,2024-08-01_15h29.33.916,EPIDM,2023.1.2,None,
1112.jpg,6230.jpg,3 Points,3 Points,169 points,PS2_L3.csv,,,,,,,,,,,,,,,,,,,,,,,,,,,,,0,2,2,2,0,16,16,16,,,,,,,,,,,,,,,,,,,832.7877169579733,q,0.18081695912405849,833.048108167015,,,,,,271402,B,2024-08-01_15h29.33.916,EPIDM,2023.1.2,None,
8161.jpg,1900.jpg,4 Points,4 Points,173 points,PS2_L3.csv,,,,,,,,,,,,,,,,,,,,,,,,,,,,,0,2,2,2,0,17,17,17,,,,,,,,,,,,,,,,,,,837.2941755829379,q,0.22785320924594998,837.5945498750079,,,,,,271402,B,2024-08-01_15h29.33.916,EPIDM,2023.1.2,None,
9800.jpg,9433.jpg,1 Point,1 Point,174 points,PS2_L3.csv,,,,,,,,,,,,,,,,,,,,,,,,,,,,,0,2,2,2,0,18,18,18,,,,,,,,,,,,,,,,,,,841.8506581250113,q,0.0713255840819329,841.9897870419081,,,,,,271402,B,2024-08-01_15h29.33.916,EPIDM,2023.1.2,None,
1390.jpg,9421.jpg,2 Points,2 Points,176 points,PS2_L3.csv,,,,,,,,,,,,,,,,,,,,,,,,,,,,,0,2,2,2,0,19,19,19,,,,,,,,,,,,,,,,,,,846.2560051670298,q,0.20905391708947718,846.5381115418859,,,,,,271402,B,2024-08-01_15h29.33.916,EPIDM,2023.1.2,None,
2850.jpg,4532.jpg,3 Points,3 Points,179 points,PS2_L3.csv,,,,,,,,,,,,,,,,,,,,,,,,,,,,,0,2,2,2,0,20,20,20,,,,,,,,,,,,,,,,,,,850.7861113748513,q,0.175533042056486,851.0182062499225,,,,,,271402,B,2024-08-01_15h29.33.916,EPIDM,2023.1.2,None,
1560.jpg,8185.jpg,0 Points,0 Points,179 points,PS2_L3.csv,,,,,,,,,,,,,,,,,,,,,,,,,,,,,0,2,2,2,0,21,21,21,,,,,,,,,,,,,,,,,,,855.2778326668777,q,0.12310679210349917,855.4659847919829,,,,,,271402,B,2024-08-01_15h29.33.916,EPIDM,2023.1.2,None,
6314.jpg,O022.jpg,2 Points,2 Points,181 points,PS2_L3.csv,,,,,,,,,,,,,,,,,,,,,,,,,,,,,0,2,2,2,0,22,22,22,,,,,,,,,,,,,,,,,,,859.7189085418358,p,0.06519333296455443,859.8859908748418,,,,,,271402,B,2024-08-01_15h29.33.916,EPIDM,2023.1.2,None,
4274.jpg,8160.jpg,2 Points,2 Points,183 points,PS2_L3.csv,,,,,,,,,,,,,,,,,,,,,,,,,,,,,0,2,2,2,0,23,23,23,,,,,,,,,,,,,,,,,,,864.1078496668488,q,0.2451383750885725,864.4564808330033,,,874.8948955829255,space,1.7370729171670973,271402,B,2024-08-01_15h29.33.916,EPIDM,2023.1.2,None,
8117.jpg,2880.jpg,5 Points,5 Points,188 points,PS2_L4.csv,,,,,,,,,,,,,,,,,,,,,,,,,,,,,0,3,3,3,0,0,0,0,,,,,,,,,,,,,,,,,,,879.9452964579687,q,0.31156937521882355,880.3339665420353,,,,,,271402,B,2024-08-01_15h29.33.916,EPIDM,2023.1.2,None,
3220.jpg,3063.jpg,5 Points,5 Points,193 points,PS2_L4.csv,,,,,,,,,,,,,,,,,,,,,,,,,,,,,0,3,3,3,0,1,1,1,,,,,,,,,,,,,,,,,,,884.5991743749473,q,0.18448470812290907,884.8510900419205,5,1.8913796672131866,,,,271402,B,2024-08-01_15h29.33.916,EPIDM,2023.1.2,None,
9040.jpg,1120.jpg,3 Points,3 Points,196 points,PS2_L4.csv,,,,,,,,,,,,,,,,,,,,,,,,,,,,,0,3,3,3,0,2,2,2,,,,,,,,,,,,,,,,,,,891.0550508748274,p,0.3847906670998782,891.5144184168894,,,,,,271402,B,2024-08-01_15h29.33.916,EPIDM,2023.1.2,None,
5030.jpg,1670.jpg,3 Points,3 Points,199 points,PS2_L4.csv,,,,,,,,,,,,,,,,,,,,,,,,,,,,,0,3,3,3,0,3,3,3,,,,,,,,,,,,,,,,,,,895.7788542078342,q,0.3336518332362175,896.1867311249953,,,,,,271402,B,2024-08-01_15h29.33.916,EPIDM,2023.1.2,None,
2276.jpg,6540.jpg,3 Points,3 Points,202 points,PS2_L4.csv,,,,,,,,,,,,,,,,,,,,,,,,,,,,,0,3,3,3,0,4,4,4,,,,,,,,,,,,,,,,,,,900.4409274579957,p,0.23084283294156194,900.7308414999861,,,,,,271402,B,2024-08-01_15h29.33.916,EPIDM,2023.1.2,None,
1540.jpg,2600.jpg,1 Point,1 Point,203 points,PS2_L4.csv,,,,,,,,,,,,,,,,,,,,,,,,,,,,,0,3,3,3,0,5,5,5,,,,,,,,,,,,,,,,,,,904.9862280830275,p,0.1817017092835158,905.2286569168791,,,,,,271402,B,2024-08-01_15h29.33.916,EPIDM,2023.1.2,None,
8465.jpg,8400.jpg,1 Point,1 Point,204 points,PS2_L4.csv,,,,,,,,,,,,,,,,,,,,,,,,,,,,,0,3,3,3,0,6,6,6,,,,,,,,,,,,,,,,,,,909.4772556668613,q,0.18609337601810694,909.7441402920522,,,,,,271402,B,2024-08-01_15h29.33.916,EPIDM,2023.1.2,None,
3110.jpg,9000.jpg,4 Points,4 Points,208 points,PS2_L4.csv,,,,,,,,,,,,,,,,,,,,,,,,,,,,,0,3,3,3,0,7,7,7,,,,,,,,,,,,,,,,,,,913.9882734578568,q,0.1412084591574967,914.2053436669521,,,,,,271402,B,2024-08-01_15h29.33.916,EPIDM,2023.1.2,None,
9570.jpg,6610.jpg,0 Points,0 Points,208 points,PS2_L4.csv,,,,,,,,,,,,,,,,,,,,,,,,,,,,,0,3,3,3,0,8,8,8,,,,,,,,,,,,,,,,,,,918.457043417031,q,0.2865675841458142,918.8114852078725,,,,,,271402,B,2024-08-01_15h29.33.916,EPIDM,2023.1.2,None,
2690.jpg,9360.jpg,1 Point,1 Point,209 points,PS2_L4.csv,,,,,,,,,,,,,,,,,,,,,,,,,,,,,0,3,3,3,0,9,9,9,,,,,,,,,,,,,,,,,,,923.0584698328748,p,0.39556183316744864,923.5143135420512,,,,,,271402,B,2024-08-01_15h29.33.916,EPIDM,2023.1.2,None,
8250.jpg,1313.jpg,4 Points,4 Points,213 points,PS2_L4.csv,,,,,,,,,,,,,,,,,,,,,,,,,,,,,0,3,3,3,0,10,10,10,,,,,,,,,,,,,,,,,,,927.7717818329111,q,0.21066287602297962,928.0516326669604,,,,,,271402,B,2024-08-01_15h29.33.916,EPIDM,2023.1.2,None,
3022.jpg,2352.2.jpg,0 Points,0 Points,213 points,PS2_L4.csv,,,,,,,,,,,,,,,,,,,,,,,,,,,,,0,3,3,3,0,11,11,11,,,,,,,,,,,,,,,,,,,932.2910062079318,p,0.42000629217363894,932.7789566249121,,,,,,271402,B,2024-08-01_15h29.33.916,EPIDM,2023.1.2,None,
9920.jpg,3068.jpg,5 Points,5 Points,218 points,PS2_L4.csv,,,,,,,,,,,,,,,,,,,,,,,,,,,,,0,3,3,3,0,12,12,12,,,,,,,,,,,,,,,,,,,937.0213105420116,q,0.5202067501377314,937.6166931248736,,,,,,271402,B,2024-08-01_15h29.33.916,EPIDM,2023.1.2,None,
7234.jpg,5533.jpg,3 Points,3 Points,221 points,PS2_L4.csv,,,,,,,,,,,,,,,,,,,,,,,,,,,,,0,3,3,3,0,13,13,13,,,,,,,,,,,,,,,,,,,941.8683902078774,q,0.2975299172103405,942.2380287919659,3,1.600808042101562,,,,271402,B,2024-08-01_15h29.33.916,EPIDM,2023.1.2,None,
6250.1.jpg,3301.jpg,0 Points,0 Points,221 points,PS2_L4.csv,,,,,,,,,,,,,,,,,,,,,,,,,,,,,0,3,3,3,0,14,14,14,,,,,,,,,,,,,,,,,,,948.175940166926,q,0.2754026250913739,948.5242119168397,,,,,,271402,B,2024-08-01_15h29.33.916,EPIDM,2023.1.2,None,
2518.jpg,2381.jpg,1 Point,1 Point,222 points,PS2_L4.csv,,,,,,,,,,,,,,,,,,,,,,,,,,,,,0,3,3,3,0,15,15,15,,,,,,,,,,,,,,,,,,,952.7609516249504,q,0.16463033412583172,952.9815545829479,,,,,,271402,B,2024-08-01_15h29.33.916,EPIDM,2023.1.2,None,
1910.jpg,2575.jpg,2 Points,2 Points,224 points,PS2_L4.csv,,,,,,,,,,,,,,,,,,,,,,,,,,,,,0,3,3,3,0,16,16,16,,,,,,,,,,,,,,,,,,,957.2495842918288,q,0.24556966708041728,957.5582963749766,,,,,,271402,B,2024-08-01_15h29.33.916,EPIDM,2023.1.2,None,
1275.jpg,3150.jpg,1 Point,1 Point,225 points,PS2_L4.csv,,,,,,,,,,,,,,,,,,,,,,,,,,,,,0,3,3,3,0,17,17,17,,,,,,,,,,,,,,,,,,,961.8231297498569,q,0.19869829225353897,962.0913301669061,,,,,,271402,B,2024-08-01_15h29.33.916,EPIDM,2023.1.2,None,
2702.jpg,1590.jpg,5 Points,5 Points,230 points,PS2_L4.csv,,,,,,,,,,,,,,,,,,,,,,,,,,,,,0,3,3,3,0,18,18,18,,,,,,,,,,,,,,,,,,,966.3462412918452,q,0.515891500050202,966.9370866669342,,,,,,271402,B,2024-08-01_15h29.33.916,EPIDM,2023.1.2,None,
8480.jpg,6410.jpg,1 Point,1 Point,231 points,PS2_L4.csv,,,,,,,,,,,,,,,,,,,,,,,,,,,,,0,3,3,3,0,19,19,19,,,,,,,,,,,,,,,,,,,971.1901516248472,p,0.5275609169621021,971.7967826249078,,,,,,271402,B,2024-08-01_15h29.33.916,EPIDM,2023.1.2,None,
5621.jpg,5534.jpg,3 Points,3 Points,234 points,PS2_L4.csv,,,,,,,,,,,,,,,,,,,,,,,,,,,,,0,3,3,3,0,20,20,20,,,,,,,,,,,,,,,,,,,976.0498757918831,q,0.2835529590956867,976.406857999973,,,,,,271402,B,2024-08-01_15h29.33.916,EPIDM,2023.1.2,None,
5972.jpg,6838.jpg,5 Points,5 Points,239 points,PS2_L4.csv,,,,,,,,,,,,,,,,,,,,,,,,,,,,,0,3,3,3,0,21,21,21,,,,,,,,,,,,,,,,,,,980.6534662079066,p,0.2953279169742018,981.0184212080203,,,,,,271402,B,2024-08-01_15h29.33.916,EPIDM,2023.1.2,None,
2580.jpg,8300.jpg,3 Points,3 Points,242 points,PS2_L4.csv,,,,,,,,,,,,,,,,,,,,,,,,,,,,,0,3,3,3,0,22,22,22,,,,,,,,,,,,,,,,,,,985.2723808330484,p,0.5486744581721723,985.8995388329495,,,,,,271402,B,2024-08-01_15h29.33.916,EPIDM,2023.1.2,None,
7280.jpg,7160.jpg,0 Points,0 Points,242 points,PS2_L4.csv,,,,,,,,,,,,,,,,,,,,,,,,,,,,,0,3,3,3,0,23,23,23,,,,,,,,,,,,,,,,,,,990.1429649170022,p,0.24600704200565815,990.4650954578537,,,1000.9488405419979,space,1.2884489581920207,271402,B,2024-08-01_15h29.33.916,EPIDM,2023.1.2,None,
6243.jpg,2752.jpg,2 Points,2 Points,244 points,PS2_L5.csv,,,,,,,,,,,,,,,,,,,,,,,,,,,,,0,4,4,4,0,0,0,0,,,,,,,,,,,,,,,,,,,1005.5503265419975,q,0.46265666699036956,1006.0935179998633,,,,,,271402,B,2024-08-01_15h29.33.916,EPIDM,2023.1.2,None,
8340.jpg,7546.jpg,2 Points,2 Points,246 points,PS2_L5.csv,,,,,,,,,,,,,,,,,,,,,,,,,,,,,0,4,4,4,0,1,1,1,,,,,,,,,,,,,,,,,,,1010.339986207895,p,0.424448958132416,1010.8381278750021,2,1.605521250050515,,,,271402,B,2024-08-01_15h29.33.916,EPIDM,2023.1.2,None,
1022.jpg,6930.jpg,1 Point,1 Point,247 points,PS2_L5.csv,,,,,,,,,,,,,,,,,,,,,,,,,,,,,0,4,4,4,0,2,2,2,,,,,,,,,,,,,,,,,,,1016.75200554193,q,0.9327832511626184,1017.7519986669067,,,,,,271402,B,2024-08-01_15h29.33.916,EPIDM,2023.1.2,None,
7230.jpg,7570.jpg,5 Points,5 Points,252 points,PS2_L5.csv,,,,,,,,,,,,,,,,,,,,,,,,,,,,,0,4,4,4,0,3,3,3,,,,,,,,,,,,,,,,,,,1022.0018450829666,p,1.5464683750178665,1023.6227173330262,,,,,,271402,B,2024-08-01_15h29.33.916,EPIDM,2023.1.2,None,
5760.jpg,1602.jpg,1 Point,1 Point,253 points,PS2_L5.csv,,,,,,,,,,,,,,,,,,,,,,,,,,,,,0,4,4,4,0,4,4,4,,,,,,,,,,,,,,,,,,,1027.862674041884,p,0.982599250972271,1028.9110464579426,,,,,,271402,B,2024-08-01_15h29.33.916,EPIDM,2023.1.2,None,
9584.jpg,3400.jpg,2 Points,2 Points,255 points,PS2_L5.csv,,,,,,,,,,,,,,,,,,,,,,,,,,,,,0,4,4,4,0,5,5,5,,,,,,,,,,,,,,,,,,,1033.1618591670413,p,0.9477013750001788,1034.174513374921,,,,,,271402,B,2024-08-01_15h29.33.916,EPIDM,2023.1.2,None,
2560.jpg,5270.jpg,4 Points,4 Points,259 points,PS2_L5.csv,,,,,,,,,,,,,,,,,,,,,,,,,,,,,0,4,4,4,0,6,6,6,,,,,,,,,,,,,,,,,,,1038.423819749849,p,1.732293708017096,1040.231319542043,,,,,,271402,B,2024-08-01_15h29.33.916,EPIDM,2023.1.2,None,
3350.jpg,3210.jpg,1 Point,1 Point,260 points,PS2_L5.csv,,,,,,,,,,,,,,,,,,,,,,,,,,,,,0,4,4,4,0,7,7,7,,,,,,,,,,,,,,,,,,,1044.4704487079289,q,0.5654136671219021,1045.0978307919577,,,,,,271402,B,2024-08-01_15h29.33.916,EPIDM,2023.1.2,None,
5455.jpg,5220.jpg,0 Points,0 Points,260 points,PS2_L5.csv,,,,,,,,,,,,,,,,,,,,,,,,,,,,,0,4,4,4,0,8,8,8,,,,,,,,,,,,,,,,,,,1049.3443335420452,q,0.7391836252063513,1050.1410644578282,,,,,,271402,B,2024-08-01_15h29.33.916,EPIDM,2023.1.2,None,
7920.jpg,9102.jpg,3 Points,3 Points,263 points,PS2_L5.csv,,,,,,,,,,,,,,,,,,,,,,,,,,,,,0,4,4,4,0,9,9,9,,,,,,,,,,,,,,,,,,,1054.4111874999944,p,1.4980550420004874,1055.9969350828324,,,,,,271402,B,2024-08-01_15h29.33.916,EPIDM,2023.1.2,None,
1301.jpg,1070.jpg,2 Points,2 Points,265 points,PS2_L5.csv,,,,,,,,,,,,,,,,,,,,,,,,,,,,,0,4,4,4,0,10,10,10,,,,,,,,,,,,,,,,,,,1060.2342280000448,q,1.145278459182009,1061.4581331249792,,,,,,271402,B,2024-08-01_15h29.33.916,EPIDM,2023.1.2,None,
5982.jpg,5260.jpg,5 Points,5 Points,270 points,PS2_L5.csv,,,,,,,,,,,,,,,,,,,,,,,,,,,,,0,4,4,4,0,11,11,11,,,,,,,,,,,,,,,,,,,1065.710949207889,p,0.7720407501328737,1066.5642622078303,,,,,,271402,B,2024-08-01_15h29.33.916,EPIDM,2023.1.2,None,
5000.jpg,8180.jpg,4 Points,4 Points,274 points,PS2_L5.csv,,,,,,,,,,,,,,,,,,,,,,,,,,,,,0,4,4,4,0,12,12,12,,,,,,,,,,,,,,,,,,,1070.8032183749601,p,1.2400008752010763,1072.123461375013,,,,,,271402,B,2024-08-01_15h29.33.916,EPIDM,2023.1.2,None,
6244.jpg,9265.jpg,0 Points,0 Points,274 points,PS2_L5.csv,,,,,,,,,,,,,,,,,,,,,,,,,,,,,0,4,4,4,0,13,13,13,,,,,,,,,,,,,,,,,,,1076.358054707991,p,0.9571747921872884,1077.3906719998922,0,1.8497736670542508,,,,271402,B,2024-08-01_15h29.33.916,EPIDM,2023.1.2,None,
5990.jpg,5780.jpg,3 Points,3 Points,277 points,PS2_L5.csv,,,,,,,,,,,,,,,,,,,,,,,,,,,,,0,4,4,4,0,14,14,14,,,,,,,,,,,,,,,,,,,1083.5552435829304,q,0.4800192080438137,1084.101762957871,,,,,,271402,B,2024-08-01_15h29.33.916,EPIDM,2023.1.2,None,
9440.jpg,6350.jpg,4 Points,4 Points,281 points,PS2_L5.csv,,,,,,,,,,,,,,,,,,,,,,,,,,,,,0,4,4,4,0,15,15,15,,,,,,,,,,,,,,,,,,,1088.3502385418396,q,0.8606669171713293,1089.2705196249299,,,,,,271402,B,2024-08-01_15h29.33.916,EPIDM,2023.1.2,None,
1850.jpg,5623.jpg,5 Points,5 Points,286 points,PS2_L5.csv,,,,,,,,,,,,,,,,,,,,,,,,,,,,,0,4,4,4,0,16,16,16,,,,,,,,,,,,,,,,,,,1093.5302242080215,p,0.7842430840246379,1094.382677125046,,,,,,271402,B,2024-08-01_15h29.33.916,EPIDM,2023.1.2,None,
5200.jpg,5020.jpg,0 Points,0 Points,286 points,PS2_L5.csv,,,,,,,,,,,,,,,,,,,,,,,,,,,,,0,4,4,4,0,17,17,17,,,,,,,,,,,,,,,,,,,1098.637047874974,q,0.5570827920455486,1099.2756012498867,,,,,,271402,B,2024-08-01_15h29.33.916,EPIDM,2023.1.2,None,
P211.jpg,9041.jpg,4 Points,4 Points,290 points,PS2_L5.csv,,,,,,,,,,,,,,,,,,,,,,,,,,,,,0,4,4,4,0,18,18,18,,,,,,,,,,,,,,,,,,,1103.5191919580102,q,0.6109342502895743,1104.2372965000104,,,,,,271402,B,2024-08-01_15h29.33.916,EPIDM,2023.1.2,None,
5600.jpg,9080.jpg,5 Points,5 Points,295 points,PS2_L5.csv,,,,,,,,,,,,,,,,,,,,,,,,,,,,,0,4,4,4,0,19,19,19,,,,,,,,,,,,,,,,,,,1108.4407565419096,q,0.4179265003185719,1108.9291606668849,,,,,,271402,B,2024-08-01_15h29.33.916,EPIDM,2023.1.2,None,
6800.jpg,9190.jpg,0 Points,0 Points,295 points,PS2_L5.csv,,,,,,,,,,,,,,,,,,,,,,,,,,,,,0,4,4,4,0,20,20,20,,,,,,,,,,,,,,,,,,,1113.1756134168245,q,0.45812216703779995,1113.7104604579508,,,,,,271402,B,2024-08-01_15h29.33.916,EPIDM,2023.1.2,None,
3280.jpg,9270.jpg,0 Points,0 Points,295 points,PS2_L5.csv,,,,,,,,,,,,,,,,,,,,,,,,,,,,,0,4,4,4,0,21,21,21,,,,,,,,,,,,,,,,,,,1117.9539460418746,p,0.24862733320333064,1118.258808457991,,,,,,271402,B,2024-08-01_15h29.33.916,EPIDM,2023.1.2,None,
4613.jpg,2720.jpg,4 Points,4 Points,299 points,PS2_L5.csv,,,,,,,,,,,,,,,,,,,,,,,,,,,,,0,4,4,4,0,22,22,22,,,,,,,,,,,,,,,,,,,1122.5257584578358,p,0.4925106263253838,1123.0869300419,,,,,,271402,B,2024-08-01_15h29.33.916,EPIDM,2023.1.2,None,
1930.jpg,9008.jpg,1 Point,1 Point,300 points,PS2_L5.csv,,,,,,,,,,,,,,,,,,,,,,,,,,,,,0,4,4,4,0,23,23,23,,,,,,,,,,,,,,,,,,,1127.3360660418402,p,0.5145575830247253,1127.9342740830034,,,1138.4412760830019,space,1.385181084042415,271402,B,2024-08-01_15h29.33.916,EPIDM,2023.1.2,None,
2190.jpg,7503.jpg,2 Points,2 Points,302 points,PS2_L6.csv,,,,,,,,,,,,,,,,,,,,,,,,,,,,,0,5,5,5,0,0,0,0,,,,,,,,,,,,,,,,,,,1143.1388040829916,q,0.35082395910285413,1143.5679817078635,,,,,,271402,B,2024-08-01_15h29.33.916,EPIDM,2023.1.2,None,
2490.jpg,2590.jpg,4 Points,4 Points,306 points,PS2_L6.csv,,,,,,,,,,,,,,,,,,,,,,,,,,,,,0,5,5,5,0,1,1,1,,,,,,,,,,,,,,,,,,,1147.825685791904,p,0.49696570821106434,1148.3972831249703,4,1.6637073340825737,,,,271402,B,2024-08-01_15h29.33.916,EPIDM,2023.1.2,None,
9592.jpg,1300.jpg,2 Points,2 Points,308 points,PS2_L6.csv,,,,,,,,,,,,,,,,,,,,,,,,,,,,,0,5,5,5,0,2,2,2,,,,,,,,,,,,,,,,,,,1154.3790496250149,p,0.5581374170724303,1154.9997701249085,,,,,,271402,B,2024-08-01_15h29.33.916,EPIDM,2023.1.2,None,
8230.jpg,2682.jpg,5 Points,5 Points,313 points,PS2_L6.csv,,,,,,,,,,,,,,,,,,,,,,,,,,,,,0,5,5,5,0,3,3,3,,,,,,,,,,,,,,,,,,,1159.2746563330293,q,0.277559501118958,1159.61916487501,,,,,,271402,B,2024-08-01_15h29.33.916,EPIDM,2023.1.2,None,
9090.jpg,7580.jpg,3 Points,3 Points,316 points,PS2_L6.csv,,,,,,,,,,,,,,,,,,,,,,,,,,,,,0,5,5,5,0,4,4,4,,,,,,,,,,,,,,,,,,,1163.8715911249164,p,0.34527841699309647,1164.2941546668299,,,,,,271402,B,2024-08-01_15h29.33.916,EPIDM,2023.1.2,None,
3530.jpg,6213.jpg,1 Point,1 Point,317 points,PS2_L6.csv,,,,,,,,,,,,,,,,,,,,,,,,,,,,,0,5,5,5,0,5,5,5,,,,,,,,,,,,,,,,,,,1168.5317029168364,q,0.2925120012369007,1168.8984003330115,,,,,,271402,B,2024-08-01_15h29.33.916,EPIDM,2023.1.2,None,
1640.jpg,5531.jpg,3 Points,3 Points,320 points,PS2_L6.csv,,,,,,,,,,,,,,,,,,,,,,,,,,,,,0,5,5,5,0,6,6,6,,,,,,,,,,,,,,,,,,,1173.1448661668692,p,0.20742866699583828,1173.4331772078294,,,,,,271402,B,2024-08-01_15h29.33.916,EPIDM,2023.1.2,None,
3064.jpg,3168.jpg,4 Points,4 Points,324 points,PS2_L6.csv,,,,,,,,,,,,,,,,,,,,,,,,,,,,,0,5,5,5,0,7,7,7,,,,,,,,,,,,,,,,,,,1177.678085749969,q,0.22659095912240446,1177.9802160419058,,,,,,271402,B,2024-08-01_15h29.33.916,EPIDM,2023.1.2,None,
2710.jpg,9252.jpg,1 Point,1 Point,325 points,PS2_L6.csv,,,,,,,,,,,,,,,,,,,,,,,,,,,,,0,5,5,5,0,8,8,8,,,,,,,,,,,,,,,,,,,1182.224547416903,p,0.27163504203781486,1182.5630280419718,,,,,,271402,B,2024-08-01_15h29.33.916,EPIDM,2023.1.2,None,
2260.jpg,2830.jpg,5 Points,5 Points,330 points,PS2_L6.csv,,,,,,,,,,,,,,,,,,,,,,,,,,,,,0,5,5,5,0,9,9,9,,,,,,,,,,,,,,,,,,,1186.8147277499083,p,0.18614987516775727,1187.069197874982,,,,,,271402,B,2024-08-01_15h29.33.916,EPIDM,2023.1.2,None,
6510.jpg,A074.jpg,2 Points,2 Points,332 points,PS2_L6.csv,,,,,,,,,,,,,,,,,,,,,,,,,,,,,0,5,5,5,0,10,10,10,,,,,,,,,,,,,,,,,,,1191.3192874998786,p,0.22545016719959676,1191.6684527499601,,,,,,271402,B,2024-08-01_15h29.33.916,EPIDM,2023.1.2,None,
5300.jpg,2372.jpg,1 Point,1 Point,333 points,PS2_L6.csv,,,,,,,,,,,,,,,,,,,,,,,,,,,,,0,5,5,5,0,11,11,11,,,,,,,,,,,,,,,,,,,1195.856367958011,p,0.23894787509925663,1196.1706852919888,,,,,,271402,B,2024-08-01_15h29.33.916,EPIDM,2023.1.2,None,
2749.jpg,7282.jpg,3 Points,3 Points,336 points,PS2_L6.csv,,,,,,,,,,,,,,,,,,,,,,,,,,,,,0,5,5,5,0,12,12,12,,,,,,,,,,,,,,,,,,,1200.4172397078946,p,0.3825471671298146,1200.8706667500082,,,,,,271402,B,2024-08-01_15h29.33.916,EPIDM,2023.1.2,None,
3130.jpg,3500.jpg,4 Points,4 Points,340 points,PS2_L6.csv,,,,,,,,,,,,,,,,,,,,,,,,,,,,,0,5,5,5,0,13,13,13,,,,,,,,,,,,,,,,,,,1205.1163675000425,q,0.27523208409547806,1205.463711374905,4,1.5827179171610624,,,,271402,B,2024-08-01_15h29.33.916,EPIDM,2023.1.2,None,
6312.jpg,3230.jpg,2 Points,2 Points,342 points,PS2_L6.csv,,,,,,,,,,,,,,,,,,,,,,,,,,,,,0,5,5,5,0,14,14,14,,,,,,,,,,,,,,,,,,,1211.3604686248582,p,0.27183879213407636,1211.7033589170314,,,,,,271402,B,2024-08-01_15h29.33.916,EPIDM,2023.1.2,None,
2597.jpg,5870.jpg,5 Points,5 Points,347 points,PS2_L6.csv,,,,,,,,,,,,,,,,,,,,,,,,,,,,,0,5,5,5,0,15,15,15,,,,,,,,,,,,,,,,,,,1215.956471374957,q,0.12251133425161242,1216.1469942079857,,,,,,271402,B,2024-08-01_15h29.33.916,EPIDM,2023.1.2,None,
8033.jpg,7270.jpg,3 Points,3 Points,350 points,PS2_L6.csv,,,,,,,,,,,,,,,,,,,,,,,,,,,,,0,5,5,5,0,16,16,16,,,,,,,,,,,,,,,,,,,1220.3967104998883,p,0.19373949989676476,1220.6595152078662,,,,,,271402,B,2024-08-01_15h29.33.916,EPIDM,2023.1.2,None,
3170.jpg,6560.jpg,2 Points,2 Points,352 points,PS2_L6.csv,,,,,,,,,,,,,,,,,,,,,,,,,,,,,0,5,5,5,0,17,17,17,,,,,,,,,,,,,,,,,,,1224.9133946669754,q,0.26930879219435155,1225.2526362498756,,,,,,271402,B,2024-08-01_15h29.33.916,EPIDM,2023.1.2,None,
6242.jpg,F034.jpg,4 Points,4 Points,356 points,PS2_L6.csv,,,,,,,,,,,,,,,,,,,,,,,,,,,,,0,5,5,5,0,18,18,18,,,,,,,,,,,,,,,,,,,1229.5003416668624,p,0.2582810840103775,1229.8746772080194,,,,,,271402,B,2024-08-01_15h29.33.916,EPIDM,2023.1.2,None,
2485.jpg,7350.jpg,0 Points,0 Points,356 points,PS2_L6.csv,,,,,,,,,,,,,,,,,,,,,,,,,,,,,0,5,5,5,0,19,19,19,,,,,,,,,,,,,,,,,,,1234.0797839998268,p,0.13475220813415945,1234.2888627499342,,,,,,271402,B,2024-08-01_15h29.33.916,EPIDM,2023.1.2,None,
2900.jpg,1101.jpg,3 Points,3 Points,359 points,PS2_L6.csv,,,,,,,,,,,,,,,,,,,,,,,,,,,,,0,5,5,5,0,20,20,20,,,,,,,,,,,,,,,,,,,1238.5392510830425,p,0.1467257090844214,1238.7598965419456,,,,,,271402,B,2024-08-01_15h29.33.916,EPIDM,2023.1.2,None,
7002.jpg,4660.jpg,4 Points,4 Points,363 points,PS2_L6.csv,,,,,,,,,,,,,,,,,,,,,,,,,,,,,0,5,5,5,0,21,21,21,,,,,,,,,,,,,,,,,,,1243.0067354580387,p,0.19115616707131267,1243.277237916831,,,,,,271402,B,2024-08-01_15h29.33.916,EPIDM,2023.1.2,None,
A025.jpg,1051.jpg,0 Points,0 Points,363 points,PS2_L6.csv,,,,,,,,,,,,,,,,,,,,,,,,,,,,,0,5,5,5,0,22,22,22,,,,,,,,,,,,,,,,,,,1247.5172487918753,p,0.33686425001360476,1247.9701594170183,,,,,,271402,B,2024-08-01_15h29.33.916,EPIDM,2023.1.2,None,
4510.jpg,2230.jpg,5 Points,5 Points,368 points,PS2_L6.csv,,,,,,,,,,,,,,,,,,,,,,,,,,,,,0,5,5,5,0,23,23,23,,,,,,,,,,,,,,,,,,,1252.1658648748416,q,0.2803544590715319,1252.5262859170325,,,1263.0050372499973,space,1.7215345420408994,271402,B,2024-08-01_15h29.33.916,EPIDM,2023.1.2,None,
2383.jpg,1616.jpg,2 Points,2 Points,370 points,PS2_L7.csv,,,,,,,,,,,,,,,,,,,,,,,,,,,,,0,6,6,6,0,0,0,0,,,,,,,,,,,,,,,,,,,1268.0490672499873,q,0.32496108300983906,1268.4496364169754,,,,,,271402,B,2024-08-01_15h29.33.916,EPIDM,2023.1.2,None,
1310.jpg,3181.jpg,4 Points,4 Points,374 points,PS2_L7.csv,,,,,,,,,,,,,,,,,,,,,,,,,,,,,0,6,6,6,0,1,1,1,,,,,,,,,,,,,,,,,,,1272.689528292045,q,0.5730501262005419,1273.3358507920057,4,1.5423451671376824,,,,271402,B,2024-08-01_15h29.33.916,EPIDM,2023.1.2,None,
7289.jpg,4534.jpg,0 Points,0 Points,374 points,PS2_L7.csv,,,,,,,,,,,,,,,,,,,,,,,,,,,,,0,6,6,6,0,2,2,2,,,,,,,,,,,,,,,,,,,1279.1987158330157,q,0.3205165422987193,1279.5883342919406,,,,,,271402,B,2024-08-01_15h29.33.916,EPIDM,2023.1.2,None,
6010.jpg,7361.jpg,2 Points,2 Points,376 points,PS2_L7.csv,,,,,,,,,,,,,,,,,,,,,,,,,,,,,0,6,6,6,0,3,3,3,,,,,,,,,,,,,,,,,,,1283.8280905829743,p,0.27477816701866686,1284.1804634169675,,,,,,271402,B,2024-08-01_15h29.33.916,EPIDM,2023.1.2,None,
2661.jpg,2870.jpg,5 Points,5 Points,381 points,PS2_L7.csv,,,,,,,,,,,,,,,,,,,,,,,,,,,,,0,6,6,6,0,4,4,4,,,,,,,,,,,,,,,,,,,1288.4245306248777,q,0.15593637502752244,1288.6420229999349,,,,,,271402,B,2024-08-01_15h29.33.916,EPIDM,2023.1.2,None,
7220.jpg,8090.jpg,2 Points,2 Points,383 points,PS2_L7.csv,,,,,,,,,,,,,,,,,,,,,,,,,,,,,0,6,6,6,0,5,5,5,,,,,,,,,,,,,,,,,,,1292.9006502078846,p,0.2558462512679398,1293.225511791883,,,,,,271402,B,2024-08-01_15h29.33.916,EPIDM,2023.1.2,None,
9140.jpg,2810.jpg,3 Points,3 Points,386 points,PS2_L7.csv,,,,,,,,,,,,,,,,,,,,,,,,,,,,,0,6,6,6,0,6,6,6,,,,,,,,,,,,,,,,,,,1297.474179666955,q,0.4586149591486901,1297.9999866669532,,,,,,271402,B,2024-08-01_15h29.33.916,EPIDM,2023.1.2,None,
2516.jpg,8500.jpg,4 Points,4 Points,390 points,PS2_L7.csv,,,,,,,,,,,,,,,,,,,,,,,,,,,,,0,6,6,6,0,7,7,7,,,,,,,,,,,,,,,,,,,1302.257039292017,q,0.4042926251422614,1302.7347649168223,,,,,,271402,B,2024-08-01_15h29.33.916,EPIDM,2023.1.2,None,
9070.jpg,9420.jpg,2 Points,2 Points,392 points,PS2_L7.csv,,,,,,,,,,,,,,,,,,,,,,,,,,,,,0,6,6,6,0,8,8,8,,,,,,,,,,,,,,,,,,,1306.9806768328417,p,0.47203325014561415,1307.5222453328315,,,,,,271402,B,2024-08-01_15h29.33.916,EPIDM,2023.1.2,None,
6561.jpg,1525.jpg,2 Points,2 Points,394 points,PS2_L7.csv,,,,,,,,,,,,,,,,,,,,,,,,,,,,,0,6,6,6,0,9,9,9,,,,,,,,,,,,,,,,,,,1311.7666289999615,q,0.1734077502042055,1312.0017867500428,,,,,,271402,B,2024-08-01_15h29.33.916,EPIDM,2023.1.2,None,
7175.jpg,7490.jpg,2 Points,2 Points,396 points,PS2_L7.csv,,,,,,,,,,,,,,,,,,,,,,,,,,,,,0,6,6,6,0,10,10,10,,,,,,,,,,,,,,,,,,,1316.2607458329294,p,0.20874808402732015,1316.5478028750513,,,,,,271402,B,2024-08-01_15h29.33.916,EPIDM,2023.1.2,None,
8010.jpg,2630.jpg,0 Points,0 Points,396 points,PS2_L7.csv,,,,,,,,,,,,,,,,,,,,,,,,,,,,,0,6,6,6,0,11,11,11,,,,,,,,,,,,,,,,,,,1320.8012162500527,p,0.12358420807868242,1320.994497791864,,,,,,271402,B,2024-08-01_15h29.33.916,EPIDM,2023.1.2,None,
F174.jpg,9404.jpg,5 Points,5 Points,401 points,PS2_L7.csv,,,,,,,,,,,,,,,,,,,,,,,,,,,,,0,6,6,6,0,12,12,12,,,,,,,,,,,,,,,,,,,1325.233965124935,q,0.17077591712586582,1325.5253705000505,,,,,,271402,B,2024-08-01_15h29.33.916,EPIDM,2023.1.2,None,
2692.jpg,8231.jpg,4 Points,4 Points,405 points,PS2_L7.csv,,,,,,,,,,,,,,,,,,,,,,,,,,,,,0,6,6,6,0,13,13,13,,,,,,,,,,,,,,,,,,,1329.720614957856,q,0.3314552919473499,1330.1111245418433,4,1.5657080421224236,,,,271402,B,2024-08-01_15h29.33.916,EPIDM,2023.1.2,None,
5994.jpg,5390.jpg,0 Points,0 Points,405 points,PS2_L7.csv,,,,,,,,,,,,,,,,,,,,,,,,,,,,,0,6,6,6,0,14,14,14,,,,,,,,,,,,,,,,,,,1335.9932613328565,q,0.36196266720071435,1336.4179012498353,,,,,,271402,B,2024-08-01_15h29.33.916,EPIDM,2023.1.2,None,
9560.jpg,3071.jpg,1 Point,1 Point,406 points,PS2_L7.csv,,,,,,,,,,,,,,,,,,,,,,,,,,,,,0,6,6,6,0,15,15,15,,,,,,,,,,,,,,,,,,,1340.6785004578996,p,0.43942845915444195,1341.1813257080503,,,,,,271402,B,2024-08-01_15h29.33.916,EPIDM,2023.1.2,None,
9330.jpg,3015.jpg,5 Points,5 Points,411 points,PS2_L7.csv,,,,,,,,,,,,,,,,,,,,,,,,,,,,,0,6,6,6,0,16,16,16,,,,,,,,,,,,,,,,,,,1345.4316667499952,p,0.20474379207007587,1345.6943412078544,,,,,,271402,B,2024-08-01_15h29.33.916,EPIDM,2023.1.2,None,
2389.jpg,7320.jpg,0 Points,0 Points,411 points,PS2_L7.csv,,,,,,,,,,,,,,,,,,,,,,,,,,,,,0,6,6,6,0,17,17,17,,,,,,,,,,,,,,,,,,,1349.9534590828698,p,0.22697758418507874,1350.2570967499632,,,,,,271402,B,2024-08-01_15h29.33.916,EPIDM,2023.1.2,None,
6570.1.jpg,9432.jpg,5 Points,5 Points,416 points,PS2_L7.csv,,,,,,,,,,,,,,,,,,,,,,,,,,,,,0,6,6,6,0,18,18,18,,,,,,,,,,,,,,,,,,,1354.498724707868,p,0.1688275842461735,1354.7419355418533,,,,,,271402,B,2024-08-01_15h29.33.916,EPIDM,2023.1.2,None,
9452.jpg,7184.jpg,4 Points,4 Points,420 points,PS2_L7.csv,,,,,,,,,,,,,,,,,,,,,,,,,,,,,0,6,6,6,0,19,19,19,,,,,,,,,,,,,,,,,,,1358.986647249898,q,0.5287651671096683,1359.5874210419133,,,,,,271402,B,2024-08-01_15h29.33.916,EPIDM,2023.1.2,None,
5120.jpg,5520.jpg,2 Points,2 Points,422 points,PS2_L7.csv,,,,,,,,,,,,,,,,,,,,,,,,,,,,,0,6,6,6,0,20,20,20,,,,,,,,,,,,,,,,,,,1363.838373791892,p,0.24589575012214482,1364.156172625022,,,,,,271402,B,2024-08-01_15h29.33.916,EPIDM,2023.1.2,None,
5970.jpg,3300.jpg,0 Points,0 Points,422 points,PS2_L7.csv,,,,,,,,,,,,,,,,,,,,,,,,,,,,,0,6,6,6,0,21,21,21,,,,,,,,,,,,,,,,,,,1368.4022876250092,p,0.1610272501129657,1368.6329207499512,,,,,,271402,B,2024-08-01_15h29.33.916,EPIDM,2023.1.2,None,
7620.jpg,5395.jpg,1 Point,1 Point,423 points,PS2_L7.csv,,,,,,,,,,,,,,,,,,,,,,,,,,,,,0,6,6,6,0,22,22,22,,,,,,,,,,,,,,,,,,,1372.874178291997,p,0.24910833314061165,1373.1832547499798,,,,,,271402,B,2024-08-01_15h29.33.916,EPIDM,2023.1.2,None,
P019.jpg,F158.jpg,3 Points,3 Points,426 points,PS2_L7.csv,,,,,,,,,,,,,,,,,,,,,,,,,,,,,0,6,6,6,0,23,23,23,,,,,,,,,,,,,,,,,,,1377.4362335419282,p,0.27151366719044745,1377.8533127498813,,,1388.2638261248358,space,1.0983886253088713,271402,B,2024-08-01_15h29.33.916,EPIDM,2023.1.2,None,
2620.jpg,2594.jpg,0 Points,0 Points,426 points,PS2_L8.csv,,,,,,,,,,,,,,,,,,,,,,,,,,,,,0,7,7,7,0,0,0,0,,,,,,,,,,,,,,,,,,,1392.6854429999366,q,0.2292838750872761,1393.0150866250042,,,,,,271402,B,2024-08-01_15h29.33.916,EPIDM,2023.1.2,None,
F369.jpg,3100.jpg,2 Points,2 Points,428 points,PS2_L8.csv,,,,,,,,,,,,,,,,,,,,,,,,,,,,,0,7,7,7,0,1,1,1,,,,,,,,,,,,,,,,,,,1397.2248996668495,p,0.2816855830606073,1397.6010854579508,2,1.3624133761040866,,,,271402,B,2024-08-01_15h29.33.916,EPIDM,2023.1.2,None,
1052.jpg,1201.jpg,3 Points,3 Points,431 points,PS2_L8.csv,,,,,,,,,,,,,,,,,,,,,,,,,,,,,0,7,7,7,0,2,2,2,,,,,,,,,,,,,,,,,,,1403.278127499856,q,0.43771604215726256,1403.7855310419109,,,,,,271402,B,2024-08-01_15h29.33.916,EPIDM,2023.1.2,None,
2606.jpg,2480.jpg,1 Point,1 Point,432 points,PS2_L8.csv,,,,,,,,,,,,,,,,,,,,,,,,,,,,,0,7,7,7,0,3,3,3,,,,,,,,,,,,,,,,,,,1408.0501059999224,q,0.3840040420182049,1408.4963667918928,,,,,,271402,B,2024-08-01_15h29.33.916,EPIDM,2023.1.2,None,
9594.jpg,1080.jpg,4 Points,4 Points,436 points,PS2_L8.csv,,,,,,,,,,,,,,,,,,,,,,,,,,,,,0,7,7,7,0,4,4,4,,,,,,,,,,,,,,,,,,,1412.744550375035,q,0.2734800421167165,1413.087966375053,,,,,,271402,B,2024-08-01_15h29.33.916,EPIDM,2023.1.2,None,
4770.jpg,4275.jpg,3 Points,3 Points,439 points,PS2_L8.csv,,,,,,,,,,,,,,,,,,,,,,,,,,,,,0,7,7,7,0,5,5,5,,,,,,,,,,,,,,,,,,,1417.3313147500157,q,0.279461459023878,1417.6845416668802,,,,,,271402,B,2024-08-01_15h29.33.916,EPIDM,2023.1.2,None,
P077.jpg,A041.jpg,1 Point,1 Point,440 points,PS2_L8.csv,,,,,,,,,,,,,,,,,,,,,,,,,,,,,0,7,7,7,0,6,6,6,,,,,,,,,,,,,,,,,,,1421.9176957500167,q,0.2846670001745224,1422.3406290418934,,,,,,271402,B,2024-08-01_15h29.33.916,EPIDM,2023.1.2,None,
6550.jpg,9582.jpg,5 Points,5 Points,445 points,PS2_L8.csv,,,,,,,,,,,,,,,,,,,,,,,,,,,,,0,7,7,7,0,7,7,7,,,,,,,,,,,,,,,,,,,1426.5097537499387,p,0.3313452920410782,1426.9550744579174,,,,,,271402,B,2024-08-01_15h29.33.916,EPIDM,2023.1.2,None,
8040.jpg,7185.jpg,1 Point,1 Point,446 points,PS2_L8.csv,,,,,,,,,,,,,,,,,,,,,,,,,,,,,0,7,7,7,0,8,8,8,,,,,,,,,,,,,,,,,,,1431.1672781668603,q,0.3219401251990348,1431.5646134170238,,,,,,271402,B,2024-08-01_15h29.33.916,EPIDM,2023.1.2,None,
P233.jpg,3060.jpg,1 Point,1 Point,447 points,PS2_L8.csv,,,,,,,,,,,,,,,,,,,,,,,,,,,,,0,7,7,7,0,9,9,9,,,,,,,,,,,,,,,,,,,1435.8140822919086,q,0.3317663329653442,1436.2534454579,,,,,,271402,B,2024-08-01_15h29.33.916,EPIDM,2023.1.2,None,
1090.jpg,P217.jpg,5 Points,5 Points,452 points,PS2_L8.csv,,,,,,,,,,,,,,,,,,,,,,,,,,,,,0,7,7,7,0,10,10,10,,,,,,,,,,,,,,,,,,,1440.4573939170223,p,1.0645476670470089,1441.6636028748471,,,,,,271402,B,2024-08-01_15h29.33.916,EPIDM,2023.1.2,None,
9405.jpg,6250.2.jpg,3 Points,3 Points,455 points,PS2_L8.csv,,,,,,,,,,,,,,,,,,,,,,,,,,,,,0,7,7,7,0,11,11,11,,,,,,,,,,,,,,,,,,,1445.8440148748923,q,0.2288717501796782,1446.1789903328754,,,,,,271402,B,2024-08-01_15h29.33.916,EPIDM,2023.1.2,None,
1610.jpg,F203.jpg,0 Points,0 Points,455 points,PS2_L8.csv,,,,,,,,,,,,,,,,,,,,,,,,,,,,,0,7,7,7,0,12,12,12,,,,,,,,,,,,,,,,,,,1450.3925051670521,q,0.28845320804975927,1450.8083332078531,,,,,,271402,B,2024-08-01_15h29.33.916,EPIDM,2023.1.2,None,
P222.jpg,9401.jpg,2 Points,2 Points,457 points,PS2_L8.csv,,,,,,,,,,,,,,,,,,,,,,,,,,,,,0,7,7,7,0,13,13,13,,,,,,,,,,,,,,,,,,,1455.0175443328917,q,0.26369779207743704,1455.4224342498928,2,1.2825437090359628,,,,271402,B,2024-08-01_15h29.33.916,EPIDM,2023.1.2,None,
5471.jpg,7352.jpg,2 Points,2 Points,459 points,PS2_L8.csv,,,,,,,,,,,,,,,,,,,,,,,,,,,,,0,7,7,7,0,14,14,14,,,,,,,,,,,,,,,,,,,1460.9918870830443,q,0.28043570811860263,1461.3464592918754,,,,,,271402,B,2024-08-01_15h29.33.916,EPIDM,2023.1.2,None,
9042.jpg,2753.jpg,0 Points,0 Points,459 points,PS2_L8.csv,,,,,,,,,,,,,,,,,,,,,,,,,,,,,0,7,7,7,0,15,15,15,,,,,,,,,,,,,,,,,,,1465.5879521248862,p,0.17156516714021564,1465.8259797079954,,,,,,271402,B,2024-08-01_15h29.33.916,EPIDM,2023.1.2,None,
8311.jpg,4609.jpg,2 Points,2 Points,461 points,PS2_L8.csv,,,,,,,,,,,,,,,,,,,,,,,,,,,,,0,7,7,7,0,16,16,16,,,,,,,,,,,,,,,,,,,1470.090124374954,p,0.2148340840358287,1470.3669450830203,,,,,,271402,B,2024-08-01_15h29.33.916,EPIDM,2023.1.2,None,
2320.jpg,2791.jpg,4 Points,4 Points,465 points,PS2_L8.csv,,,,,,,,,,,,,,,,,,,,,,,,,,,,,0,7,7,7,0,17,17,17,,,,,,,,,,,,,,,,,,,1474.630869125016,q,0.2023814171552658,1474.8990852078423,,,,,,271402,B,2024-08-01_15h29.33.916,EPIDM,2023.1.2,None,
F365.jpg,3180.jpg,5 Points,5 Points,470 points,PS2_L8.csv,,,,,,,,,,,,,,,,,,,,,,,,,,,,,0,7,7,7,0,18,18,18,,,,,,,,,,,,,,,,,,,1479.148406167049,p,0.17172350105829537,1479.4252843328286,,,,,,271402,B,2024-08-01_15h29.33.916,EPIDM,2023.1.2,None,
9300.jpg,1050.jpg,4 Points,4 Points,474 points,PS2_L8.csv,,,,,,,,,,,,,,,,,,,,,,,,,,,,,0,7,7,7,0,19,19,19,,,,,,,,,,,,,,,,,,,1483.6462055828888,q,0.2743767090141773,1483.9848292078823,,,,,,271402,B,2024-08-01_15h29.33.916,EPIDM,2023.1.2,None,
6150.jpg,2206.jpg,0 Points,0 Points,474 points,PS2_L8.csv,,,,,,,,,,,,,,,,,,,,,,,,,,,,,0,7,7,7,0,20,20,20,,,,,,,,,,,,,,,,,,,1488.2288956248667,p,0.1790862090419978,1488.4780997920316,,,,,,271402,B,2024-08-01_15h29.33.916,EPIDM,2023.1.2,None,
6260.jpg,3062.jpg,3 Points,3 Points,477 points,PS2_L8.csv,,,,,,,,,,,,,,,,,,,,,,,,,,,,,0,7,7,7,0,21,21,21,,,,,,,,,,,,,,,,,,,1492.728095792001,q,0.1758493750821799,1492.9719630000181,,,,,,271402,B,2024-08-01_15h29.33.916,EPIDM,2023.1.2,None,
6571.jpg,P237.jpg,2 Points,2 Points,479 points,PS2_L8.csv,,,,,,,,,,,,,,,,,,,,,,,,,,,,,0,7,7,7,0,22,22,22,,,,,,,,,,,,,,,,,,,1497.2126540418249,p,0.22729525016620755,1497.555707582971,,,,,,271402,B,2024-08-01_15h29.33.916,EPIDM,2023.1.2,None,
7283.jpg,1720.jpg,4 Points,4 Points,483 points,PS2_L8.csv,,,,,,,,,,,,,,,,,,,,,,,,,,,,,0,7,7,7,0,23,23,23,,,,,,,,,,,,,,,,,,,1501.7593425000086,q,0.18484604195691645,1502.0654493330512,,,1512.5236908749212,space,1.5892101251520216,271402,B,2024-08-01_15h29.33.916,EPIDM,2023.1.2,None,
3160.jpg,6210.jpg,1 Point,1 Point,484 points,PS2_L9.csv,,,,,,,,,,,,,,,,,,,,,,,,,,,,,0,8,8,8,0,0,0,0,,,,,,,,,,,,,,,,,,,1517.4382511668373,q,0.38542841700837016,1517.8926297919825,,,,,,271402,B,2024-08-01_15h29.33.916,EPIDM,2023.1.2,None,
2100.jpg,7205.jpg,5 Points,5 Points,489 points,PS2_L9.csv,,,,,,,,,,,,,,,,,,,,,,,,,,,,,0,8,8,8,0,1,1,1,,,,,,,,,,,,,,,,,,,1522.1313606249169,q,0.23560262518003583,1522.4493088328745,5,1.7436527502723038,,,,271402,B,2024-08-01_15h29.33.916,EPIDM,2023.1.2,None,
9110.jpg,3051.jpg,1 Point,1 Point,490 points,PS2_L9.csv,,,,,,,,,,,,,,,,,,,,,,,,,,,,,0,8,8,8,0,2,2,2,,,,,,,,,,,,,,,,,,,1528.506711666938,p,0.4354669579770416,1529.0228762920015,,,,,,271402,B,2024-08-01_15h29.33.916,EPIDM,2023.1.2,None,
9101.jpg,9571.jpg,2 Points,2 Points,492 points,PS2_L9.csv,,,,,,,,,,,,,,,,,,,,,,,,,,,,,0,8,8,8,0,3,3,3,,,,,,,,,,,,,,,,,,,1533.2818342079408,p,0.7333770000841469,1534.089691333007,,,,,,271402,B,2024-08-01_15h29.33.916,EPIDM,2023.1.2,None,
5410.jpg,1450.jpg,5 Points,5 Points,497 points,PS2_L9.csv,,,,,,,,,,,,,,,,,,,,,,,,,,,,,0,8,8,8,0,4,4,4,,,,,,,,,,,,,,,,,,,1538.3315889169462,q,0.10719145811162889,1538.4942938748281,,,,,,271402,B,2024-08-01_15h29.33.916,EPIDM,2023.1.2,None,
F149.jpg,3030.jpg,0 Points,0 Points,497 points,PS2_L9.csv,,,,,,,,,,,,,,,,,,,,,,,,,,,,,0,8,8,8,0,5,5,5,,,,,,,,,,,,,,,,,,,1542.7493682499044,q,0.16128295799717307,1543.015968249878,,,,,,271402,B,2024-08-01_15h29.33.916,EPIDM,2023.1.2,None,
3266.jpg,7360.jpg,1 Point,1 Point,498 points,PS2_L9.csv,,,,,,,,,,,,,,,,,,,,,,,,,,,,,0,8,8,8,0,6,6,6,,,,,,,,,,,,,,,,,,,1547.2481302919332,p,0.16599420900456607,1547.5232426668517,,,,,,271402,B,2024-08-01_15h29.33.916,EPIDM,2023.1.2,None,
5660.jpg,5201.jpg,0 Points,0 Points,498 points,PS2_L9.csv,,,,,,,,,,,,,,,,,,,,,,,,,,,,,0,8,8,8,0,7,7,7,,,,,,,,,,,,,,,,,,,1551.7472022080328,q,0.20274683414027095,1552.0289287080523,,,,,,271402,B,2024-08-01_15h29.33.916,EPIDM,2023.1.2,None,
1945.jpg,2800.jpg,4 Points,4 Points,502 points,PS2_L9.csv,,,,,,,,,,,,,,,,,,,,,,,,,,,,,0,8,8,8,0,8,8,8,,,,,,,,,,,,,,,,,,,1556.2676574168727,p,0.11401591706089675,1556.4610025419388,,,,,,271402,B,2024-08-01_15h29.33.916,EPIDM,2023.1.2,None,
3000.jpg,6200.jpg,5 Points,5 Points,507 points,PS2_L9.csv,,,,,,,,,,,,,,,,,,,,,,,,,,,,,0,8,8,8,0,9,9,9,,,,,,,,,,,,,,,,,,,1560.7059421248268,q,0.36412279191426933,1561.1330376248807,,,,,,271402,B,2024-08-01_15h29.33.916,EPIDM,2023.1.2,None,
2215.jpg,2512.jpg,1 Point,1 Point,508 points,PS2_L9.csv,,,,,,,,,,,,,,,,,,,,,,,,,,,,,0,8,8,8,0,10,10,10,,,,,,,,,,,,,,,,,,,1565.3811800829135,p,0.25727841700427234,1565.7046278750058,,,,,,271402,B,2024-08-01_15h29.33.916,EPIDM,2023.1.2,None,
5460.jpg,5800.jpg,0 Points,0 Points,508 points,PS2_L9.csv,,,,,,,,,,,,,,,,,,,,,,,,,,,,,0,8,8,8,0,11,11,11,,,,,,,,,,,,,,,,,,,1569.9508657078259,q,0.2227458341512829,1570.2557047498412,,,,,,271402,B,2024-08-01_15h29.33.916,EPIDM,2023.1.2,None,
3061.jpg,2717.jpg,4 Points,4 Points,512 points,PS2_L9.csv,,,,,,,,,,,,,,,,,,,,,,,,,,,,,0,8,8,8,0,12,12,12,,,,,,,,,,,,,,,,,,,1574.4957107498776,q,0.6545913761947304,1575.2262566669378,,,,,,271402,B,2024-08-01_15h29.33.916,EPIDM,2023.1.2,None,
7380.jpg,1220.jpg,1 Point,1 Point,513 points,PS2_L9.csv,,,,,,,,,,,,,,,,,,,,,,,,,,,,,0,8,8,8,0,13,13,13,,,,,,,,,,,,,,,,,,,1579.4796411669813,q,0.6700492922682315,1580.2033117078245,1,1.257407542085275,,,,271402,B,2024-08-01_15h29.33.916,EPIDM,2023.1.2,None,
1740.jpg,7480.jpg,0 Points,0 Points,513 points,PS2_L9.csv,,,,,,,,,,,,,,,,,,,,,,,,,,,,,0,8,8,8,0,14,14,14,,,,,,,,,,,,,,,,,,,1585.8002603328787,q,0.35790491732768714,1586.221014374867,,,,,,271402,B,2024-08-01_15h29.33.916,EPIDM,2023.1.2,None,
7285.jpg,4233.jpg,5 Points,5 Points,518 points,PS2_L9.csv,,,,,,,,,,,,,,,,,,,,,,,,,,,,,0,8,8,8,0,15,15,15,,,,,,,,,,,,,,,,,,,1590.4665817499626,q,0.4899547090753913,1591.0311332498677,,,,,,271402,B,2024-08-01_15h29.33.916,EPIDM,2023.1.2,None,
6830.jpg,6212.jpg,4 Points,4 Points,522 points,PS2_L9.csv,,,,,,,,,,,,,,,,,,,,,,,,,,,,,0,8,8,8,0,16,16,16,,,,,,,,,,,,,,,,,,,1595.2801982078236,p,0.1486944172065705,1595.495148499962,,,,,,271402,B,2024-08-01_15h29.33.916,EPIDM,2023.1.2,None,
7830.jpg,2499.jpg,3 Points,3 Points,525 points,PS2_L9.csv,,,,,,,,,,,,,,,,,,,,,,,,,,,,,0,8,8,8,0,17,17,17,,,,,,,,,,,,,,,,,,,1599.7435159168672,p,0.21231562504544854,1600.0305164169986,,,,,,271402,B,2024-08-01_15h29.33.916,EPIDM,2023.1.2,None,
9520.jpg,1931.jpg,3 Points,3 Points,528 points,PS2_L9.csv,,,,,,,,,,,,,,,,,,,,,,,,,,,,,0,8,8,8,0,18,18,18,,,,,,,,,,,,,,,,,,,1604.2839387499262,q,0.2798912920989096,1604.6230479169171,,,,,,271402,B,2024-08-01_15h29.33.916,EPIDM,2023.1.2,None,
9160.jpg,1200.jpg,4 Points,4 Points,532 points,PS2_L9.csv,,,,,,,,,,,,,,,,,,,,,,,,,,,,,0,8,8,8,0,19,19,19,,,,,,,,,,,,,,,,,,,1608.8831415828317,q,0.33014195901341736,1609.2999554169364,,,,,,271402,B,2024-08-01_15h29.33.916,EPIDM,2023.1.2,None,
2020.jpg,1947.jpg,5 Points,5 Points,537 points,PS2_L9.csv,,,,,,,,,,,,,,,,,,,,,,,,,,,,,0,8,8,8,0,20,20,20,,,,,,,,,,,,,,,,,,,1613.5435916248243,p,0.8447630840819329,1614.465919625014,,,,,,271402,B,2024-08-01_15h29.33.916,EPIDM,2023.1.2,None,
4535.jpg,1811.jpg,1 Point,1 Point,538 points,PS2_L9.csv,,,,,,,,,,,,,,,,,,,,,,,,,,,,,0,8,8,8,0,21,21,21,,,,,,,,,,,,,,,,,,,1618.7138933329843,q,1.0271398331969976,1619.8135853328276,,,,,,271402,B,2024-08-01_15h29.33.916,EPIDM,2023.1.2,None,
9910.jpg,6940.jpg,2 Points,2 Points,540 points,PS2_L9.csv,,,,,,,,,,,,,,,,,,,,,,,,,,,,,0,8,8,8,0,22,22,22,,,,,,,,,,,,,,,,,,,1624.0546834999695,q,0.7501808751840144,1624.8763126670383,,,,,,271402,B,2024-08-01_15h29.33.916,EPIDM,2023.1.2,None,
9480.jpg,9250.jpg,0 Points,0 Points,540 points,PS2_L9.csv,,,,,,,,,,,,,,,,,,,,,,,,,,,,,0,8,8,8,0,23,23,23,,,,,,,,,,,,,,,,,,,1629.1279682498425,p,0.34092825115658343,1629.5229901669081,,,1639.9944369578734,space,1.5783620842266828,271402,B,2024-08-01_15h29.33.916,EPIDM,2023.1.2,None,
1660.jpg,2840.jpg,2 Points,2 Points,542 points,PS2_L10.csv,,,,,,,,,,,,,,,,,,,,,,,,,,,,,0,9,9,9,0,0,0,0,,,,,,,,,,,,,,,,,,,1644.8915187919047,q,0.6404967501293868,1645.6041123329196,,,,,,271402,B,2024-08-01_15h29.33.916,EPIDM,2023.1.2,None,
2691.jpg,7640.jpg,0 Points,0 Points,542 points,PS2_L10.csv,,,,,,,,,,,,,,,,,,,,,,,,,,,,,0,9,9,9,0,1,1,1,,,,,,,,,,,,,,,,,,,1649.8485703328624,q,0.26082054199650884,1650.1651270419825,0,1.2531007921788841,,,,271402,B,2024-08-01_15h29.33.916,EPIDM,2023.1.2,None,
9180.jpg,9046.jpg,3 Points,3 Points,545 points,PS2_L10.csv,,,,,,,,,,,,,,,,,,,,,,,,,,,,,0,9,9,9,0,2,2,2,,,,,,,,,,,,,,,,,,,1655.7356834998354,q,0.2827792090829462,1656.0901650418527,,,,,,271402,B,2024-08-01_15h29.33.916,EPIDM,2023.1.2,None,
8041.jpg,2271.jpg,2 Points,2 Points,547 points,PS2_L10.csv,,,,,,,,,,,,,,,,,,,,,,,,,,,,,0,9,9,9,0,3,3,3,,,,,,,,,,,,,,,,,,,1660.3410059998278,q,0.6785578751005232,1661.091289457865,,,,,,271402,B,2024-08-01_15h29.33.916,EPIDM,2023.1.2,None,
1661.jpg,1321.jpg,3 Points,3 Points,550 points,PS2_L10.csv,,,,,,,,,,,,,,,,,,,,,,,,,,,,,0,9,9,9,0,4,4,4,,,,,,,,,,,,,,,,,,,1665.3424162918236,q,0.17338737519457936,1665.5826342080254,,,,,,271402,B,2024-08-01_15h29.33.916,EPIDM,2023.1.2,None,
9430.jpg,3010.jpg,5 Points,5 Points,555 points,PS2_L10.csv,,,,,,,,,,,,,,,,,,,,,,,,,,,,,0,9,9,9,0,5,5,5,,,,,,,,,,,,,,,,,,,1669.8383087080438,q,0.277265541953966,1670.1670166249387,,,,,,271402,B,2024-08-01_15h29.33.916,EPIDM,2023.1.2,None,
2616.jpg,7238.jpg,4 Points,4 Points,559 points,PS2_L10.csv,,,,,,,,,,,,,,,,,,,,,,,,,,,,,0,9,9,9,0,6,6,6,,,,,,,,,,,,,,,,,,,1674.434371249983,q,0.2581089581362903,1674.7598880419973,,,,,,271402,B,2024-08-01_15h29.33.916,EPIDM,2023.1.2,None,
9470.jpg,9400.jpg,3 Points,3 Points,562 points,PS2_L10.csv,,,,,,,,,,,,,,,,,,,,,,,,,,,,,0,9,9,9,0,7,7,7,,,,,,,,,,,,,,,,,,,1679.0176057498902,p,0.31310912617482245,1679.386758874869,,,,,,271402,B,2024-08-01_15h29.33.916,EPIDM,2023.1.2,None,
8260.jpg,8280.jpg,3 Points,3 Points,565 points,PS2_L10.csv,,,,,,,,,,,,,,,,,,,,,,,,,,,,,0,9,9,9,0,8,8,8,,,,,,,,,,,,,,,,,,,1683.6514238328673,q,0.11985799996182323,1683.8325448748656,,,,,,271402,B,2024-08-01_15h29.33.916,EPIDM,2023.1.2,None,
9230.jpg,9181.jpg,0 Points,0 Points,565 points,PS2_L10.csv,,,,,,,,,,,,,,,,,,,,,,,,,,,,,0,9,9,9,0,9,9,9,,,,,,,,,,,,,,,,,,,1688.0885967500508,p,0.9949203750584275,1689.1506764579099,,,,,,271402,B,2024-08-01_15h29.33.916,EPIDM,2023.1.2,None,
6834.jpg,9120.jpg,5 Points,5 Points,570 points,PS2_L10.csv,,,,,,,,,,,,,,,,,,,,,,,,,,,,,0,9,9,9,0,10,10,10,,,,,,,,,,,,,,,,,,,1693.4067893750034,q,0.4684191672131419,1693.9454638329335,,,,,,271402,B,2024-08-01_15h29.33.916,EPIDM,2023.1.2,None,
2440.jpg,7351.jpg,4 Points,4 Points,574 points,PS2_L10.csv,,,,,,,,,,,,,,,,,,,,,,,,,,,,,0,9,9,9,0,11,11,11,,,,,,,,,,,,,,,,,,,1698.2003167078365,q,0.7863728750962764,1699.0571049170103,,,,,,271402,B,2024-08-01_15h29.33.916,EPIDM,2023.1.2,None,
9280.jpg,9390.jpg,1 Point,1 Point,575 points,PS2_L10.csv,,,,,,,,,,,,,,,,,,,,,,,,,,,,,0,9,9,9,0,12,12,12,,,,,,,,,,,,,,,,,,,1703.3002800829709,q,0.5026002079248428,1703.8834333328996,,,,,,271402,B,2024-08-01_15h29.33.916,EPIDM,2023.1.2,None,
7186.jpg,9182.jpg,2 Points,2 Points,577 points,PS2_L10.csv,,,,,,,,,,,,,,,,,,,,,,,,,,,,,0,9,9,9,0,13,13,13,,,,,,,,,,,,,,,,,,,1708.1261902919505,p,0.3659103342797607,1708.5797759168781,2,1.3346666260622442,,,,271402,B,2024-08-01_15h29.33.916,EPIDM,2023.1.2,None,
7820.jpg,1121.jpg,0 Points,0 Points,577 points,PS2_L10.csv,,,,,,,,,,,,,,,,,,,,,,,,,,,,,0,9,9,9,0,14,14,14,,,,,,,,,,,,,,,,,,,1714.2193752080202,p,0.4552137921564281,1714.7530702499207,,,,,,271402,B,2024-08-01_15h29.33.916,EPIDM,2023.1.2,None,
1110.jpg,9331.jpg,2 Points,2 Points,579 points,PS2_L10.csv,,,,,,,,,,,,,,,,,,,,,,,,,,,,,0,9,9,9,0,15,15,15,,,,,,,,,,,,,,,,,,,1719.0016920419876,q,0.2963775002863258,1719.3672590418719,,,,,,271402,B,2024-08-01_15h29.33.916,EPIDM,2023.1.2,None,
9001.jpg,9620.jpg,1 Point,1 Point,580 points,PS2_L10.csv,,,,,,,,,,,,,,,,,,,,,,,,,,,,,0,9,9,9,0,16,16,16,,,,,,,,,,,,,,,,,,,1723.623210541904,p,0.394232917111367,1724.1006038750056,,,,,,271402,B,2024-08-01_15h29.33.916,EPIDM,2023.1.2,None,
5535.jpg,8210.jpg,3 Points,3 Points,583 points,PS2_L10.csv,,,,,,,,,,,,,,,,,,,,,,,,,,,,,0,9,9,9,0,17,17,17,,,,,,,,,,,,,,,,,,,1728.3397318748757,q,0.3896132502704859,1728.8089969579596,,,,,,271402,B,2024-08-01_15h29.33.916,EPIDM,2023.1.2,None,
7950.jpg,7187.jpg,1 Point,1 Point,584 points,PS2_L10.csv,,,,,,,,,,,,,,,,,,,,,,,,,,,,,0,9,9,9,0,18,18,18,,,,,,,,,,,,,,,,,,,1733.0555017078295,q,0.30647362512536347,1733.4399682499934,,,,,,271402,B,2024-08-01_15h29.33.916,EPIDM,2023.1.2,None,
3250.jpg,A053.jpg,3 Points,3 Points,587 points,PS2_L10.csv,,,,,,,,,,,,,,,,,,,,,,,,,,,,,0,9,9,9,0,19,19,19,,,,,,,,,,,,,,,,,,,1737.6916074168403,q,0.333305082982406,1738.1294442499056,,,,,,271402,B,2024-08-01_15h29.33.916,EPIDM,2023.1.2,None,
2205.jpg,3053.jpg,4 Points,4 Points,591 points,PS2_L10.csv,,,,,,,,,,,,,,,,,,,,,,,,,,,,,0,9,9,9,0,20,20,20,,,,,,,,,,,,,,,,,,,1742.3396423750091,p,0.3510685421060771,1742.7549130418338,,,,,,271402,B,2024-08-01_15h29.33.916,EPIDM,2023.1.2,None,
5594.jpg,5750.jpg,5 Points,5 Points,596 points,PS2_L10.csv,,,,,,,,,,,,,,,,,,,,,,,,,,,,,0,9,9,9,0,21,21,21,,,,,,,,,,,,,,,,,,,1747.0062382919714,p,1.051761459093541,1748.1279834168963,,,,,,271402,B,2024-08-01_15h29.33.916,EPIDM,2023.1.2,None,
6900.jpg,8531.jpg,4 Points,4 Points,600 points,PS2_L10.csv,,,,,,,,,,,,,,,,,,,,,,,,,,,,,0,9,9,9,0,22,22,22,,,,,,,,,,,,,,,,,,,1752.3676619168837,p,0.28951649996452034,1752.723156125052,,,,,,271402,B,2024-08-01_15h29.33.916,EPIDM,2023.1.2,None,
1019.jpg,2120.jpg,0 Points,0 Points,600 points,PS2_L10.csv,,,,,,,,,,,,,,,,,,,,,,,,,,,,,0,9,9,9,0,23,23,23,,,,,,,,,,,,,,,,,,,1756.965850832872,q,0.21111991722136736,1757.2529544578865,,,1767.726710041985,space,3.369540376123041,271402,B,2024-08-01_15h29.33.916,EPIDM,2023.1.2,None,
