L_Scene,R_Scene,Points_L,Points_R,PtTotal,blockFile,Instructions_Loop.thisRepN,Instructions_Loop.thisTrialN,Instructions_Loop.thisN,Instructions_Loop.thisIndex,Redo_Instructions_Loop.thisRepN,Redo_Instructions_Loop.thisTrialN,Redo_Instructions_Loop.thisN,Redo_Instructions_Loop.thisIndex,Practice_Encoding_Loop.thisRepN,Practice_Encoding_Loop.thisTrialN,Practice_Encoding_Loop.thisN,Practice_Encoding_Loop.thisIndex,Practice_Response_Fail_Loop.thisRepN,Practice_Response_Fail_Loop.thisTrialN,Practice_Response_Fail_Loop.thisN,Practice_Response_Fail_Loop.thisIndex,Practice_FB_Loop.thisRepN,Practice_FB_Loop.thisTrialN,Practice_FB_Loop.thisN,Practice_FB_Loop.thisIndex,Practice_Attention_Loop.thisRepN,Practice_Attention_Loop.thisTrialN,Practice_Attention_Loop.thisN,Practice_Attention_Loop.thisIndex,Practice_EncBrk_Loop.thisRepN,Practice_EncBrk_Loop.thisTrialN,Practice_EncBrk_Loop.thisN,Practice_EncBrk_Loop.thisIndex,Encoding_Loop.thisRepN,Encoding_Loop.thisTrialN,Encoding_Loop.thisN,Encoding_Loop.thisIndex,EncStim_Loop.thisRepN,EncStim_Loop.thisTrialN,EncStim_Loop.thisN,EncStim_Loop.thisIndex,Response_Fail_Loop.thisRepN,Response_Fail_Loop.thisTrialN,Response_Fail_Loop.thisN,Response_Fail_Loop.thisIndex,FB_Loop.thisRepN,FB_Loop.thisTrialN,FB_Loop.thisN,FB_Loop.thisIndex,Attention_Loop.thisRepN,Attention_Loop.thisTrialN,Attention_Loop.thisN,Attention_Loop.thisIndex,EncBrk_Loop.thisRepN,EncBrk_Loop.thisTrialN,EncBrk_Loop.thisN,EncBrk_Loop.thisIndex,Transition_Enc.keys,Transition_Enc.rt,Encoding_Resp.started,Encoding_Resp.keys,Encoding_Resp.rt,R_Point_FB_Stim.started,Attn_resp.keys,Attn_resp.rt,Progress_Tracker.started,EncBrk_Resp.keys,EncBrk_Resp.rt,participant,Group,date,expName,psychopyVersion,frameRate,
,,,,,,,,,,,,,,,,,,,,,,,,,,,,,,,,,,,,,,,,,,,,,,,,,,,,,,,,,,space,3.4872224170248955,,,,,,,,,,15,A,2024-08-22_09h16.25.181,EPIDM,2023.1.2,60.121852006007394,
A060.jpg,F041.jpg,5 Points,5 Points,5 Points,,,,,,,,,,0,0,0,0,,,,,,,,,,,,,,,,,,,,,,,,,,,,,,,,,,,,,,,,,,,166.26197091606446,p,1.4348980418872088,167.8349917079322,,,,,,15,A,2024-08-22_09h16.25.181,EPIDM,2023.1.2,60.121852006007394,
O161.jpg,1812.jpg,2 Points,2 Points,7 Points,,,,,,,,,,0,1,1,1,,,,,,,,,,,,,,,,,,,,,,,,,,,,,,,,,,,,,,,,,,,172.01175345806405,p,1.0215393749531358,173.1677310001105,,,,,,15,A,2024-08-22_09h16.25.181,EPIDM,2023.1.2,60.121852006007394,
O013.jpg,A001.jpg,3 Points,3 Points,10 Points,,,,,,,,,,0,2,2,2,,,,,,,,,,,,,,,,,,,,,,,,,,,,,,,,,,,,,,,,,,,177.34254716616124,q,1.306496208999306,178.7970457500778,,,,,,15,A,2024-08-22_09h16.25.181,EPIDM,2023.1.2,60.121852006007394,
P036.jpg,F273.jpg,5 Points,5 Points,15 Points,,,,,,,,,,0,3,3,3,,,,,,,,,,,,,,,,,,,,,,,,,,,,,,,,,,,,,,,,,,,182.95868100016378,q,1.2817689999938011,184.4067124160938,,,,,,15,A,2024-08-22_09h16.25.181,EPIDM,2023.1.2,60.121852006007394,
L130.jpg,2393.jpg,0 Points,0 Points,15 Points,,,,,,,,,,0,4,4,4,,,,,,,,,,,,,,,,,,,,,,,,,,,,,,,,,,,,,,,,,,,188.5548112911638,p,1.205548166995868,189.89542866614647,0,3.590479000005871,,,,15,A,2024-08-22_09h16.25.181,EPIDM,2023.1.2,60.121852006007394,
F279.jpg,P033.jpg,3 Points,3 Points,18 Points,,,,,,,,,,0,5,5,5,,,,,,,,,,,,,,,,,,,,,,,,,,,,,,,,,,,,,,,,,,,197.77898933296092,q,1.3583402920048684,199.27633000002243,,,,,,15,A,2024-08-22_09h16.25.181,EPIDM,2023.1.2,60.121852006007394,
A104.jpg,2593.jpg,2 Points,2 Points,20 Points,,,,,,,,,,0,6,6,6,,,,,,,,,,,,,,,,,,,,,,,,,,,,,,,,,,,,,,,,,,,203.4436848750338,q,1.012771459063515,204.58860975014977,,,,,,15,A,2024-08-22_09h16.25.181,EPIDM,2023.1.2,60.121852006007394,
2598.jpg,2605.jpg,0 Points,0 Points,20 Points,,,,,,,,,,0,7,7,7,,,,,,,,,,,,,,,,,,,,,,,,,,,,,,,,,,,,,,,,,,,208.75808625016361,p,1.6014615420717746,210.46356458310038,,,,,,15,A,2024-08-22_09h16.25.181,EPIDM,2023.1.2,60.121852006007394,
L005.jpg,O011.jpg,1 Points,1 Points,21 Points,,,,,,,,,,0,8,8,8,,,,,,,,,,,,,,,,,,,,,,,,,,,,,,,,,,,,,,,,,,,214.67877433309332,q,1.9861893330235034,216.8016150831245,,,,,,15,A,2024-08-22_09h16.25.181,EPIDM,2023.1.2,60.121852006007394,
8186.jpg,F078.jpg,2 Points,2 Points,23 Points,,,,,,,,,,0,9,9,9,,,,,,,,,,,,,,,,,,,,,,,,,,,,,,,,,,,,,,,,,,,220.97872691601515,q,0.7413293339777738,221.85919716604985,2,1.3584456669632345,233.48022983316332,space,5.120701624779031,15,A,2024-08-22_09h16.25.181,EPIDM,2023.1.2,60.121852006007394,
,,,,,,,,,,,,,,,,,,,,,,,,,,,,,,,,,,,,,,,,,,,,,,,,,,,,,,,,,,space,1.9816387090831995,,,,,,,,,,15,A,2024-08-22_09h16.25.181,EPIDM,2023.1.2,60.121852006007394,
1019.jpg,2120.jpg,0 Points,0 Points,0 Points,PS1_L1.csv,,,,,,,,,,,,,,,,,,,,,,,,,,,,,0,0,0,0,0,0,0,0,,,,,,,,,,,,,,,,,,,291.1408441250678,q,0.8345400840044022,292.07999450014904,,,,,,15,A,2024-08-22_09h16.25.181,EPIDM,2023.1.2,60.121852006007394,
6900.jpg,8531.jpg,4 Points,4 Points,4 Points,PS1_L1.csv,,,,,,,,,,,,,,,,,,,,,,,,,,,,,0,0,0,0,0,1,1,1,,,,,,,,,,,,,,,,,,,296.28317445795983,q,0.6111180419102311,296.9588905000128,4,1.5683955000713468,,,,15,A,2024-08-22_09h16.25.181,EPIDM,2023.1.2,60.121852006007394,
5594.jpg,5750.jpg,5 Points,5 Points,9 Points,PS1_L1.csv,,,,,,,,,,,,,,,,,,,,,,,,,,,,,0,0,0,0,0,2,2,2,,,,,,,,,,,,,,,,,,,302.8358088331297,p,1.0587611261289567,303.97294170805253,,,,,,15,A,2024-08-22_09h16.25.181,EPIDM,2023.1.2,60.121852006007394,
2205.jpg,3053.jpg,4 Points,4 Points,13 Points,PS1_L1.csv,,,,,,,,,,,,,,,,,,,,,,,,,,,,,0,0,0,0,0,3,3,3,,,,,,,,,,,,,,,,,,,308.20526745799,p,0.649443041998893,308.93955466593616,,,,,,15,A,2024-08-22_09h16.25.181,EPIDM,2023.1.2,60.121852006007394,
3250.jpg,A053.jpg,3 Points,3 Points,16 Points,PS1_L1.csv,,,,,,,,,,,,,,,,,,,,,,,,,,,,,0,0,0,0,0,4,4,4,,,,,,,,,,,,,,,,,,,313.17674995795824,q,0.6306056671310216,313.90851158299483,,,,,,15,A,2024-08-22_09h16.25.181,EPIDM,2023.1.2,60.121852006007394,
7950.jpg,7187.jpg,1 Point,1 Point,17 Points,PS1_L1.csv,,,,,,,,,,,,,,,,,,,,,,,,,,,,,0,0,0,0,0,5,5,5,,,,,,,,,,,,,,,,,,,318.12088175001554,p,1.326215042034164,319.5186042501591,,,,,,15,A,2024-08-22_09h16.25.181,EPIDM,2023.1.2,60.121852006007394,
5535.jpg,8210.jpg,3 Points,3 Points,20 Points,PS1_L1.csv,,,,,,,,,,,,,,,,,,,,,,,,,,,,,0,0,0,0,0,6,6,6,,,,,,,,,,,,,,,,,,,323.76004245807417,q,0.741930958814919,324.5702578329947,,,,,,15,A,2024-08-22_09h16.25.181,EPIDM,2023.1.2,60.121852006007394,
9001.jpg,9620.jpg,1 Point,1 Point,21 Points,PS1_L1.csv,,,,,,,,,,,,,,,,,,,,,,,,,,,,,0,0,0,0,0,7,7,7,,,,,,,,,,,,,,,,,,,328.8088249999564,q,1.4143608340527862,330.30950079113245,,,,,,15,A,2024-08-22_09h16.25.181,EPIDM,2023.1.2,60.121852006007394,
1110.jpg,9331.jpg,2 Points,2 Points,23 Points,PS1_L1.csv,,,,,,,,,,,,,,,,,,,,,,,,,,,,,0,0,0,0,0,8,8,8,,,,,,,,,,,,,,,,,,,334.5420122910291,p,1.240089625120163,335.8627247500699,,,,,,15,A,2024-08-22_09h16.25.181,EPIDM,2023.1.2,60.121852006007394,
7820.jpg,1121.jpg,0 Points,0 Points,23 Points,PS1_L1.csv,,,,,,,,,,,,,,,,,,,,,,,,,,,,,0,0,0,0,0,9,9,9,,,,,,,,,,,,,,,,,,,340.10312929097563,q,0.5910022919997573,340.76274241600186,,,,,,15,A,2024-08-22_09h16.25.181,EPIDM,2023.1.2,60.121852006007394,
7186.jpg,9182.jpg,2 Points,2 Points,25 Points,PS1_L1.csv,,,,,,,,,,,,,,,,,,,,,,,,,,,,,0,0,0,0,0,10,10,10,,,,,,,,,,,,,,,,,,,345.00629479112104,p,0.8068744170013815,345.8966676250566,,,,,,15,A,2024-08-22_09h16.25.181,EPIDM,2023.1.2,60.121852006007394,
9280.jpg,9390.jpg,1 Point,1 Point,26 Points,PS1_L1.csv,,,,,,,,,,,,,,,,,,,,,,,,,,,,,0,0,0,0,0,11,11,11,,,,,,,,,,,,,,,,,,,350.1214389160741,p,0.9024552919436246,351.091680750018,,,,,,15,A,2024-08-22_09h16.25.181,EPIDM,2023.1.2,60.121852006007394,
2440.jpg,7351.jpg,4 Points,4 Points,30 Points,PS1_L1.csv,,,,,,,,,,,,,,,,,,,,,,,,,,,,,0,0,0,0,0,12,12,12,,,,,,,,,,,,,,,,,,,355.32587408297695,q,1.1844832508359104,356.5839089159854,,,,,,15,A,2024-08-22_09h16.25.181,EPIDM,2023.1.2,60.121852006007394,
6834.jpg,9120.jpg,5 Points,5 Points,35 Points,PS1_L1.csv,,,,,,,,,,,,,,,,,,,,,,,,,,,,,0,0,0,0,0,13,13,13,,,,,,,,,,,,,,,,,,,360.82137237512507,p,0.9204954588785768,361.81476504099555,5,1.390886374982074,,,,15,A,2024-08-22_09h16.25.181,EPIDM,2023.1.2,60.121852006007394,
9230.jpg,9181.jpg,0 Points,0 Points,35 Points,PS1_L1.csv,,,,,,,,,,,,,,,,,,,,,,,,,,,,,0,0,0,0,0,14,14,14,,,,,,,,,,,,,,,,,,,367.52591045806184,p,0.8477276251651347,368.4376487080008,,,,,,15,A,2024-08-22_09h16.25.181,EPIDM,2023.1.2,60.121852006007394,
8260.jpg,8280.jpg,3 Points,3 Points,38 Points,PS1_L1.csv,,,,,,,,,,,,,,,,,,,,,,,,,,,,,0,0,0,0,0,15,15,15,,,,,,,,,,,,,,,,,,,372.69541954109445,p,1.2539089999627322,374.012511332985,,,,,,15,A,2024-08-22_09h16.25.181,EPIDM,2023.1.2,60.121852006007394,
9470.jpg,9400.jpg,3 Points,3 Points,41 Points,PS1_L1.csv,,,,,,,,,,,,,,,,,,,,,,,,,,,,,0,0,0,0,0,16,16,16,,,,,,,,,,,,,,,,,,,378.2496899999678,q,0.9152530829887837,379.22349554114044,,,,,,15,A,2024-08-22_09h16.25.181,EPIDM,2023.1.2,60.121852006007394,
2616.jpg,7238.jpg,4 Points,4 Points,45 Points,PS1_L1.csv,,,,,,,,,,,,,,,,,,,,,,,,,,,,,0,0,0,0,0,17,17,17,,,,,,,,,,,,,,,,,,,383.4787211250514,p,0.9109734590165317,384.4597370829433,,,,,,15,A,2024-08-22_09h16.25.181,EPIDM,2023.1.2,60.121852006007394,
9430.jpg,3010.jpg,5 Points,5 Points,50 Points,PS1_L1.csv,,,,,,,,,,,,,,,,,,,,,,,,,,,,,0,0,0,0,0,18,18,18,,,,,,,,,,,,,,,,,,,388.7051451250445,q,1.0197379169985652,389.79003312508576,,,,,,15,A,2024-08-22_09h16.25.181,EPIDM,2023.1.2,60.121852006007394,
1661.jpg,1321.jpg,3 Points,3 Points,53 Points,PS1_L1.csv,,,,,,,,,,,,,,,,,,,,,,,,,,,,,0,0,0,0,0,19,19,19,,,,,,,,,,,,,,,,,,,394.03427366609685,q,1.4024167507886887,395.5006784580182,,,,,,15,A,2024-08-22_09h16.25.181,EPIDM,2023.1.2,60.121852006007394,
8041.jpg,2271.jpg,2 Points,2 Points,55 Points,PS1_L1.csv,,,,,,,,,,,,,,,,,,,,,,,,,,,,,0,0,0,0,0,20,20,20,,,,,,,,,,,,,,,,,,,399.75041533308104,q,0.5815015421248972,400.40250208298676,,,,,,15,A,2024-08-22_09h16.25.181,EPIDM,2023.1.2,60.121852006007394,
9180.jpg,9046.jpg,3 Points,3 Points,58 Points,PS1_L1.csv,,,,,,,,,,,,,,,,,,,,,,,,,,,,,0,0,0,0,0,21,21,21,,,,,,,,,,,,,,,,,,,404.6409132501576,p,1.194865917088464,405.9065860409755,,,,,,15,A,2024-08-22_09h16.25.181,EPIDM,2023.1.2,60.121852006007394,
2691.jpg,7640.jpg,0 Points,0 Points,58 Points,PS1_L1.csv,,,,,,,,,,,,,,,,,,,,,,,,,,,,,0,0,0,0,0,22,22,22,,,,,,,,,,,,,,,,,,,410.1482177081052,p,0.9832350420765579,411.19649350014515,,,,,,15,A,2024-08-22_09h16.25.181,EPIDM,2023.1.2,60.121852006007394,
1660.jpg,2840.jpg,2 Points,2 Points,60 Points,PS1_L1.csv,,,,,,,,,,,,,,,,,,,,,,,,,,,,,0,0,0,0,0,23,23,23,,,,,,,,,,,,,,,,,,,415.45062274998054,q,1.0507534169591963,416.56819745805115,,,427.08198233298026,space,2.3943308328744024,15,A,2024-08-22_09h16.25.181,EPIDM,2023.1.2,60.121852006007394,
9480.jpg,9250.jpg,0 Points,0 Points,60 Points,PS1_L2.csv,,,,,,,,,,,,,,,,,,,,,,,,,,,,,0,1,1,1,0,0,0,0,,,,,,,,,,,,,,,,,,,432.78061237512156,q,0.8873480418697,433.73293858300894,,,,,,15,A,2024-08-22_09h16.25.181,EPIDM,2023.1.2,60.121852006007394,
9910.jpg,6940.jpg,2 Points,2 Points,62 Points,PS1_L2.csv,,,,,,,,,,,,,,,,,,,,,,,,,,,,,0,1,1,1,0,1,1,1,,,,,,,,,,,,,,,,,,,437.98113974998705,q,0.815914792008698,438.8611787499394,2,1.3026790420990437,,,,15,A,2024-08-22_09h16.25.181,EPIDM,2023.1.2,60.121852006007394,
4535.jpg,1811.jpg,1 Point,1 Point,63 Points,PS1_L2.csv,,,,,,,,,,,,,,,,,,,,,,,,,,,,,0,1,1,1,0,2,2,2,,,,,,,,,,,,,,,,,,,444.4737295000814,p,1.1701862500049174,445.71328308293596,,,,,,15,A,2024-08-22_09h16.25.181,EPIDM,2023.1.2,60.121852006007394,
2020.jpg,1947.jpg,5 Points,5 Points,68 Points,PS1_L2.csv,,,,,,,,,,,,,,,,,,,,,,,,,,,,,0,1,1,1,0,3,3,3,,,,,,,,,,,,,,,,,,,449.9568274579942,p,0.5905460419598967,450.6170987910591,,,,,,15,A,2024-08-22_09h16.25.181,EPIDM,2023.1.2,60.121852006007394,
9160.jpg,1200.jpg,4 Points,4 Points,72 Points,PS1_L2.csv,,,,,,,,,,,,,,,,,,,,,,,,,,,,,0,1,1,1,0,4,4,4,,,,,,,,,,,,,,,,,,,454.86028925003484,p,1.0156005839817226,455.9563562909607,,,,,,15,A,2024-08-22_09h16.25.181,EPIDM,2023.1.2,60.121852006007394,
9520.jpg,1931.jpg,3 Points,3 Points,75 Points,PS1_L2.csv,,,,,,,,,,,,,,,,,,,,,,,,,,,,,0,1,1,1,0,5,5,5,,,,,,,,,,,,,,,,,,,460.19452591612935,p,0.46532754180952907,460.7286673330236,,,,,,15,A,2024-08-22_09h16.25.181,EPIDM,2023.1.2,60.121852006007394,
7830.jpg,2499.jpg,3 Points,3 Points,78 Points,PS1_L2.csv,,,,,,,,,,,,,,,,,,,,,,,,,,,,,0,1,1,1,0,6,6,6,,,,,,,,,,,,,,,,,,,464.9681860001292,p,1.003403666894883,466.034385957988,,,,,,15,A,2024-08-22_09h16.25.181,EPIDM,2023.1.2,60.121852006007394,
6830.jpg,6212.jpg,4 Points,4 Points,82 Points,PS1_L2.csv,,,,,,,,,,,,,,,,,,,,,,,,,,,,,0,1,1,1,0,7,7,7,,,,,,,,,,,,,,,,,,,470.2897354159504,p,0.6422088339459151,470.99970879103057,,,,,,15,A,2024-08-22_09h16.25.181,EPIDM,2023.1.2,60.121852006007394,
7285.jpg,4233.jpg,5 Points,5 Points,87 Points,PS1_L2.csv,,,,,,,,,,,,,,,,,,,,,,,,,,,,,0,1,1,1,0,8,8,8,,,,,,,,,,,,,,,,,,,475.2363216250669,p,1.0473509589210153,476.35355983302,,,,,,15,A,2024-08-22_09h16.25.181,EPIDM,2023.1.2,60.121852006007394,
1740.jpg,7480.jpg,0 Points,0 Points,87 Points,PS1_L2.csv,,,,,,,,,,,,,,,,,,,,,,,,,,,,,0,1,1,1,0,9,9,9,,,,,,,,,,,,,,,,,,,480.5860830829479,q,0.5854768340941519,481.2395264999941,,,,,,15,A,2024-08-22_09h16.25.181,EPIDM,2023.1.2,60.121852006007394,
7380.jpg,1220.jpg,1 Point,1 Point,88 Points,PS1_L2.csv,,,,,,,,,,,,,,,,,,,,,,,,,,,,,0,1,1,1,0,10,10,10,,,,,,,,,,,,,,,,,,,485.4824298750609,q,1.0559609588235617,486.6097333331127,,,,,,15,A,2024-08-22_09h16.25.181,EPIDM,2023.1.2,60.121852006007394,
3061.jpg,2717.jpg,4 Points,4 Points,92 Points,PS1_L2.csv,,,,,,,,,,,,,,,,,,,,,,,,,,,,,0,1,1,1,0,11,11,11,,,,,,,,,,,,,,,,,,,490.84639125014655,p,0.8046413341071457,491.70851220795885,,,,,,15,A,2024-08-22_09h16.25.181,EPIDM,2023.1.2,60.121852006007394,
5460.jpg,5800.jpg,0 Points,0 Points,92 Points,PS1_L2.csv,,,,,,,,,,,,,,,,,,,,,,,,,,,,,0,1,1,1,0,12,12,12,,,,,,,,,,,,,,,,,,,495.96548895793967,p,2.055789542151615,498.0912950411439,,,,,,15,A,2024-08-22_09h16.25.181,EPIDM,2023.1.2,60.121852006007394,
2215.jpg,2512.jpg,1 Point,1 Point,93 Points,PS1_L2.csv,,,,,,,,,,,,,,,,,,,,,,,,,,,,,0,1,1,1,0,13,13,13,,,,,,,,,,,,,,,,,,,502.32056512497365,p,1.8024256669450551,504.19023341615684,1,0.9972750421147794,,,,15,A,2024-08-22_09h16.25.181,EPIDM,2023.1.2,60.121852006007394,
3000.jpg,6200.jpg,5 Points,5 Points,98 Points,PS1_L2.csv,,,,,,,,,,,,,,,,,,,,,,,,,,,,,0,1,1,1,0,14,14,14,,,,,,,,,,,,,,,,,,,509.50924991606735,q,0.9175928749609739,510.4905701249372,,,,,,15,A,2024-08-22_09h16.25.181,EPIDM,2023.1.2,60.121852006007394,
1945.jpg,2800.jpg,4 Points,4 Points,102 Points,PS1_L2.csv,,,,,,,,,,,,,,,,,,,,,,,,,,,,,0,1,1,1,0,15,15,15,,,,,,,,,,,,,,,,,,,514.7318795409519,q,1.3586591260973364,516.1616572909988,,,,,,15,A,2024-08-22_09h16.25.181,EPIDM,2023.1.2,60.121852006007394,
5660.jpg,5201.jpg,0 Points,0 Points,102 Points,PS1_L2.csv,,,,,,,,,,,,,,,,,,,,,,,,,,,,,0,1,1,1,0,16,16,16,,,,,,,,,,,,,,,,,,,520.3935992079787,p,1.2561633749864995,521.7310951659456,,,,,,15,A,2024-08-22_09h16.25.181,EPIDM,2023.1.2,60.121852006007394,
3266.jpg,7360.jpg,1 Point,1 Point,103 Points,PS1_L2.csv,,,,,,,,,,,,,,,,,,,,,,,,,,,,,0,1,1,1,0,17,17,17,,,,,,,,,,,,,,,,,,,525.9715366661549,q,0.6486086670774966,526.6889230830129,,,,,,15,A,2024-08-22_09h16.25.181,EPIDM,2023.1.2,60.121852006007394,
F149.jpg,3030.jpg,0 Points,0 Points,103 Points,PS1_L2.csv,,,,,,,,,,,,,,,,,,,,,,,,,,,,,0,1,1,1,0,18,18,18,,,,,,,,,,,,,,,,,,,530.9384437080007,p,0.5914348750375211,531.6379390000366,,,,,,15,A,2024-08-22_09h16.25.181,EPIDM,2023.1.2,60.121852006007394,
5410.jpg,1450.jpg,5 Points,5 Points,108 Points,PS1_L2.csv,,,,,,,,,,,,,,,,,,,,,,,,,,,,,0,1,1,1,0,19,19,19,,,,,,,,,,,,,,,,,,,535.8357630411629,p,2.000954458024353,537.9368506660685,,,,,,15,A,2024-08-22_09h16.25.181,EPIDM,2023.1.2,60.121852006007394,
9101.jpg,9571.jpg,2 Points,2 Points,110 Points,PS1_L2.csv,,,,,,,,,,,,,,,,,,,,,,,,,,,,,0,1,1,1,0,20,20,20,,,,,,,,,,,,,,,,,,,542.1556685001124,p,0.9264671669807285,543.1543467079755,,,,,,15,A,2024-08-22_09h16.25.181,EPIDM,2023.1.2,60.121852006007394,
9110.jpg,3051.jpg,1 Point,1 Point,111 Points,PS1_L2.csv,,,,,,,,,,,,,,,,,,,,,,,,,,,,,0,1,1,1,0,21,21,21,,,,,,,,,,,,,,,,,,,547.3986569580156,p,0.7462644590996206,548.2297033751383,,,,,,15,A,2024-08-22_09h16.25.181,EPIDM,2023.1.2,60.121852006007394,
2100.jpg,7205.jpg,5 Points,5 Points,116 Points,PS1_L2.csv,,,,,,,,,,,,,,,,,,,,,,,,,,,,,0,1,1,1,0,22,22,22,,,,,,,,,,,,,,,,,,,552.4716084159445,q,0.6901057509239763,553.2383408329915,,,,,,15,A,2024-08-22_09h16.25.181,EPIDM,2023.1.2,60.121852006007394,
3160.jpg,6210.jpg,1 Point,1 Point,117 Points,PS1_L2.csv,,,,,,,,,,,,,,,,,,,,,,,,,,,,,0,1,1,1,0,23,23,23,,,,,,,,,,,,,,,,,,,557.4680063750129,q,0.6463837919291109,558.1849439160433,,,568.7013566249516,space,3.9647329170256853,15,A,2024-08-22_09h16.25.181,EPIDM,2023.1.2,60.121852006007394,
7283.jpg,1720.jpg,4 Points,4 Points,121 Points,PS1_L3.csv,,,,,,,,,,,,,,,,,,,,,,,,,,,,,0,2,2,2,0,0,0,0,,,,,,,,,,,,,,,,,,,575.9803794999607,q,0.468119208002463,576.5324493751395,,,,,,15,A,2024-08-22_09h16.25.181,EPIDM,2023.1.2,60.121852006007394,
6571.jpg,P237.jpg,2 Points,2 Points,123 Points,PS1_L3.csv,,,,,,,,,,,,,,,,,,,,,,,,,,,,,0,2,2,2,0,1,1,1,,,,,,,,,,,,,,,,,,,580.7578311660327,p,0.739147667074576,581.6120202911552,2,1.3808390840422362,,,,15,A,2024-08-22_09h16.25.181,EPIDM,2023.1.2,60.121852006007394,
6260.jpg,3062.jpg,3 Points,3 Points,126 Points,PS1_L3.csv,,,,,,,,,,,,,,,,,,,,,,,,,,,,,0,2,2,2,0,2,2,2,,,,,,,,,,,,,,,,,,,587.2973749160301,p,1.0954988750163466,588.4639805830084,,,,,,15,A,2024-08-22_09h16.25.181,EPIDM,2023.1.2,60.121852006007394,
6150.jpg,2206.jpg,0 Points,0 Points,126 Points,PS1_L3.csv,,,,,,,,,,,,,,,,,,,,,,,,,,,,,0,2,2,2,0,3,3,3,,,,,,,,,,,,,,,,,,,592.7107887500897,q,0.8576430010143667,593.6447640000843,,,,,,15,A,2024-08-22_09h16.25.181,EPIDM,2023.1.2,60.121852006007394,
9300.jpg,1050.jpg,4 Points,4 Points,130 Points,PS1_L3.csv,,,,,,,,,,,,,,,,,,,,,,,,,,,,,0,2,2,2,0,4,4,4,,,,,,,,,,,,,,,,,,,597.8778375410475,q,0.5078549170866609,598.4542782499921,,,,,,15,A,2024-08-22_09h16.25.181,EPIDM,2023.1.2,60.121852006007394,
F365.jpg,3180.jpg,5 Points,5 Points,135 Points,PS1_L3.csv,,,,,,,,,,,,,,,,,,,,,,,,,,,,,0,2,2,2,0,5,5,5,,,,,,,,,,,,,,,,,,,602.7006942080334,q,1.939897167030722,604.7405005830806,,,,,,15,A,2024-08-22_09h16.25.181,EPIDM,2023.1.2,60.121852006007394,
2320.jpg,2791.jpg,4 Points,4 Points,139 Points,PS1_L3.csv,,,,,,,,,,,,,,,,,,,,,,,,,,,,,0,2,2,2,0,6,6,6,,,,,,,,,,,,,,,,,,,608.9494659160264,p,1.0519117920193821,610.0982982080895,,,,,,15,A,2024-08-22_09h16.25.181,EPIDM,2023.1.2,60.121852006007394,
8311.jpg,4609.jpg,2 Points,2 Points,141 Points,PS1_L3.csv,,,,,,,,,,,,,,,,,,,,,,,,,,,,,0,2,2,2,0,7,7,7,,,,,,,,,,,,,,,,,,,614.3147716659587,q,1.4291978750843555,615.8172616660595,,,,,,15,A,2024-08-22_09h16.25.181,EPIDM,2023.1.2,60.121852006007394,
9042.jpg,2753.jpg,0 Points,0 Points,141 Points,PS1_L3.csv,,,,,,,,,,,,,,,,,,,,,,,,,,,,,0,2,2,2,0,8,8,8,,,,,,,,,,,,,,,,,,,620.0661278751213,q,1.2534250419121236,621.3893385410774,,,,,,15,A,2024-08-22_09h16.25.181,EPIDM,2023.1.2,60.121852006007394,
5471.jpg,7352.jpg,2 Points,2 Points,143 Points,PS1_L3.csv,,,,,,,,,,,,,,,,,,,,,,,,,,,,,0,2,2,2,0,9,9,9,,,,,,,,,,,,,,,,,,,625.63401575014,p,0.7025766668375582,626.4072670829482,,,,,,15,A,2024-08-22_09h16.25.181,EPIDM,2023.1.2,60.121852006007394,
P222.jpg,9401.jpg,2 Points,2 Points,145 Points,PS1_L3.csv,,,,,,,,,,,,,,,,,,,,,,,,,,,,,0,2,2,2,0,10,10,10,,,,,,,,,,,,,,,,,,,630.6478877500631,p,1.3759731671307236,632.1346005001105,,,,,,15,A,2024-08-22_09h16.25.181,EPIDM,2023.1.2,60.121852006007394,
1610.jpg,F203.jpg,0 Points,0 Points,145 Points,PS1_L3.csv,,,,,,,,,,,,,,,,,,,,,,,,,,,,,0,2,2,2,0,11,11,11,,,,,,,,,,,,,,,,,,,636.3458596251439,q,0.877910666866228,637.3399480830412,,,,,,15,A,2024-08-22_09h16.25.181,EPIDM,2023.1.2,60.121852006007394,
9405.jpg,6250.2.jpg,3 Points,3 Points,148 Points,PS1_L3.csv,,,,,,,,,,,,,,,,,,,,,,,,,,,,,0,2,2,2,0,12,12,12,,,,,,,,,,,,,,,,,,,641.5396279159468,q,0.8948188340291381,642.5464143750723,,,,,,15,A,2024-08-22_09h16.25.181,EPIDM,2023.1.2,60.121852006007394,
1090.jpg,P217.jpg,5 Points,5 Points,153 Points,PS1_L3.csv,,,,,,,,,,,,,,,,,,,,,,,,,,,,,0,2,2,2,0,13,13,13,,,,,,,,,,,,,,,,,,,646.7427757079713,p,1.104577959049493,647.9503677911125,5,1.4560642091091722,,,,15,A,2024-08-22_09h16.25.181,EPIDM,2023.1.2,60.121852006007394,
P233.jpg,3060.jpg,1 Point,1 Point,154 Points,PS1_L3.csv,,,,,,,,,,,,,,,,,,,,,,,,,,,,,0,2,2,2,0,14,14,14,,,,,,,,,,,,,,,,,,,653.7369814580306,p,1.5031431261450052,655.3621615001466,,,,,,15,A,2024-08-22_09h16.25.181,EPIDM,2023.1.2,60.121852006007394,
8040.jpg,7185.jpg,1 Point,1 Point,155 Points,PS1_L3.csv,,,,,,,,,,,,,,,,,,,,,,,,,,,,,0,2,2,2,0,15,15,15,,,,,,,,,,,,,,,,,,,659.5549152500462,q,1.1559438749682158,660.7932232499588,,,,,,15,A,2024-08-22_09h16.25.181,EPIDM,2023.1.2,60.121852006007394,
6550.jpg,9582.jpg,5 Points,5 Points,160 Points,PS1_L3.csv,,,,,,,,,,,,,,,,,,,,,,,,,,,,,0,2,2,2,0,16,16,16,,,,,,,,,,,,,,,,,,,665.0282569159754,q,1.6515531258191913,666.7477225409821,,,,,,15,A,2024-08-22_09h16.25.181,EPIDM,2023.1.2,60.121852006007394,
P077.jpg,A041.jpg,1 Point,1 Point,161 Points,PS1_L3.csv,,,,,,,,,,,,,,,,,,,,,,,,,,,,,0,2,2,2,0,17,17,17,,,,,,,,,,,,,,,,,,,670.9786959581543,q,1.654780250042677,672.7798298329581,,,,,,15,A,2024-08-22_09h16.25.181,EPIDM,2023.1.2,60.121852006007394,
4770.jpg,4275.jpg,3 Points,3 Points,164 Points,PS1_L3.csv,,,,,,,,,,,,,,,,,,,,,,,,,,,,,0,2,2,2,0,18,18,18,,,,,,,,,,,,,,,,,,,676.9460532080848,q,1.6938921669498086,678.7527902079746,,,,,,15,A,2024-08-22_09h16.25.181,EPIDM,2023.1.2,60.121852006007394,
9594.jpg,1080.jpg,4 Points,4 Points,168 Points,PS1_L3.csv,,,,,,,,,,,,,,,,,,,,,,,,,,,,,0,2,2,2,0,19,19,19,,,,,,,,,,,,,,,,,,,682.946363208117,q,0.8449528340715915,683.8773779161274,,,,,,15,A,2024-08-22_09h16.25.181,EPIDM,2023.1.2,60.121852006007394,
2606.jpg,2480.jpg,1 Point,1 Point,169 Points,PS1_L3.csv,,,,,,,,,,,,,,,,,,,,,,,,,,,,,0,2,2,2,0,20,20,20,,,,,,,,,,,,,,,,,,,688.1095639159903,q,1.6330438340082765,689.8167096660472,,,,,,15,A,2024-08-22_09h16.25.181,EPIDM,2023.1.2,60.121852006007394,
1052.jpg,1201.jpg,3 Points,3 Points,172 Points,PS1_L3.csv,,,,,,,,,,,,,,,,,,,,,,,,,,,,,0,2,2,2,0,21,21,21,,,,,,,,,,,,,,,,,,,694.0546127499547,p,0.6802687919698656,694.8084204159677,,,,,,15,A,2024-08-22_09h16.25.181,EPIDM,2023.1.2,60.121852006007394,
F369.jpg,3100.jpg,2 Points,2 Points,174 Points,PS1_L3.csv,,,,,,,,,,,,,,,,,,,,,,,,,,,,,0,2,2,2,0,22,22,22,,,,,,,,,,,,,,,,,,,699.0556473750621,p,0.5035276669077575,699.6509588330518,,,,,,15,A,2024-08-22_09h16.25.181,EPIDM,2023.1.2,60.121852006007394,
2620.jpg,2594.jpg,0 Points,0 Points,174 Points,PS1_L3.csv,,,,,,,,,,,,,,,,,,,,,,,,,,,,,0,2,2,2,0,23,23,23,,,,,,,,,,,,,,,,,,,703.8595366249792,q,0.7880614998284727,704.7096748331096,,,715.1667947911192,space,2.7517636250704527,15,A,2024-08-22_09h16.25.181,EPIDM,2023.1.2,60.121852006007394,
P019.jpg,F158.jpg,3 Points,3 Points,177 Points,PS1_L4.csv,,,,,,,,,,,,,,,,,,,,,,,,,,,,,0,3,3,3,0,0,0,0,,,,,,,,,,,,,,,,,,,721.2265670001507,q,0.810875500086695,722.1757449579891,,,,,,15,A,2024-08-22_09h16.25.181,EPIDM,2023.1.2,60.121852006007394,
7620.jpg,5395.jpg,1 Point,1 Point,178 Points,PS1_L4.csv,,,,,,,,,,,,,,,,,,,,,,,,,,,,,0,3,3,3,0,1,1,1,,,,,,,,,,,,,,,,,,,726.3447143330704,p,0.7098504998721182,727.157809541095,1,0.9324539580848068,,,,15,A,2024-08-22_09h16.25.181,EPIDM,2023.1.2,60.121852006007394,
5970.jpg,3300.jpg,0 Points,0 Points,178 Points,PS1_L4.csv,,,,,,,,,,,,,,,,,,,,,,,,,,,,,0,3,3,3,0,2,2,2,,,,,,,,,,,,,,,,,,,732.3479729159735,p,1.4254078750964254,733.8429024999496,,,,,,15,A,2024-08-22_09h16.25.181,EPIDM,2023.1.2,60.121852006007394,
5120.jpg,5520.jpg,2 Points,2 Points,180 Points,PS1_L4.csv,,,,,,,,,,,,,,,,,,,,,,,,,,,,,0,3,3,3,0,3,3,3,,,,,,,,,,,,,,,,,,,738.0803057500161,q,0.8698390000499785,739.0268525411375,,,,,,15,A,2024-08-22_09h16.25.181,EPIDM,2023.1.2,60.121852006007394,
9452.jpg,7184.jpg,4 Points,4 Points,184 Points,PS1_L4.csv,,,,,,,,,,,,,,,,,,,,,,,,,,,,,0,3,3,3,0,4,4,4,,,,,,,,,,,,,,,,,,,743.2656417910475,q,0.9722594588529319,744.3024568750989,,,,,,15,A,2024-08-22_09h16.25.181,EPIDM,2023.1.2,60.121852006007394,
6570.1.jpg,9432.jpg,5 Points,5 Points,189 Points,PS1_L4.csv,,,,,,,,,,,,,,,,,,,,,,,,,,,,,0,3,3,3,0,5,5,5,,,,,,,,,,,,,,,,,,,748.5432852909435,q,0.7425787921529263,749.3660766249523,,,,,,15,A,2024-08-22_09h16.25.181,EPIDM,2023.1.2,60.121852006007394,
2389.jpg,7320.jpg,0 Points,0 Points,189 Points,PS1_L4.csv,,,,,,,,,,,,,,,,,,,,,,,,,,,,,0,3,3,3,0,6,6,6,,,,,,,,,,,,,,,,,,,753.6007574161049,p,1.1732657919637859,754.8559383330867,,,,,,15,A,2024-08-22_09h16.25.181,EPIDM,2023.1.2,60.121852006007394,
9330.jpg,3015.jpg,5 Points,5 Points,194 Points,PS1_L4.csv,,,,,,,,,,,,,,,,,,,,,,,,,,,,,0,3,3,3,0,7,7,7,,,,,,,,,,,,,,,,,,,759.1002789579798,p,0.4811165831051767,759.6582261661533,,,,,,15,A,2024-08-22_09h16.25.181,EPIDM,2023.1.2,60.121852006007394,
9560.jpg,3071.jpg,1 Point,1 Point,195 Points,PS1_L4.csv,,,,,,,,,,,,,,,,,,,,,,,,,,,,,0,3,3,3,0,8,8,8,,,,,,,,,,,,,,,,,,,763.8964993329719,p,0.5721596668008715,764.535767290974,,,,,,15,A,2024-08-22_09h16.25.181,EPIDM,2023.1.2,60.121852006007394,
5994.jpg,5390.jpg,0 Points,0 Points,195 Points,PS1_L4.csv,,,,,,,,,,,,,,,,,,,,,,,,,,,,,0,3,3,3,0,9,9,9,,,,,,,,,,,,,,,,,,,768.7811353751458,p,0.6788994169328362,769.5231645831373,,,,,,15,A,2024-08-22_09h16.25.181,EPIDM,2023.1.2,60.121852006007394,
2692.jpg,8231.jpg,4 Points,4 Points,199 Points,PS1_L4.csv,,,,,,,,,,,,,,,,,,,,,,,,,,,,,0,3,3,3,0,10,10,10,,,,,,,,,,,,,,,,,,,773.7742501250468,p,1.0543187090661377,774.8925528330728,,,,,,15,A,2024-08-22_09h16.25.181,EPIDM,2023.1.2,60.121852006007394,
F174.jpg,9404.jpg,5 Points,5 Points,204 Points,PS1_L4.csv,,,,,,,,,,,,,,,,,,,,,,,,,,,,,0,3,3,3,0,11,11,11,,,,,,,,,,,,,,,,,,,779.1375685001258,q,0.6600099999923259,779.9033120831009,,,,,,15,A,2024-08-22_09h16.25.181,EPIDM,2023.1.2,60.121852006007394,
8010.jpg,2630.jpg,0 Points,0 Points,204 Points,PS1_L4.csv,,,,,,,,,,,,,,,,,,,,,,,,,,,,,0,3,3,3,0,12,12,12,,,,,,,,,,,,,,,,,,,784.1132236251142,q,1.2197235419880599,785.4041570411064,,,,,,15,A,2024-08-22_09h16.25.181,EPIDM,2023.1.2,60.121852006007394,
7175.jpg,7490.jpg,2 Points,2 Points,206 Points,PS1_L4.csv,,,,,,,,,,,,,,,,,,,,,,,,,,,,,0,3,3,3,0,13,13,13,,,,,,,,,,,,,,,,,,,789.6498000000138,p,0.667231917148456,790.3905039581005,2,1.059316833037883,,,,15,A,2024-08-22_09h16.25.181,EPIDM,2023.1.2,60.121852006007394,
6561.jpg,1525.jpg,2 Points,2 Points,208 Points,PS1_L4.csv,,,,,,,,,,,,,,,,,,,,,,,,,,,,,0,3,3,3,0,14,14,14,,,,,,,,,,,,,,,,,,,795.7653779580723,q,1.0227368329651654,796.8579659161624,,,,,,15,A,2024-08-22_09h16.25.181,EPIDM,2023.1.2,60.121852006007394,
9070.jpg,9420.jpg,2 Points,2 Points,210 Points,PS1_L4.csv,,,,,,,,,,,,,,,,,,,,,,,,,,,,,0,3,3,3,0,15,15,15,,,,,,,,,,,,,,,,,,,801.0941957910545,p,1.014819959178567,802.1713738329709,,,,,,15,A,2024-08-22_09h16.25.181,EPIDM,2023.1.2,60.121852006007394,
2516.jpg,8500.jpg,4 Points,4 Points,214 Points,PS1_L4.csv,,,,,,,,,,,,,,,,,,,,,,,,,,,,,0,3,3,3,0,16,16,16,,,,,,,,,,,,,,,,,,,806.4121296249796,q,0.8811192091088742,807.3686407499481,,,,,,15,A,2024-08-22_09h16.25.181,EPIDM,2023.1.2,60.121852006007394,
9140.jpg,2810.jpg,3 Points,3 Points,217 Points,PS1_L4.csv,,,,,,,,,,,,,,,,,,,,,,,,,,,,,0,3,3,3,0,17,17,17,,,,,,,,,,,,,,,,,,,811.633063208079,p,0.19428483303636312,811.894197165966,,,,,,15,A,2024-08-22_09h16.25.181,EPIDM,2023.1.2,60.121852006007394,
7220.jpg,8090.jpg,2 Points,2 Points,219 Points,PS1_L4.csv,,,,,,,,,,,,,,,,,,,,,,,,,,,,,0,3,3,3,0,18,18,18,,,,,,,,,,,,,,,,,,,816.1491592910606,p,0.6154425828717649,816.8378860410303,,,,,,15,A,2024-08-22_09h16.25.181,EPIDM,2023.1.2,60.121852006007394,
2661.jpg,2870.jpg,5 Points,5 Points,224 Points,PS1_L4.csv,,,,,,,,,,,,,,,,,,,,,,,,,,,,,0,3,3,3,0,19,19,19,,,,,,,,,,,,,,,,,,,821.0995711251162,q,0.2800169170368463,821.448252290953,,,,,,15,A,2024-08-22_09h16.25.181,EPIDM,2023.1.2,60.121852006007394,
6010.jpg,7361.jpg,2 Points,2 Points,226 Points,PS1_L4.csv,,,,,,,,,,,,,,,,,,,,,,,,,,,,,0,3,3,3,0,20,20,20,,,,,,,,,,,,,,,,,,,825.6927438750863,p,0.8469143330585212,826.6010749579873,,,,,,15,A,2024-08-22_09h16.25.181,EPIDM,2023.1.2,60.121852006007394,
7289.jpg,4534.jpg,0 Points,0 Points,226 Points,PS1_L4.csv,,,,,,,,,,,,,,,,,,,,,,,,,,,,,0,3,3,3,0,21,21,21,,,,,,,,,,,,,,,,,,,830.849668791052,p,0.7542630420066416,831.6803222910967,,,,,,15,A,2024-08-22_09h16.25.181,EPIDM,2023.1.2,60.121852006007394,
1310.jpg,3181.jpg,4 Points,4 Points,230 Points,PS1_L4.csv,,,,,,,,,,,,,,,,,,,,,,,,,,,,,0,3,3,3,0,22,22,22,,,,,,,,,,,,,,,,,,,835.908356040949,q,0.9594356671441346,836.9407061659731,,,,,,15,A,2024-08-22_09h16.25.181,EPIDM,2023.1.2,60.121852006007394,
2383.jpg,1616.jpg,2 Points,2 Points,232 Points,PS1_L4.csv,,,,,,,,,,,,,,,,,,,,,,,,,,,,,0,3,3,3,0,23,23,23,,,,,,,,,,,,,,,,,,,841.1906766251195,p,0.8855620839167386,842.1405575829558,,,852.6266331661027,space,1.6482704170048237,15,A,2024-08-22_09h16.25.181,EPIDM,2023.1.2,60.121852006007394,
4510.jpg,2230.jpg,5 Points,5 Points,237 Points,PS1_L5.csv,,,,,,,,,,,,,,,,,,,,,,,,,,,,,0,4,4,4,0,0,0,0,,,,,,,,,,,,,,,,,,,857.5882073331159,q,0.6083755840081722,858.2820510829333,,,,,,15,A,2024-08-22_09h16.25.181,EPIDM,2023.1.2,60.121852006007394,
A025.jpg,1051.jpg,0 Points,0 Points,237 Points,PS1_L5.csv,,,,,,,,,,,,,,,,,,,,,,,,,,,,,0,4,4,4,0,1,1,1,,,,,,,,,,,,,,,,,,,862.5114182080142,p,0.44307079189457,863.0764347501099,0,1.8924584172200412,,,,15,A,2024-08-22_09h16.25.181,EPIDM,2023.1.2,60.121852006007394,
7002.jpg,4660.jpg,4 Points,4 Points,241 Points,PS1_L5.csv,,,,,,,,,,,,,,,,,,,,,,,,,,,,,0,4,4,4,0,2,2,2,,,,,,,,,,,,,,,,,,,869.2955180830322,p,0.43437233404256403,869.8515375410207,,,,,,15,A,2024-08-22_09h16.25.181,EPIDM,2023.1.2,60.121852006007394,
2900.jpg,1101.jpg,3 Points,3 Points,244 Points,PS1_L5.csv,,,,,,,,,,,,,,,,,,,,,,,,,,,,,0,4,4,4,0,3,3,3,,,,,,,,,,,,,,,,,,,874.0391109159682,q,3.0107217498589307,877.1288466660772,,,,,,15,A,2024-08-22_09h16.25.181,EPIDM,2023.1.2,60.121852006007394,
2485.jpg,7350.jpg,0 Points,0 Points,244 Points,PS1_L5.csv,,,,,,,,,,,,,,,,,,,,,,,,,,,,,0,4,4,4,0,4,4,4,,,,,,,,,,,,,,,,,,,881.3604076250922,p,0.697562166955322,882.1335655830335,,,,,,15,A,2024-08-22_09h16.25.181,EPIDM,2023.1.2,60.121852006007394,
6242.jpg,F034.jpg,4 Points,4 Points,248 Points,PS1_L5.csv,,,,,,,,,,,,,,,,,,,,,,,,,,,,,0,4,4,4,0,5,5,5,,,,,,,,,,,,,,,,,,,886.3738939580508,q,0.4527283338829875,886.9371521249413,,,,,,15,A,2024-08-22_09h16.25.181,EPIDM,2023.1.2,60.121852006007394,
3170.jpg,6560.jpg,2 Points,2 Points,250 Points,PS1_L5.csv,,,,,,,,,,,,,,,,,,,,,,,,,,,,,0,4,4,4,0,6,6,6,,,,,,,,,,,,,,,,,,,891.1350122080185,q,0.3873153328895569,891.6311822501011,,,,,,15,A,2024-08-22_09h16.25.181,EPIDM,2023.1.2,60.121852006007394,
8033.jpg,7270.jpg,3 Points,3 Points,253 Points,PS1_L5.csv,,,,,,,,,,,,,,,,,,,,,,,,,,,,,0,4,4,4,0,7,7,7,,,,,,,,,,,,,,,,,,,895.8430870829616,p,0.6311624590307474,896.5437149161007,,,,,,15,A,2024-08-22_09h16.25.181,EPIDM,2023.1.2,60.121852006007394,
2597.jpg,5870.jpg,5 Points,5 Points,258 Points,PS1_L5.csv,,,,,,,,,,,,,,,,,,,,,,,,,,,,,0,4,4,4,0,8,8,8,,,,,,,,,,,,,,,,,,,900.7904950410593,q,0.379118958953768,901.2480969999451,,,,,,15,A,2024-08-22_09h16.25.181,EPIDM,2023.1.2,60.121852006007394,
6312.jpg,3230.jpg,2 Points,2 Points,260 Points,PS1_L5.csv,,,,,,,,,,,,,,,,,,,,,,,,,,,,,0,4,4,4,0,9,9,9,,,,,,,,,,,,,,,,,,,905.4908337080851,p,0.8630168330855668,906.4190640831366,,,,,,15,A,2024-08-22_09h16.25.181,EPIDM,2023.1.2,60.121852006007394,
3130.jpg,3500.jpg,4 Points,4 Points,264 Points,PS1_L5.csv,,,,,,,,,,,,,,,,,,,,,,,,,,,,,0,4,4,4,0,10,10,10,,,,,,,,,,,,,,,,,,,910.657591874944,q,0.3846903759986162,911.1053436249495,,,,,,15,A,2024-08-22_09h16.25.181,EPIDM,2023.1.2,60.121852006007394,
2749.jpg,7282.jpg,3 Points,3 Points,267 Points,PS1_L5.csv,,,,,,,,,,,,,,,,,,,,,,,,,,,,,0,4,4,4,0,11,11,11,,,,,,,,,,,,,,,,,,,915.3562225410715,p,0.42107491684146225,915.8575140410103,,,,,,15,A,2024-08-22_09h16.25.181,EPIDM,2023.1.2,60.121852006007394,
5300.jpg,2372.jpg,1 Point,1 Point,268 Points,PS1_L5.csv,,,,,,,,,,,,,,,,,,,,,,,,,,,,,0,4,4,4,0,12,12,12,,,,,,,,,,,,,,,,,,,920.0972761251032,p,0.6640877919271588,920.8328547501005,,,,,,15,A,2024-08-22_09h16.25.181,EPIDM,2023.1.2,60.121852006007394,
6510.jpg,A074.jpg,2 Points,2 Points,270 Points,PS1_L5.csv,,,,,,,,,,,,,,,,,,,,,,,,,,,,,0,4,4,4,0,13,13,13,,,,,,,,,,,,,,,,,,,925.0797892080154,q,0.4738953751511872,925.6752595410217,2,2.6722259579692036,,,,15,A,2024-08-22_09h16.25.181,EPIDM,2023.1.2,60.121852006007394,
2260.jpg,2830.jpg,5 Points,5 Points,275 Points,PS1_L5.csv,,,,,,,,,,,,,,,,,,,,,,,,,,,,,0,4,4,4,0,14,14,14,,,,,,,,,,,,,,,,,,,932.662557624979,p,0.3624907920602709,933.1018770830706,,,,,,15,A,2024-08-22_09h16.25.181,EPIDM,2023.1.2,60.121852006007394,
2710.jpg,9252.jpg,1 Point,1 Point,276 Points,PS1_L5.csv,,,,,,,,,,,,,,,,,,,,,,,,,,,,,0,4,4,4,0,15,15,15,,,,,,,,,,,,,,,,,,,937.3330317910295,q,0.5886055000592023,937.9943093750626,,,,,,15,A,2024-08-22_09h16.25.181,EPIDM,2023.1.2,60.121852006007394,
3064.jpg,3168.jpg,4 Points,4 Points,280 Points,PS1_L5.csv,,,,,,,,,,,,,,,,,,,,,,,,,,,,,0,4,4,4,0,16,16,16,,,,,,,,,,,,,,,,,,,942.228977125138,p,0.37203424982726574,942.6625375000294,,,,,,15,A,2024-08-22_09h16.25.181,EPIDM,2023.1.2,60.121852006007394,
1640.jpg,5531.jpg,3 Points,3 Points,283 Points,PS1_L5.csv,,,,,,,,,,,,,,,,,,,,,,,,,,,,,0,4,4,4,0,17,17,17,,,,,,,,,,,,,,,,,,,946.9100743751042,p,0.47435245919041336,947.4637989581097,,,,,,15,A,2024-08-22_09h16.25.181,EPIDM,2023.1.2,60.121852006007394,
3530.jpg,6213.jpg,1 Point,1 Point,284 Points,PS1_L5.csv,,,,,,,,,,,,,,,,,,,,,,,,,,,,,0,4,4,4,0,18,18,18,,,,,,,,,,,,,,,,,,,951.704231291078,q,0.3526316250208765,952.1325082080439,,,,,,15,A,2024-08-22_09h16.25.181,EPIDM,2023.1.2,60.121852006007394,
9090.jpg,7580.jpg,3 Points,3 Points,287 Points,PS1_L5.csv,,,,,,,,,,,,,,,,,,,,,,,,,,,,,0,4,4,4,0,19,19,19,,,,,,,,,,,,,,,,,,,956.3699535410851,q,0.3752546668983996,956.8271621661261,,,,,,15,A,2024-08-22_09h16.25.181,EPIDM,2023.1.2,60.121852006007394,
8230.jpg,2682.jpg,5 Points,5 Points,292 Points,PS1_L5.csv,,,,,,,,,,,,,,,,,,,,,,,,,,,,,0,4,4,4,0,20,20,20,,,,,,,,,,,,,,,,,,,961.0613736249506,q,0.45076162507757545,961.5866081251297,,,,,,15,A,2024-08-22_09h16.25.181,EPIDM,2023.1.2,60.121852006007394,
9592.jpg,1300.jpg,2 Points,2 Points,294 Points,PS1_L5.csv,,,,,,,,,,,,,,,,,,,,,,,,,,,,,0,4,4,4,0,21,21,21,,,,,,,,,,,,,,,,,,,965.8253449159674,p,0.2080796668305993,966.088085666066,,,,,,15,A,2024-08-22_09h16.25.181,EPIDM,2023.1.2,60.121852006007394,
2490.jpg,2590.jpg,4 Points,4 Points,298 Points,PS1_L5.csv,,,,,,,,,,,,,,,,,,,,,,,,,,,,,0,4,4,4,0,22,22,22,,,,,,,,,,,,,,,,,,,970.3357854159549,p,0.3766785420011729,970.7811513331253,,,,,,15,A,2024-08-22_09h16.25.181,EPIDM,2023.1.2,60.121852006007394,
2190.jpg,7503.jpg,2 Points,2 Points,300 Points,PS1_L5.csv,,,,,,,,,,,,,,,,,,,,,,,,,,,,,0,4,4,4,0,23,23,23,,,,,,,,,,,,,,,,,,,975.021925332956,p,0.3547354999464005,975.4394438329618,,,985.9006321250927,space,2.9874100419692695,15,A,2024-08-22_09h16.25.181,EPIDM,2023.1.2,60.121852006007394,
1930.jpg,9008.jpg,1 Point,1 Point,301 Points,PS1_L6.csv,,,,,,,,,,,,,,,,,,,,,,,,,,,,,0,5,5,5,0,0,0,0,,,,,,,,,,,,,,,,,,,992.2116032910999,p,0.3731135418638587,992.6700321659446,,,,,,15,A,2024-08-22_09h16.25.181,EPIDM,2023.1.2,60.121852006007394,
4613.jpg,2720.jpg,4 Points,4 Points,305 Points,PS1_L6.csv,,,,,,,,,,,,,,,,,,,,,,,,,,,,,0,5,5,5,0,1,1,1,,,,,,,,,,,,,,,,,,,996.9061012910679,p,0.8293097920250148,997.8135478331242,4,1.378225167049095,,,,15,A,2024-08-22_09h16.25.181,EPIDM,2023.1.2,60.121852006007394,
3280.jpg,9270.jpg,0 Points,0 Points,305 Points,PS1_L6.csv,,,,,,,,,,,,,,,,,,,,,,,,,,,,,0,5,5,5,0,2,2,2,,,,,,,,,,,,,,,,,,,1003.4876849160064,q,0.44772804202511907,1004.0011906251311,,,,,,15,A,2024-08-22_09h16.25.181,EPIDM,2023.1.2,60.121852006007394,
6800.jpg,9190.jpg,0 Points,0 Points,305 Points,PS1_L6.csv,,,,,,,,,,,,,,,,,,,,,,,,,,,,,0,5,5,5,0,3,3,3,,,,,,,,,,,,,,,,,,,1008.2514102500863,q,0.5583864590153098,1008.8738853330724,,,,,,15,A,2024-08-22_09h16.25.181,EPIDM,2023.1.2,60.121852006007394,
5600.jpg,9080.jpg,5 Points,5 Points,310 Points,PS1_L6.csv,,,,,,,,,,,,,,,,,,,,,,,,,,,,,0,5,5,5,0,4,4,4,,,,,,,,,,,,,,,,,,,1013.1185164579656,q,0.4162888750433922,1013.6107977910433,,,,,,15,A,2024-08-22_09h16.25.181,EPIDM,2023.1.2,60.121852006007394,
P211.jpg,9041.jpg,4 Points,4 Points,314 Points,PS1_L6.csv,,,,,,,,,,,,,,,,,,,,,,,,,,,,,0,5,5,5,0,5,5,5,,,,,,,,,,,,,,,,,,,1017.8450317080133,q,0.4743631249293685,1018.4353389579337,,,,,,15,A,2024-08-22_09h16.25.181,EPIDM,2023.1.2,60.121852006007394,
5200.jpg,5020.jpg,0 Points,0 Points,314 Points,PS1_L6.csv,,,,,,,,,,,,,,,,,,,,,,,,,,,,,0,5,5,5,0,6,6,6,,,,,,,,,,,,,,,,,,,1022.6312740410212,q,0.33566520898602903,1023.0417236660141,,,,,,15,A,2024-08-22_09h16.25.181,EPIDM,2023.1.2,60.121852006007394,
1850.jpg,5623.jpg,5 Points,5 Points,319 Points,PS1_L6.csv,,,,,,,,,,,,,,,,,,,,,,,,,,,,,0,5,5,5,0,7,7,7,,,,,,,,,,,,,,,,,,,1027.28120187507,q,0.7654104589018971,1028.116410125047,,,,,,15,A,2024-08-22_09h16.25.181,EPIDM,2023.1.2,60.121852006007394,
9440.jpg,6350.jpg,4 Points,4 Points,323 Points,PS1_L6.csv,,,,,,,,,,,,,,,,,,,,,,,,,,,,,0,5,5,5,0,8,8,8,,,,,,,,,,,,,,,,,,,1032.3592715000268,p,0.44017758406698704,1032.8649434580002,,,,,,15,A,2024-08-22_09h16.25.181,EPIDM,2023.1.2,60.121852006007394,
5990.jpg,5780.jpg,3 Points,3 Points,326 Points,PS1_L6.csv,,,,,,,,,,,,,,,,,,,,,,,,,,,,,0,5,5,5,0,9,9,9,,,,,,,,,,,,,,,,,,,1037.1174602080137,q,0.20879954216070473,1037.398839832982,,,,,,15,A,2024-08-22_09h16.25.181,EPIDM,2023.1.2,60.121852006007394,
6244.jpg,9265.jpg,0 Points,0 Points,326 Points,PS1_L6.csv,,,,,,,,,,,,,,,,,,,,,,,,,,,,,0,5,5,5,0,10,10,10,,,,,,,,,,,,,,,,,,,1041.6603180409875,p,0.34829450002871454,1042.0768633750267,,,,,,15,A,2024-08-22_09h16.25.181,EPIDM,2023.1.2,60.121852006007394,
5000.jpg,8180.jpg,4 Points,4 Points,330 Points,PS1_L6.csv,,,,,,,,,,,,,,,,,,,,,,,,,,,,,0,5,5,5,0,11,11,11,,,,,,,,,,,,,,,,,,,1046.3200970001053,p,0.47812108299694955,1046.8682135830168,,,,,,15,A,2024-08-22_09h16.25.181,EPIDM,2023.1.2,60.121852006007394,
5982.jpg,5260.jpg,5 Points,5 Points,335 Points,PS1_L6.csv,,,,,,,,,,,,,,,,,,,,,,,,,,,,,0,5,5,5,0,12,12,12,,,,,,,,,,,,,,,,,,,1051.1072912910022,p,0.4741977918893099,1051.662725750124,,,,,,15,A,2024-08-22_09h16.25.181,EPIDM,2023.1.2,60.121852006007394,
1301.jpg,1070.jpg,2 Points,2 Points,337 Points,PS1_L6.csv,,,,,,,,,,,,,,,,,,,,,,,,,,,,,0,5,5,5,0,13,13,13,,,,,,,,,,,,,,,,,,,1055.9019524999894,q,0.4171005010139197,1056.3902364999522,2,1.0729838330298662,,,,15,A,2024-08-22_09h16.25.181,EPIDM,2023.1.2,60.121852006007394,
7920.jpg,9102.jpg,3 Points,3 Points,340 Points,PS1_L6.csv,,,,,,,,,,,,,,,,,,,,,,,,,,,,,0,5,5,5,0,14,14,14,,,,,,,,,,,,,,,,,,,1061.7765672910027,p,0.47850004211068153,1062.3312806659378,,,,,,15,A,2024-08-22_09h16.25.181,EPIDM,2023.1.2,60.121852006007394,
5455.jpg,5220.jpg,0 Points,0 Points,340 Points,PS1_L6.csv,,,,,,,,,,,,,,,,,,,,,,,,,,,,,0,5,5,5,0,15,15,15,,,,,,,,,,,,,,,,,,,1066.5644742909353,q,0.19370783399790525,1066.8287690000143,,,,,,15,A,2024-08-22_09h16.25.181,EPIDM,2023.1.2,60.121852006007394,
3350.jpg,3210.jpg,1 Point,1 Point,341 Points,PS1_L6.csv,,,,,,,,,,,,,,,,,,,,,,,,,,,,,0,5,5,5,0,16,16,16,,,,,,,,,,,,,,,,,,,1071.072973415954,q,0.26098445802927017,1071.3903486251365,,,,,,15,A,2024-08-22_09h16.25.181,EPIDM,2023.1.2,60.121852006007394,
2560.jpg,5270.jpg,4 Points,4 Points,345 Points,PS1_L6.csv,,,,,,,,,,,,,,,,,,,,,,,,,,,,,0,5,5,5,0,17,17,17,,,,,,,,,,,,,,,,,,,1075.6392045000102,p,0.4071129581425339,1076.1229432080872,,,,,,15,A,2024-08-22_09h16.25.181,EPIDM,2023.1.2,60.121852006007394,
9584.jpg,3400.jpg,2 Points,2 Points,347 Points,PS1_L6.csv,,,,,,,,,,,,,,,,,,,,,,,,,,,,,0,5,5,5,0,18,18,18,,,,,,,,,,,,,,,,,,,1080.362537665991,p,0.371575916884467,1080.7988533750176,,,,,,15,A,2024-08-22_09h16.25.181,EPIDM,2023.1.2,60.121852006007394,
5760.jpg,1602.jpg,1 Point,1 Point,348 Points,PS1_L6.csv,,,,,,,,,,,,,,,,,,,,,,,,,,,,,0,5,5,5,0,19,19,19,,,,,,,,,,,,,,,,,,,1085.0361440000124,q,0.40975141688250005,1085.5063310000114,,,,,,15,A,2024-08-22_09h16.25.181,EPIDM,2023.1.2,60.121852006007394,
7230.jpg,7570.jpg,5 Points,5 Points,353 Points,PS1_L6.csv,,,,,,,,,,,,,,,,,,,,,,,,,,,,,0,5,5,5,0,20,20,20,,,,,,,,,,,,,,,,,,,1089.7589570409618,q,0.590730750001967,1090.4312878749333,,,,,,15,A,2024-08-22_09h16.25.181,EPIDM,2023.1.2,60.121852006007394,
1022.jpg,6930.jpg,1 Point,1 Point,354 Points,PS1_L6.csv,,,,,,,,,,,,,,,,,,,,,,,,,,,,,0,5,5,5,0,21,21,21,,,,,,,,,,,,,,,,,,,1094.663165541133,q,0.36636641691438854,1095.101157416124,,,,,,15,A,2024-08-22_09h16.25.181,EPIDM,2023.1.2,60.121852006007394,
8340.jpg,7546.jpg,2 Points,2 Points,356 Points,PS1_L6.csv,,,,,,,,,,,,,,,,,,,,,,,,,,,,,0,5,5,5,0,22,22,22,,,,,,,,,,,,,,,,,,,1099.3327561251353,q,0.4245865000411868,1099.8180955001153,,,,,,15,A,2024-08-22_09h16.25.181,EPIDM,2023.1.2,60.121852006007394,
6243.jpg,2752.jpg,2 Points,2 Points,358 Points,PS1_L6.csv,,,,,,,,,,,,,,,,,,,,,,,,,,,,,0,5,5,5,0,23,23,23,,,,,,,,,,,,,,,,,,,1104.0557889579795,p,0.3086602920666337,1104.4352655410767,,,1114.9043957500253,space,1.692297084024176,15,A,2024-08-22_09h16.25.181,EPIDM,2023.1.2,60.121852006007394,
7280.jpg,7160.jpg,0 Points,0 Points,358 Points,PS1_L7.csv,,,,,,,,,,,,,,,,,,,,,,,,,,,,,0,6,6,6,0,0,0,0,,,,,,,,,,,,,,,,,,,1119.9234955410939,p,0.3296271259896457,1120.3282426251099,,,,,,15,A,2024-08-22_09h16.25.181,EPIDM,2023.1.2,60.121852006007394,
2580.jpg,8300.jpg,3 Points,3 Points,361 Points,PS1_L7.csv,,,,,,,,,,,,,,,,,,,,,,,,,,,,,0,6,6,6,0,1,1,1,,,,,,,,,,,,,,,,,,,1124.558242041152,q,0.12711791694164276,1124.764470250113,3,1.4906497499905527,,,,15,A,2024-08-22_09h16.25.181,EPIDM,2023.1.2,60.121852006007394,
5972.jpg,6838.jpg,5 Points,5 Points,366 Points,PS1_L7.csv,,,,,,,,,,,,,,,,,,,,,,,,,,,,,0,6,6,6,0,2,2,2,,,,,,,,,,,,,,,,,,,1130.561785750091,q,0.803381459088996,1131.431385541102,,,,,,15,A,2024-08-22_09h16.25.181,EPIDM,2023.1.2,60.121852006007394,
5621.jpg,5534.jpg,3 Points,3 Points,369 Points,PS1_L7.csv,,,,,,,,,,,,,,,,,,,,,,,,,,,,,0,6,6,6,0,3,3,3,,,,,,,,,,,,,,,,,,,1135.6746712080203,q,0.40203287615440786,1136.1497897910886,,,,,,15,A,2024-08-22_09h16.25.181,EPIDM,2023.1.2,60.121852006007394,
8480.jpg,6410.jpg,1 Point,1 Point,370 Points,PS1_L7.csv,,,,,,,,,,,,,,,,,,,,,,,,,,,,,0,6,6,6,0,4,4,4,,,,,,,,,,,,,,,,,,,1140.3880291660316,q,0.16122462507337332,1140.6230605000164,,,,,,15,A,2024-08-22_09h16.25.181,EPIDM,2023.1.2,60.121852006007394,
2702.jpg,1590.jpg,5 Points,5 Points,375 Points,PS1_L7.csv,,,,,,,,,,,,,,,,,,,,,,,,,,,,,0,6,6,6,0,5,5,5,,,,,,,,,,,,,,,,,,,1144.8580851659644,q,0.39367462508380413,1145.3332021660171,,,,,,15,A,2024-08-22_09h16.25.181,EPIDM,2023.1.2,60.121852006007394,
1275.jpg,3150.jpg,1 Point,1 Point,376 Points,PS1_L7.csv,,,,,,,,,,,,,,,,,,,,,,,,,,,,,0,6,6,6,0,6,6,6,,,,,,,,,,,,,,,,,,,1149.5752375000156,p,0.2528843339532614,1149.90330395801,,,,,,15,A,2024-08-22_09h16.25.181,EPIDM,2023.1.2,60.121852006007394,
1910.jpg,2575.jpg,2 Points,2 Points,378 Points,PS1_L7.csv,,,,,,,,,,,,,,,,,,,,,,,,,,,,,0,6,6,6,0,7,7,7,,,,,,,,,,,,,,,,,,,1154.1452392081264,q,0.28306329203769565,1154.4862219579518,,,,,,15,A,2024-08-22_09h16.25.181,EPIDM,2023.1.2,60.121852006007394,
2518.jpg,2381.jpg,1 Point,1 Point,382 Points,PS1_L7.csv,,,,,,,,,,,,,,,,,,,,,,,,,,,,,0,6,6,6,0,8,8,8,,,,,,,,,,,,,,,,,,,1158.7329137909692,q,0.4152350421063602,1159.2104298330378,,,,,,15,A,2024-08-22_09h16.25.181,EPIDM,2023.1.2,60.121852006007394,
6250.1.jpg,3301.jpg,0 Points,0 Points,382 Points,PS1_L7.csv,,,,,,,,,,,,,,,,,,,,,,,,,,,,,0,6,6,6,0,9,9,9,,,,,,,,,,,,,,,,,,,1163.4666561661288,p,0.32158408290706575,1163.8579249579925,,,,,,15,A,2024-08-22_09h16.25.181,EPIDM,2023.1.2,60.121852006007394,
7234.jpg,5533.jpg,3 Points,3 Points,385 Points,PS1_L7.csv,,,,,,,,,,,,,,,,,,,,,,,,,,,,,0,6,6,6,0,10,10,10,,,,,,,,,,,,,,,,,,,1168.105507957982,p,0.2744220420718193,1168.450143000111,,,,,,15,A,2024-08-22_09h16.25.181,EPIDM,2023.1.2,60.121852006007394,
9920.jpg,3068.jpg,5 Points,5 Points,390 Points,PS1_L7.csv,,,,,,,,,,,,,,,,,,,,,,,,,,,,,0,6,6,6,0,11,11,11,,,,,,,,,,,,,,,,,,,1172.6858704159968,p,0.446162624983117,1173.1869721249677,,,,,,15,A,2024-08-22_09h16.25.181,EPIDM,2023.1.2,60.121852006007394,
3022.jpg,2352.2.jpg,0 Points,0 Points,390 Points,PS1_L7.csv,,,,,,,,,,,,,,,,,,,,,,,,,,,,,0,6,6,6,0,12,12,12,,,,,,,,,,,,,,,,,,,1177.437266250141,p,0.4866609168238938,1178.0036680831108,,,,,,15,A,2024-08-22_09h16.25.181,EPIDM,2023.1.2,60.121852006007394,
8250.jpg,1313.jpg,4 Points,4 Points,394 Points,PS1_L7.csv,,,,,,,,,,,,,,,,,,,,,,,,,,,,,0,6,6,6,0,13,13,13,,,,,,,,,,,,,,,,,,,1182.2497219161596,p,0.5937307919375598,1182.9267860830296,4,1.2446977500803769,,,,15,A,2024-08-22_09h16.25.181,EPIDM,2023.1.2,60.121852006007394,
2690.jpg,9360.jpg,1 Point,1 Point,395 Points,PS1_L7.csv,,,,,,,,,,,,,,,,,,,,,,,,,,,,,0,6,6,6,0,14,14,14,,,,,,,,,,,,,,,,,,,1188.4664094580803,q,0.32114462507888675,1188.8733955409843,,,,,,15,A,2024-08-22_09h16.25.181,EPIDM,2023.1.2,60.121852006007394,
9570.jpg,6610.jpg,0 Points,0 Points,395 Points,PS1_L7.csv,,,,,,,,,,,,,,,,,,,,,,,,,,,,,0,6,6,6,0,15,15,15,,,,,,,,,,,,,,,,,,,1193.1139509580098,p,0.0742509588599205,1193.2680033750366,,,,,,15,A,2024-08-22_09h16.25.181,EPIDM,2023.1.2,60.121852006007394,
3110.jpg,9000.jpg,4 Points,4 Points,399 Points,PS1_L7.csv,,,,,,,,,,,,,,,,,,,,,,,,,,,,,0,6,6,6,0,16,16,16,,,,,,,,,,,,,,,,,,,1197.5047299580183,q,0.27470025001093745,1197.8465526660439,,,,,,15,A,2024-08-22_09h16.25.181,EPIDM,2023.1.2,60.121852006007394,
8465.jpg,8400.jpg,1 Point,1 Point,400 Points,PS1_L7.csv,,,,,,,,,,,,,,,,,,,,,,,,,,,,,0,6,6,6,0,17,17,17,,,,,,,,,,,,,,,,,,,1202.0863743750378,q,0.5723349167965353,1202.733382791048,,,,,,15,A,2024-08-22_09h16.25.181,EPIDM,2023.1.2,60.121852006007394,
1540.jpg,2600.jpg,1 Point,1 Point,401 Points,PS1_L7.csv,,,,,,,,,,,,,,,,,,,,,,,,,,,,,0,6,6,6,0,18,18,18,,,,,,,,,,,,,,,,,,,1206.968009875156,p,0.7547636248636991,1207.7827010001056,,,,,,15,A,2024-08-22_09h16.25.181,EPIDM,2023.1.2,60.121852006007394,
2276.jpg,6540.jpg,3 Points,3 Points,404 Points,PS1_L7.csv,,,,,,,,,,,,,,,,,,,,,,,,,,,,,0,6,6,6,0,19,19,19,,,,,,,,,,,,,,,,,,,1212.0339235409629,p,0.5134245010558516,1212.604320958024,,,,,,15,A,2024-08-22_09h16.25.181,EPIDM,2023.1.2,60.121852006007394,
5030.jpg,1670.jpg,3 Points,3 Points,407 Points,PS1_L7.csv,,,,,,,,,,,,,,,,,,,,,,,,,,,,,0,6,6,6,0,20,20,20,,,,,,,,,,,,,,,,,,,1216.8628450410906,q,0.23568225093185902,1217.1578824580647,,,,,,15,A,2024-08-22_09h16.25.181,EPIDM,2023.1.2,60.121852006007394,
9040.jpg,1120.jpg,3 Points,3 Points,410 Points,PS1_L7.csv,,,,,,,,,,,,,,,,,,,,,,,,,,,,,0,6,6,6,0,21,21,21,,,,,,,,,,,,,,,,,,,1221.4019656251185,q,0.7932329170871526,1222.2657698751427,,,,,,15,A,2024-08-22_09h16.25.181,EPIDM,2023.1.2,60.121852006007394,
3220.jpg,3063.jpg,5 Points,5 Points,415 Points,PS1_L7.csv,,,,,,,,,,,,,,,,,,,,,,,,,,,,,0,6,6,6,0,22,22,22,,,,,,,,,,,,,,,,,,,1226.5132666660938,p,0.8576539580244571,1227.4306239581201,,,,,,15,A,2024-08-22_09h16.25.181,EPIDM,2023.1.2,60.121852006007394,
8117.jpg,2880.jpg,5 Points,5 Points,420 Points,PS1_L7.csv,,,,,,,,,,,,,,,,,,,,,,,,,,,,,0,6,6,6,0,23,23,23,,,,,,,,,,,,,,,,,,,1231.6898021660745,p,0.4492662090342492,1232.213735541096,,,1242.6730237500742,space,1.8729713750071824,15,A,2024-08-22_09h16.25.181,EPIDM,2023.1.2,60.121852006007394,
4274.jpg,8160.jpg,2 Points,2 Points,422 Points,PS1_L8.csv,,,,,,,,,,,,,,,,,,,,,,,,,,,,,0,7,7,7,0,0,0,0,,,,,,,,,,,,,,,,,,,1247.851790457964,p,0.39801975013688207,1248.322013790952,,,,,,15,A,2024-08-22_09h16.25.181,EPIDM,2023.1.2,60.121852006007394,
6314.jpg,O022.jpg,2 Points,2 Points,424 Points,PS1_L8.csv,,,,,,,,,,,,,,,,,,,,,,,,,,,,,0,7,7,7,0,1,1,1,,,,,,,,,,,,,,,,,,,1252.5590092909988,p,0.6905842497944832,1253.3644845830277,2,1.1398670000489801,,,,15,A,2024-08-22_09h16.25.181,EPIDM,2023.1.2,60.121852006007394,
1560.jpg,8185.jpg,0 Points,0 Points,424 Points,PS1_L8.csv,,,,,,,,,,,,,,,,,,,,,,,,,,,,,0,7,7,7,0,2,2,2,,,,,,,,,,,,,,,,,,,1258.8002662081271,q,0.34606433380395174,1259.2478134580888,,,,,,15,A,2024-08-22_09h16.25.181,EPIDM,2023.1.2,60.121852006007394,
2850.jpg,4532.jpg,3 Points,3 Points,427 Points,PS1_L8.csv,,,,,,,,,,,,,,,,,,,,,,,,,,,,,0,7,7,7,0,3,3,3,,,,,,,,,,,,,,,,,,,1263.4514030411374,p,0.9261627499945462,1264.4333807909861,,,,,,15,A,2024-08-22_09h16.25.181,EPIDM,2023.1.2,60.121852006007394,
1390.jpg,9421.jpg,2 Points,2 Points,429 Points,PS1_L8.csv,,,,,,,,,,,,,,,,,,,,,,,,,,,,,0,7,7,7,0,4,4,4,,,,,,,,,,,,,,,,,,,1268.6812613329384,q,0.18328325101174414,1268.9407066251151,,,,,,15,A,2024-08-22_09h16.25.181,EPIDM,2023.1.2,60.121852006007394,
9800.jpg,9433.jpg,1 Point,1 Point,430 Points,PS1_L8.csv,,,,,,,,,,,,,,,,,,,,,,,,,,,,,0,7,7,7,0,5,5,5,,,,,,,,,,,,,,,,,,,1273.1766005831305,p,0.18425554200075567,1273.4323982500937,,,,,,15,A,2024-08-22_09h16.25.181,EPIDM,2023.1.2,60.121852006007394,
8161.jpg,1900.jpg,4 Points,4 Points,434 Points,PS1_L8.csv,,,,,,,,,,,,,,,,,,,,,,,,,,,,,0,7,7,7,0,6,6,6,,,,,,,,,,,,,,,,,,,1277.6790466660168,p,0.4021591669879854,1278.1450994999614,,,,,,15,A,2024-08-22_09h16.25.181,EPIDM,2023.1.2,60.121852006007394,
1112.jpg,6230.jpg,3 Points,3 Points,437 Points,PS1_L8.csv,,,,,,,,,,,,,,,,,,,,,,,,,,,,,0,7,7,7,0,7,7,7,,,,,,,,,,,,,,,,,,,1282.3819087911397,p,0.3549066260457039,1282.8089528749697,,,,,,15,A,2024-08-22_09h16.25.181,EPIDM,2023.1.2,60.121852006007394,
1111.jpg,1040.jpg,0 Points,0 Points,437 Points,PS1_L8.csv,,,,,,,,,,,,,,,,,,,,,,,,,,,,,0,7,7,7,0,8,8,8,,,,,,,,,,,,,,,,,,,1287.0415957910009,q,0.6714810419362038,1287.7883942909539,,,,,,15,A,2024-08-22_09h16.25.181,EPIDM,2023.1.2,60.121852006007394,
5622.jpg,9156.jpg,4 Points,4 Points,441 Points,PS1_L8.csv,,,,,,,,,,,,,,,,,,,,,,,,,,,,,0,7,7,7,0,9,9,9,,,,,,,,,,,,,,,,,,,1292.0316481250338,q,0.6332505838945508,1292.7433180829976,,,,,,15,A,2024-08-22_09h16.25.181,EPIDM,2023.1.2,60.121852006007394,
2681.jpg,7100.jpg,3 Points,3 Points,444 Points,PS1_L8.csv,,,,,,,,,,,,,,,,,,,,,,,,,,,,,0,7,7,7,0,10,10,10,,,,,,,,,,,,,,,,,,,1296.9666382500436,q,0.3457965000998229,1297.387839416042,,,,,,15,A,2024-08-22_09h16.25.181,EPIDM,2023.1.2,60.121852006007394,
6821.jpg,9622.jpg,2 Points,2 Points,446 Points,PS1_L8.csv,,,,,,,,,,,,,,,,,,,,,,,,,,,,,0,7,7,7,0,11,11,11,,,,,,,,,,,,,,,,,,,1301.6295407500584,q,0.47439037496224046,1302.1677722500172,,,,,,15,A,2024-08-22_09h16.25.181,EPIDM,2023.1.2,60.121852006007394,
9490.jpg,9210.jpg,1 Point,1 Point,447 Points,PS1_L8.csv,,,,,,,,,,,,,,,,,,,,,,,,,,,,,0,7,7,7,0,12,12,12,,,,,,,,,,,,,,,,,,,1306.4116977080703,q,0.5799239589832723,1307.0501637081616,,,,,,15,A,2024-08-22_09h16.25.181,EPIDM,2023.1.2,60.121852006007394,
4605.jpg,1510.jpg,4 Points,4 Points,451 Points,PS1_L8.csv,,,,,,,,,,,,,,,,,,,,,,,,,,,,,0,7,7,7,0,13,13,13,,,,,,,,,,,,,,,,,,,1311.310933208093,q,0.5132307501044124,1311.8958007909823,4,1.4876252089161426,,,,15,A,2024-08-22_09h16.25.181,EPIDM,2023.1.2,60.121852006007394,
2240.jpg,5010.jpg,5 Points,5 Points,456 Points,PS1_L8.csv,,,,,,,,,,,,,,,,,,,,,,,,,,,,,0,7,7,7,0,14,14,14,,,,,,,,,,,,,,,,,,,1317.7039232500829,p,1.4871102089527994,1319.2699204580858,,,,,,15,A,2024-08-22_09h16.25.181,EPIDM,2023.1.2,60.121852006007394,
3102.jpg,F032.jpg,1 Point,1 Point,457 Points,PS1_L8.csv,,,,,,,,,,,,,,,,,,,,,,,,,,,,,0,7,7,7,0,15,15,15,,,,,,,,,,,,,,,,,,,1323.5120232501067,q,0.3279565838165581,1323.9520468751434,,,,,,15,A,2024-08-22_09h16.25.181,EPIDM,2023.1.2,60.121852006007394,
4100.jpg,6570.2.jpg,3 Points,3 Points,460 Points,PS1_L8.csv,,,,,,,,,,,,,,,,,,,,,,,,,,,,,0,7,7,7,0,16,16,16,,,,,,,,,,,,,,,,,,,1328.1538495409768,q,0.38920904183760285,1328.6580382911488,,,,,,15,A,2024-08-22_09h16.25.181,EPIDM,2023.1.2,60.121852006007394,
2650.jpg,4531.jpg,5 Points,5 Points,465 Points,PS1_L8.csv,,,,,,,,,,,,,,,,,,,,,,,,,,,,,0,7,7,7,0,17,17,17,,,,,,,,,,,,,,,,,,,1332.8535190410912,q,0.3620405839756131,1333.2916003749706,,,,,,15,A,2024-08-22_09h16.25.181,EPIDM,2023.1.2,60.121852006007394,
9320.jpg,9007.jpg,0 Points,0 Points,465 Points,PS1_L8.csv,,,,,,,,,,,,,,,,,,,,,,,,,,,,,0,7,7,7,0,18,18,18,,,,,,,,,,,,,,,,,,,1337.5298270001076,q,1.1090695839375257,1338.7184639580082,,,,,,15,A,2024-08-22_09h16.25.181,EPIDM,2023.1.2,60.121852006007394,
8460.jpg,8330.jpg,0 Points,0 Points,465 Points,PS1_L8.csv,,,,,,,,,,,,,,,,,,,,,,,,,,,,,0,7,7,7,0,19,19,19,,,,,,,,,,,,,,,,,,,1342.9538394580595,q,0.6783126250375062,1343.7031855001114,,,,,,15,A,2024-08-22_09h16.25.181,EPIDM,2023.1.2,60.121852006007394,
2570.jpg,5500.jpg,3 Points,3 Points,468 Points,PS1_L8.csv,,,,,,,,,,,,,,,,,,,,,,,,,,,,,0,7,7,7,0,20,20,20,,,,,,,,,,,,,,,,,,,1347.9496402081568,q,0.5372763748746365,1348.5537767501082,,,,,,15,A,2024-08-22_09h16.25.181,EPIDM,2023.1.2,60.121852006007394,
6190.jpg,3120.jpg,5 Points,5 Points,473 Points,PS1_L8.csv,,,,,,,,,,,,,,,,,,,,,,,,,,,,,0,7,7,7,0,21,21,21,,,,,,,,,,,,,,,,,,,1352.7935210000724,q,0.44504612497985363,1353.3169861659408,,,,,,15,A,2024-08-22_09h16.25.181,EPIDM,2023.1.2,60.121852006007394,
2200.jpg,4598.jpg,1 Point,1 Point,474 Points,PS1_L8.csv,,,,,,,,,,,,,,,,,,,,,,,,,,,,,0,7,7,7,0,22,22,22,,,,,,,,,,,,,,,,,,,1357.5529367909767,p,0.853993209078908,1358.4806455830112,,,,,,15,A,2024-08-22_09h16.25.181,EPIDM,2023.1.2,60.121852006007394,
1303.jpg,2000.jpg,0 Points,0 Points,474 Points,PS1_L8.csv,,,,,,,,,,,,,,,,,,,,,,,,,,,,,0,7,7,7,0,23,23,23,,,,,,,,,,,,,,,,,,,1362.7096238750964,q,0.6912557920441031,1363.477485707961,,,1373.9502736660652,space,1.6974488750565797,15,A,2024-08-22_09h16.25.181,EPIDM,2023.1.2,60.121852006007394,
9010.jpg,9253.jpg,0 Points,0 Points,474 Points,PS1_L9.csv,,,,,,,,,,,,,,,,,,,,,,,,,,,,,0,8,8,8,0,0,0,0,,,,,,,,,,,,,,,,,,,1378.9623260830995,q,0.7325625419616699,1379.7650674160104,,,,,,15,A,2024-08-22_09h16.25.181,EPIDM,2023.1.2,60.121852006007394,
1302.jpg,2700.jpg,3 Points,3 Points,477 Points,PS1_L9.csv,,,,,,,,,,,,,,,,,,,,,,,,,,,,,0,8,8,8,0,1,1,1,,,,,,,,,,,,,,,,,,,1384.0092775409576,p,0.6693367920815945,1384.7546725829598,3,1.0671288329176605,,,,15,A,2024-08-22_09h16.25.181,EPIDM,2023.1.2,60.121852006007394,
2030.jpg,2495.jpg,0 Points,0 Points,477 Points,PS1_L9.csv,,,,,,,,,,,,,,,,,,,,,,,,,,,,,0,8,8,8,0,2,2,2,,,,,,,,,,,,,,,,,,,1390.1307940410916,p,0.5709592078346759,1390.7715020829346,,,,,,15,A,2024-08-22_09h16.25.181,EPIDM,2023.1.2,60.121852006007394,
2110.jpg,7260.jpg,5 Points,5 Points,482 Points,PS1_L9.csv,,,,,,,,,,,,,,,,,,,,,,,,,,,,,0,8,8,8,0,3,3,3,,,,,,,,,,,,,,,,,,,1395.010212375084,q,0.5000772499479353,1395.5756487080362,,,,,,15,A,2024-08-22_09h16.25.181,EPIDM,2023.1.2,60.121852006007394,
2053.jpg,9415.jpg,4 Points,4 Points,486 Points,PS1_L9.csv,,,,,,,,,,,,,,,,,,,,,,,,,,,,,0,8,8,8,0,4,4,4,,,,,,,,,,,,,,,,,,,1399.8186953330878,q,0.364901500986889,1400.2512419580016,,,,,,15,A,2024-08-22_09h16.25.181,EPIDM,2023.1.2,60.121852006007394,
6211.jpg,9611.jpg,3 Points,3 Points,489 Points,PS1_L9.csv,,,,,,,,,,,,,,,,,,,,,,,,,,,,,0,8,8,8,0,5,5,5,,,,,,,,,,,,,,,,,,,1404.4921106251422,q,0.4018267919309437,1404.948476791149,,,,,,15,A,2024-08-22_09h16.25.181,EPIDM,2023.1.2,60.121852006007394,
8350.jpg,7190.jpg,5 Points,5 Points,494 Points,PS1_L9.csv,,,,,,,,,,,,,,,,,,,,,,,,,,,,,0,8,8,8,0,6,6,6,,,,,,,,,,,,,,,,,,,1409.2053897499572,p,0.5532723339274526,1409.8381121249404,,,,,,15,A,2024-08-22_09h16.25.181,EPIDM,2023.1.2,60.121852006007394,
9340.jpg,6910.jpg,0 Points,0 Points,494 Points,PS1_L9.csv,,,,,,,,,,,,,,,,,,,,,,,,,,,,,0,8,8,8,0,7,7,7,,,,,,,,,,,,,,,,,,,1414.0855288330931,q,0.23281341698020697,1414.3856225830968,,,,,,15,A,2024-08-22_09h16.25.181,EPIDM,2023.1.2,60.121852006007394,
4533.jpg,2385.jpg,3 Points,3 Points,497 Points,PS1_L9.csv,,,,,,,,,,,,,,,,,,,,,,,,,,,,,0,8,8,8,0,8,8,8,,,,,,,,,,,,,,,,,,,1418.632902415935,p,0.0034456669818609953,1418.7143720409367,,,,,,15,A,2024-08-22_09h16.25.181,EPIDM,2023.1.2,60.121852006007394,
5940.jpg,9411.jpg,0 Points,0 Points,497 Points,PS1_L9.csv,,,,,,,,,,,,,,,,,,,,,,,,,,,,,0,8,8,8,0,9,9,9,,,,,,,,,,,,,,,,,,,1422.9493154580705,q,0.37646645912900567,1423.4044293749612,,,,,,15,A,2024-08-22_09h16.25.181,EPIDM,2023.1.2,60.121852006007394,
2220.jpg,2010.jpg,5 Points,5 Points,502 Points,PS1_L9.csv,,,,,,,,,,,,,,,,,,,,,,,,,,,,,0,8,8,8,0,10,10,10,,,,,,,,,,,,,,,,,,,1427.6419240001123,q,0.3411536670755595,1428.0556934580673,,,,,,15,A,2024-08-22_09h16.25.181,EPIDM,2023.1.2,60.121852006007394,
9500.jpg,6360.jpg,1 Point,1 Point,503 Points,PS1_L9.csv,,,,,,,,,,,,,,,,,,,,,,,,,,,,,0,8,8,8,0,11,11,11,,,,,,,,,,,,,,,,,,,1432.2916600410827,q,0.5071306671015918,1432.8659735410474,,,,,,15,A,2024-08-22_09h16.25.181,EPIDM,2023.1.2,60.121852006007394,
2092.jpg,2210.jpg,0 Points,0 Points,503 Points,PS1_L9.csv,,,,,,,,,,,,,,,,,,,,,,,,,,,,,0,8,8,8,0,12,12,12,,,,,,,,,,,,,,,,,,,1437.107891249936,q,0.3365372091066092,1437.5158930830657,,,,,,15,A,2024-08-22_09h16.25.181,EPIDM,2023.1.2,60.121852006007394,
9530.jpg,9220.jpg,1 Point,1 Point,504 Points,PS1_L9.csv,,,,,,,,,,,,,,,,,,,,,,,,,,,,,0,8,8,8,0,13,13,13,,,,,,,,,,,,,,,,,,,1441.750408041058,q,0.39913020795211196,1442.2101541250013,1,1.3040802089963108,,,,15,A,2024-08-22_09h16.25.181,EPIDM,2023.1.2,60.121852006007394,
9254.jpg,9290.jpg,2 Points,2 Points,506 Points,PS1_L9.csv,,,,,,,,,,,,,,,,,,,,,,,,,,,,,0,8,8,8,0,14,14,14,,,,,,,,,,,,,,,,,,,1447.8259659160394,q,3.3078091249335557,1451.191096500028,,,,,,15,A,2024-08-22_09h16.25.181,EPIDM,2023.1.2,60.121852006007394,
4608.jpg,8320.jpg,1 Point,1 Point,507 Points,PS1_L9.csv,,,,,,,,,,,,,,,,,,,,,,,,,,,,,0,8,8,8,0,15,15,15,,,,,,,,,,,,,,,,,,,1455.4488649161067,q,0.38822537497617304,1455.907259541098,,,,,,15,A,2024-08-22_09h16.25.181,EPIDM,2023.1.2,60.121852006007394,
7237.jpg,8510.jpg,4 Points,4 Points,511 Points,PS1_L9.csv,,,,,,,,,,,,,,,,,,,,,,,,,,,,,0,8,8,8,0,16,16,16,,,,,,,,,,,,,,,,,,,1460.1577491660137,p,0.47896150103770196,1460.712021958083,,,,,,15,A,2024-08-22_09h16.25.181,EPIDM,2023.1.2,60.121852006007394,
9417.jpg,6530.jpg,1 Point,1 Point,512 Points,PS1_L9.csv,,,,,,,,,,,,,,,,,,,,,,,,,,,,,0,8,8,8,0,17,17,17,,,,,,,,,,,,,,,,,,,1464.9466114160605,p,0.4736440840642899,1465.504560790956,,,,,,15,A,2024-08-22_09h16.25.181,EPIDM,2023.1.2,60.121852006007394,
6831.jpg,2141.jpg,5 Points,5 Points,517 Points,PS1_L9.csv,,,,,,,,,,,,,,,,,,,,,,,,,,,,,0,8,8,8,0,18,18,18,,,,,,,,,,,,,,,,,,,1469.750131583074,q,0.1336419580038637,1469.955510166008,,,,,,15,A,2024-08-22_09h16.25.181,EPIDM,2023.1.2,60.121852006007394,
4689.jpg,7009.jpg,5 Points,5 Points,522 Points,PS1_L9.csv,,,,,,,,,,,,,,,,,,,,,,,,,,,,,0,8,8,8,0,19,19,19,,,,,,,,,,,,,,,,,,,1474.2003938329872,q,0.3002315419726074,1474.5757584159728,,,,,,15,A,2024-08-22_09h16.25.181,EPIDM,2023.1.2,60.121852006007394,
2751.jpg,6313.jpg,3 Points,3 Points,525 Points,PS1_L9.csv,,,,,,,,,,,,,,,,,,,,,,,,,,,,,0,8,8,8,0,20,20,20,,,,,,,,,,,,,,,,,,,1478.8331590830348,p,0.38243470899760723,1479.2940196250565,,,,,,15,A,2024-08-22_09h16.25.181,EPIDM,2023.1.2,60.121852006007394,
4621.jpg,3550.jpg,2 Points,2 Points,527 Points,PS1_L9.csv,,,,,,,,,,,,,,,,,,,,,,,,,,,,,0,8,8,8,0,21,21,21,,,,,,,,,,,,,,,,,,,1483.5497884999495,p,0.5981613760814071,1484.223279583035,,,,,,15,A,2024-08-22_09h16.25.181,EPIDM,2023.1.2,60.121852006007394,
8220.jpg,2410.jpg,4 Points,4 Points,531 Points,PS1_L9.csv,,,,,,,,,,,,,,,,,,,,,,,,,,,,,0,8,8,8,0,22,22,22,,,,,,,,,,,,,,,,,,,1488.4660960410256,q,0.2095881258137524,1488.739161415957,,,,,,15,A,2024-08-22_09h16.25.181,EPIDM,2023.1.2,60.121852006007394,
1113.jpg,1240.jpg,3 Points,3 Points,534 Points,PS1_L9.csv,,,,,,,,,,,,,,,,,,,,,,,,,,,,,0,8,8,8,0,23,23,23,,,,,,,,,,,,,,,,,,,1492.979394624941,p,0.3685981258749962,1493.4191334999632,,,1503.9558123331517,space,1.5916178750339895,15,A,2024-08-22_09h16.25.181,EPIDM,2023.1.2,60.121852006007394,
2750.jpg,9050.jpg,4 Points,4 Points,538 Points,PS1_L10.csv,,,,,,,,,,,,,,,,,,,,,,,,,,,,,0,9,9,9,0,0,0,0,,,,,,,,,,,,,,,,,,,1508.8647131251637,q,0.2826403339859098,1509.2170857910533,,,,,,15,A,2024-08-22_09h16.25.181,EPIDM,2023.1.2,60.121852006007394,
2312.jpg,2722.jpg,1 Points,1 Points,539 Points,PS1_L10.csv,,,,,,,,,,,,,,,,,,,,,,,,,,,,,0,9,9,9,0,1,1,1,,,,,,,,,,,,,,,,,,,1513.46211650013,p,0.21286225109361112,1513.743475916097,1,1.0811982499435544,,,,15,A,2024-08-22_09h16.25.181,EPIDM,2023.1.2,60.121852006007394,
8232.jpg,4279.jpg,5 Points,5 Points,544 Points,PS1_L10.csv,,,,,,,,,,,,,,,,,,,,,,,,,,,,,0,9,9,9,0,2,2,2,,,,,,,,,,,,,,,,,,,1519.123122750083,p,0.46397899999283254,1519.669089416042,,,,,,15,A,2024-08-22_09h16.25.181,EPIDM,2023.1.2,60.121852006007394,
6000.jpg,6836.jpg,4 Points,4 Points,548 Points,PS1_L10.csv,,,,,,,,,,,,,,,,,,,,,,,,,,,,,0,9,9,9,0,3,3,3,,,,,,,,,,,,,,,,,,,1523.9060324579477,p,0.38477404206059873,1524.3622365409974,,,,,,15,A,2024-08-22_09h16.25.181,EPIDM,2023.1.2,60.121852006007394,
4536.jpg,2280.jpg,4 Points,4 Points,552 Points,PS1_L10.csv,,,,,,,,,,,,,,,,,,,,,,,,,,,,,0,9,9,9,0,4,4,4,,,,,,,,,,,,,,,,,,,1528.6054784159642,q,0.37436979194171727,1529.0437255001161,,,,,,15,A,2024-08-22_09h16.25.181,EPIDM,2023.1.2,60.121852006007394,
6241.jpg,9561.jpg,3 Points,3 Points,555 Points,PS1_L10.csv,,,,,,,,,,,,,,,,,,,,,,,,,,,,,0,9,9,9,0,5,5,5,,,,,,,,,,,,,,,,,,,1533.2968326660339,q,0.35434658406302333,1533.7209078329615,,,,,,15,A,2024-08-22_09h16.25.181,EPIDM,2023.1.2,60.121852006007394,
1942.jpg,2890.jpg,1 Points,1 Points,556 Points,PS1_L10.csv,,,,,,,,,,,,,,,,,,,,,,,,,,,,,0,9,9,9,0,6,6,6,,,,,,,,,,,,,,,,,,,1537.9639024999924,p,0.11892116721719503,1538.152483208105,,,,,,15,A,2024-08-22_09h16.25.181,EPIDM,2023.1.2,60.121852006007394,
6020.jpg,6300.jpg,2 Points,2 Points,558 Points,PS1_L10.csv,,,,,,,,,,,,,,,,,,,,,,,,,,,,,0,9,9,9,0,7,7,7,,,,,,,,,,,,,,,,,,,1542.3943128751125,q,0.128218499943614,1542.5916778750252,,,,,,15,A,2024-08-22_09h16.25.181,EPIDM,2023.1.2,60.121852006007394,
7170.jpg,2170.jpg,2 Points,2 Points,560 Points,PS1_L10.csv,,,,,,,,,,,,,,,,,,,,,,,,,,,,,0,9,9,9,0,8,8,8,,,,,,,,,,,,,,,,,,,1546.8481356659904,p,0.41861937497742474,1547.3365600830875,,,,,,15,A,2024-08-22_09h16.25.181,EPIDM,2023.1.2,60.121852006007394,
5510.jpg,2514.jpg,5 Points,5 Points,565 Points,PS1_L10.csv,,,,,,,,,,,,,,,,,,,,,,,,,,,,,0,9,9,9,0,9,9,9,,,,,,,,,,,,,,,,,,,1551.577937791124,q,0.04081087512895465,1551.6856953329407,,,,,,15,A,2024-08-22_09h16.25.181,EPIDM,2023.1.2,60.121852006007394,
6840.jpg,3080.jpg,1 Points,1 Points,566 Points,PS1_L10.csv,,,,,,,,,,,,,,,,,,,,,,,,,,,,,0,9,9,9,0,10,10,10,,,,,,,,,,,,,,,,,,,1555.9185162500944,p,0.2615072091575712,1556.2420879160054,,,,,,15,A,2024-08-22_09h16.25.181,EPIDM,2023.1.2,60.121852006007394,
7195.jpg,2487.jpg,2 Points,2 Points,568 Points,PS1_L10.csv,,,,,,,,,,,,,,,,,,,,,,,,,,,,,0,9,9,9,0,11,11,11,,,,,,,,,,,,,,,,,,,1560.4850702909753,q,0.17260962608270347,1560.7266111660283,,,,,,15,A,2024-08-22_09h16.25.181,EPIDM,2023.1.2,60.121852006007394,
5971.jpg,9912.jpg,5 Points,5 Points,573 Points,PS1_L10.csv,,,,,,,,,,,,,,,,,,,,,,,,,,,,,0,9,9,9,0,12,12,12,,,,,,,,,,,,,,,,,,,1564.9648981660139,q,0.09366708411835134,1565.1143020831514,,,,,,15,A,2024-08-22_09h16.25.181,EPIDM,2023.1.2,60.121852006007394,
2520.jpg,8503.jpg,2 Points,2 Points,575 Points,PS1_L10.csv,,,,,,,,,,,,,,,,,,,,,,,,,,,,,0,9,9,9,0,13,13,13,,,,,,,,,,,,,,,,,,,1569.3715529581532,p,0.20721795898862183,1569.6473798330408,2,1.0215062510687858,,,,15,A,2024-08-22_09h16.25.181,EPIDM,2023.1.2,60.121852006007394,
5480.jpg,8200.jpg,4 Points,4 Points,579 Points,PS1_L10.csv,,,,,,,,,,,,,,,,,,,,,,,,,,,,,0,9,9,9,0,14,14,14,,,,,,,,,,,,,,,,,,,1574.9847185830586,q,0.313104041852057,1575.3768587501254,,,,,,15,A,2024-08-22_09h16.25.181,EPIDM,2023.1.2,60.121852006007394,
6370.jpg,1270.jpg,4 Points,4 Points,583 Points,PS1_L10.csv,,,,,,,,,,,,,,,,,,,,,,,,,,,,,0,9,9,9,0,15,15,15,,,,,,,,,,,,,,,,,,,1579.6102452911437,q,0.16877466696314514,1579.8589531660546,,,,,,15,A,2024-08-22_09h16.25.181,EPIDM,2023.1.2,60.121852006007394,
5130.jpg,1810.jpg,3 Points,3 Points,586 Points,PS1_L10.csv,,,,,,,,,,,,,,,,,,,,,,,,,,,,,0,9,9,9,0,16,16,16,,,,,,,,,,,,,,,,,,,1584.100398041075,p,0.2293603748548776,1584.409669833025,,,,,,15,A,2024-08-22_09h16.25.181,EPIDM,2023.1.2,60.121852006007394,
4250.jpg,7060.jpg,5 Points,5 Points,591 Points,PS1_L10.csv,,,,,,,,,,,,,,,,,,,,,,,,,,,,,0,9,9,9,0,17,17,17,,,,,,,,,,,,,,,,,,,1588.633838958107,q,0.0640657499898225,1588.7721225831192,,,,,,15,A,2024-08-22_09h16.25.181,EPIDM,2023.1.2,60.121852006007394,
9373.jpg,9410.jpg,0 Points,0 Points,591 Points,PS1_L10.csv,,,,,,,,,,,,,,,,,,,,,,,,,,,,,0,9,9,9,0,18,18,18,,,,,,,,,,,,,,,,,,,1593.006551166065,q,0.33837095904164016,1593.4159408330452,,,,,,15,A,2024-08-22_09h16.25.181,EPIDM,2023.1.2,60.121852006007394,
2221.jpg,2270.jpg,2 Points,2 Points,593 Points,PS1_L10.csv,,,,,,,,,,,,,,,,,,,,,,,,,,,,,0,9,9,9,0,19,19,19,,,,,,,,,,,,,,,,,,,1597.6512206250336,p,0.33312025014311075,1598.0569800410885,,,,,,15,A,2024-08-22_09h16.25.181,EPIDM,2023.1.2,60.121852006007394,
1650.jpg,2130.jpg,1 Points,1 Points,594 Points,PS1_L10.csv,,,,,,,,,,,,,,,,,,,,,,,,,,,,,0,9,9,9,0,20,20,20,,,,,,,,,,,,,,,,,,,1602.3042888750788,q,0.34454329195432365,1602.7161844160873,,,,,,15,A,2024-08-22_09h16.25.181,EPIDM,2023.1.2,60.121852006007394,
1280.jpg,9402.jpg,2 Points,2 Points,596 Points,PS1_L10.csv,,,,,,,,,,,,,,,,,,,,,,,,,,,,,0,9,9,9,0,21,21,21,,,,,,,,,,,,,,,,,,,1606.9582014160696,p,0.22614570800215006,1607.2573127909563,,,,,,15,A,2024-08-22_09h16.25.181,EPIDM,2023.1.2,60.121852006007394,
2214.jpg,4500.jpg,3 Points,3 Points,599 Points,PS1_L10.csv,,,,,,,,,,,,,,,,,,,,,,,,,,,,,0,9,9,9,0,22,22,22,,,,,,,,,,,,,,,,,,,1611.496849915944,p,0.3600169171113521,1611.9370797500014,,,,,,15,A,2024-08-22_09h16.25.181,EPIDM,2023.1.2,60.121852006007394,
7284.jpg,8021.jpg,4 Points,4 Points,603 Points,PS1_L10.csv,,,,,,,,,,,,,,,,,,,,,,,,,,,,,0,9,9,9,0,23,23,23,,,,,,,,,,,,,,,,,,,1616.1710839159787,q,0.16542287496849895,1616.4067630830687,,,1626.8439661660232,space,3.3805574169382453,15,A,2024-08-22_09h16.25.181,EPIDM,2023.1.2,60.121852006007394,
