L_Scene,R_Scene,Points_L,Points_R,PtTotal,blockFile,Instructions_Loop.thisRepN,Instructions_Loop.thisTrialN,Instructions_Loop.thisN,Instructions_Loop.thisIndex,Redo_Instructions_Loop.thisRepN,Redo_Instructions_Loop.thisTrialN,Redo_Instructions_Loop.thisN,Redo_Instructions_Loop.thisIndex,Practice_Encoding_Loop.thisRepN,Practice_Encoding_Loop.thisTrialN,Practice_Encoding_Loop.thisN,Practice_Encoding_Loop.thisIndex,Practice_Response_Fail_Loop.thisRepN,Practice_Response_Fail_Loop.thisTrialN,Practice_Response_Fail_Loop.thisN,Practice_Response_Fail_Loop.thisIndex,Practice_FB_Loop.thisRepN,Practice_FB_Loop.thisTrialN,Practice_FB_Loop.thisN,Practice_FB_Loop.thisIndex,Practice_Attention_Loop.thisRepN,Practice_Attention_Loop.thisTrialN,Practice_Attention_Loop.thisN,Practice_Attention_Loop.thisIndex,Practice_EncBrk_Loop.thisRepN,Practice_EncBrk_Loop.thisTrialN,Practice_EncBrk_Loop.thisN,Practice_EncBrk_Loop.thisIndex,Encoding_Loop.thisRepN,Encoding_Loop.thisTrialN,Encoding_Loop.thisN,Encoding_Loop.thisIndex,EncStim_Loop.thisRepN,EncStim_Loop.thisTrialN,EncStim_Loop.thisN,EncStim_Loop.thisIndex,Response_Fail_Loop.thisRepN,Response_Fail_Loop.thisTrialN,Response_Fail_Loop.thisN,Response_Fail_Loop.thisIndex,FB_Loop.thisRepN,FB_Loop.thisTrialN,FB_Loop.thisN,FB_Loop.thisIndex,Attention_Loop.thisRepN,Attention_Loop.thisTrialN,Attention_Loop.thisN,Attention_Loop.thisIndex,EncBrk_Loop.thisRepN,EncBrk_Loop.thisTrialN,EncBrk_Loop.thisN,EncBrk_Loop.thisIndex,Transition_Enc.keys,Transition_Enc.rt,Encoding_Resp.started,Encoding_Resp.keys,Encoding_Resp.rt,R_Point_FB_Stim.started,Attn_resp.keys,Attn_resp.rt,Progress_Tracker.started,EncBrk_Resp.keys,EncBrk_Resp.rt,Encoding_Resp.stopped,participant,Group,date,expName,psychopyVersion,frameRate,
,,,,,,,,,,,,,,,,,,,,,,,,,,,,,,,,,,,,,,,,,,,,,,,,,,,,,,,,,,space,7.421822208212689,,,,,,,,,,,19,A,2024-08-29_09h22.31.716,EPIDM,2023.1.2,None,
A060.jpg,F041.jpg,5 Points,5 Points,5 Points,,,,,,,,,,0,0,0,0,,,,,,,,,,,,,,,,,,,,,,,,,,,,,,,,,,,,,,,,,,,179.26709520886652,q,2.2015117921400815,181.61524929199368,,,,,,,19,A,2024-08-29_09h22.31.716,EPIDM,2023.1.2,None,
O161.jpg,1812.jpg,2 Points,2 Points,7 Points,,,,,,,,,,0,1,1,1,,,,,,,,,,,,,,,,,,,,,,,,,,,,,,,,,,,,,,,,,,,185.77967212488875,p,1.4974392498843372,187.423468708992,,,,,,,19,A,2024-08-29_09h22.31.716,EPIDM,2023.1.2,None,
O013.jpg,A001.jpg,3 Points,3 Points,10 Points,,,,,,,,,,0,2,2,2,,,,,,,,,,,,,,,,,,,,,,,,,,,,,,,,,,,,,,,,,,,191.58713533403352,p,1.5524235421326011,193.3144574998878,,,,,,,19,A,2024-08-29_09h22.31.716,EPIDM,2023.1.2,None,
P036.jpg,F273.jpg,5 Points,5 Points,15 Points,,,,,,,,,,0,3,3,3,,,,,,,,,,,,,,,,,,,,,,,,,,,,,,,,,,,,,,,,,,,197.46298020891845,q,2.173008125042543,199.81438087509014,,,,,,,19,A,2024-08-29_09h22.31.716,EPIDM,2023.1.2,None,
L130.jpg,2393.jpg,0 Points,0 Points,15 Points,,,,,,,,,,0,4,4,4,,,,,,,,,,,,,,,,,,,,,,,,,,,,,,,,,,,,,,,,,,,203.95354687492363,q,1.961249542189762,206.0624339589849,0,3.9717219159938395,,,,,19,A,2024-08-29_09h22.31.716,EPIDM,2023.1.2,None,
F279.jpg,P033.jpg,3 Points,3 Points,18 Points,,,,,,,,,,0,5,5,5,,,,,,,,,,,,,,,,,,,,,,,,,,,,,,,,,,,,,,,,,,,214.30804004194215,q,2.7907765000127256,217.23952237493359,,,,,,,19,A,2024-08-29_09h22.31.716,EPIDM,2023.1.2,None,
A104.jpg,2593.jpg,2 Points,2 Points,20 Points,,,,,,,,,,0,6,6,6,,,,,,,,,,,,,,,,,,,,,,,,,,,,,,,,,,,,,,,,,,,221.40376558387652,p,1.5114440000616014,223.0473484999966,,,,,,,19,A,2024-08-29_09h22.31.716,EPIDM,2023.1.2,None,
2598.jpg,2605.jpg,0 Points,0 Points,20 Points,,,,,,,,,,0,7,7,7,,,,,,,,,,,,,,,,,,,,,,,,,,,,,,,,,,,,,,,,,,,227.22711533401161,p,1.8241736250929534,229.15922524989583,,,,,,,19,A,2024-08-29_09h22.31.716,EPIDM,2023.1.2,None,
L005.jpg,O011.jpg,1 Points,1 Points,21 Points,,,,,,,,,,0,8,8,8,,,,,,,,,,,,,,,,,,,,,,,,,,,,,,,,,,,,,,,,,,,233.36368025001138,q,2.007142791291699,235.50504179205745,,,,,,,19,A,2024-08-29_09h22.31.716,EPIDM,2023.1.2,None,
8186.jpg,F078.jpg,2 Points,2 Points,23 Points,,,,,,,,,,0,9,9,9,,,,,,,,,,,,,,,,,,,,,,,,,,,,,,,,,,,,,,,,,,,239.68206937494688,q,1.4572428751271218,241.27252729190513,2,1.6659719159360975,253.15933687496,space,33.011241416912526,,19,A,2024-08-29_09h22.31.716,EPIDM,2023.1.2,None,
,,,,,,,,,,,,,,,,,,,,,,,,,,,,,,,,,,,,,,,,,,,,,,,,,,,,,,,,,,space,2.8807000829838216,,,,,,,,,,,19,A,2024-08-29_09h22.31.716,EPIDM,2023.1.2,None,
1019.jpg,2120.jpg,0 Points,0 Points,0 Points,PS1_L1.csv,,,,,,,,,,,,,,,,,,,,,,,,,,,,,0,0,0,0,0,0,0,0,,,,,,,,,,,,,,,,,,,301.1055113750044,q,1.2636389171238989,302.4520896249451,,,,,,,19,A,2024-08-29_09h22.31.716,EPIDM,2023.1.2,None,
6900.jpg,8531.jpg,4 Points,4 Points,4 Points,PS1_L1.csv,,,,,,,,,,,,,,,,,,,,,,,,,,,,,0,0,0,0,0,1,1,1,,,,,,,,,,,,,,,,,,,306.6765255420469,q,0.9649491661693901,307.68623620900325,4,1.7400194581132382,,,,,19,A,2024-08-29_09h22.31.716,EPIDM,2023.1.2,None,
5594.jpg,5750.jpg,5 Points,5 Points,9 Points,PS1_L1.csv,,,,,,,,,,,,,,,,,,,,,,,,,,,,,0,0,0,0,0,2,2,2,,,,,,,,,,,,,,,,,,,313.7406927088741,q,1.7333848751150072,315.55141620896757,,,,,,,19,A,2024-08-29_09h22.31.716,EPIDM,2023.1.2,None,
2205.jpg,3053.jpg,4 Points,4 Points,13 Points,PS1_L1.csv,,,,,,,,,,,,,,,,,,,,,,,,,,,,,0,0,0,0,0,3,3,3,,,,,,,,,,,,,,,,,,,319.78093062504195,p,1.910550792235881,321.760174541967,,,,,,,19,A,2024-08-29_09h22.31.716,EPIDM,2023.1.2,None,
3250.jpg,A053.jpg,3 Points,3 Points,16 Points,PS1_L1.csv,,,,,,,,,,,,,,,,,,,,,,,,,,,,,0,0,0,0,0,4,4,4,,,,,,,,,,,,,,,,,,,326.00447320891544,q,1.6124176671728492,327.7197862090543,,,,,,,19,A,2024-08-29_09h22.31.716,EPIDM,2023.1.2,None,
7950.jpg,7187.jpg,1 Point,1 Point,17 Points,PS1_L1.csv,,,,,,,,,,,,,,,,,,,,,,,,,,,,,0,0,0,0,0,5,5,5,,,,,,,,,,,,,,,,,,,331.9305814590771,p,2.165897458093241,334.1594369590748,,,,,,,19,A,2024-08-29_09h22.31.716,EPIDM,2023.1.2,None,
5535.jpg,8210.jpg,3 Points,3 Points,20 Points,PS1_L1.csv,,,,,,,,,,,,,,,,,,,,,,,,,,,,,0,0,0,0,0,6,6,6,,,,,,,,,,,,,,,,,,,338.4016638339963,q,2.9991328329779208,341.46942074992694,,,,,,,19,A,2024-08-29_09h22.31.716,EPIDM,2023.1.2,None,
9001.jpg,9620.jpg,1 Point,1 Point,21 Points,PS1_L1.csv,,,,,,,,,,,,,,,,,,,,,,,,,,,,,0,0,0,0,0,7,7,7,,,,,,,,,,,,,,,,,,,345.712106958963,p,1.6648431250359863,347.46039129188284,,,,,,,19,A,2024-08-29_09h22.31.716,EPIDM,2023.1.2,None,
1110.jpg,9331.jpg,2 Points,2 Points,23 Points,PS1_L1.csv,,,,,,,,,,,,,,,,,,,,,,,,,,,,,0,0,0,0,0,8,8,8,,,,,,,,,,,,,,,,,,,351.6936294999905,p,1.4832027500960976,353.2554124589078,,,,,,,19,A,2024-08-29_09h22.31.716,EPIDM,2023.1.2,None,
7820.jpg,1121.jpg,0 Points,0 Points,23 Points,PS1_L1.csv,,,,,,,,,,,,,,,,,,,,,,,,,,,,,0,0,0,0,0,9,9,9,,,,,,,,,,,,,,,,,,,357.4973662090488,q,2.16727020801045,359.72801562491804,,,,,,,19,A,2024-08-29_09h22.31.716,EPIDM,2023.1.2,None,
7186.jpg,9182.jpg,2 Points,2 Points,25 Points,PS1_L1.csv,,,,,,,,,,,,,,,,,,,,,,,,,,,,,0,0,0,0,0,10,10,10,,,,,,,,,,,,,,,,,,,363.97189262509346,p,1.3726227502338588,365.40326549997553,,,,,,,19,A,2024-08-29_09h22.31.716,EPIDM,2023.1.2,None,
9280.jpg,9390.jpg,1 Point,1 Point,26 Points,PS1_L1.csv,,,,,,,,,,,,,,,,,,,,,,,,,,,,,0,0,0,0,0,11,11,11,,,,,,,,,,,,,,,,,,,369.6515857919585,q,1.3082852500956506,371.04104600008577,,,,,,,19,A,2024-08-29_09h22.31.716,EPIDM,2023.1.2,None,
2440.jpg,7351.jpg,4 Points,4 Points,30 Points,PS1_L1.csv,,,,,,,,,,,,,,,,,,,,,,,,,,,,,0,0,0,0,0,12,12,12,,,,,,,,,,,,,,,,,,,375.27546212496236,q,1.132175459060818,376.47188216703944,,,,,,,19,A,2024-08-29_09h22.31.716,EPIDM,2023.1.2,None,
6834.jpg,9120.jpg,5 Points,5 Points,35 Points,PS1_L1.csv,,,,,,,,,,,,,,,,,,,,,,,,,,,,,0,0,0,0,0,13,13,13,,,,,,,,,,,,,,,,,,,380.7165327500552,q,2.1068240001332015,382.88927516690455,5,2.4501084161456674,,,,,19,A,2024-08-29_09h22.31.716,EPIDM,2023.1.2,None,
9230.jpg,9181.jpg,0 Points,0 Points,35 Points,PS1_L1.csv,,,,,,,,,,,,,,,,,,,,,,,,,,,,,0,0,0,0,0,14,14,14,,,,,,,,,,,,,,,,,,,389.62974216695875,q,1.393579333089292,391.06991891702637,,,,,,,19,A,2024-08-29_09h22.31.716,EPIDM,2023.1.2,None,
8260.jpg,8280.jpg,3 Points,3 Points,38 Points,PS1_L1.csv,,,,,,,,,,,,,,,,,,,,,,,,,,,,,0,0,0,0,0,15,15,15,,,,,,,,,,,,,,,,,,,395.3485456670169,q,1.9238960831426084,397.31549170892686,,,,,,,19,A,2024-08-29_09h22.31.716,EPIDM,2023.1.2,None,
9470.jpg,9400.jpg,3 Points,3 Points,41 Points,PS1_L1.csv,,,,,,,,,,,,,,,,,,,,,,,,,,,,,0,0,0,0,0,16,16,16,,,,,,,,,,,,,,,,,,,401.590008249972,p,1.3003356670960784,402.92940608388744,,,,,,,19,A,2024-08-29_09h22.31.716,EPIDM,2023.1.2,None,
2616.jpg,7238.jpg,4 Points,4 Points,45 Points,PS1_L1.csv,,,,,,,,,,,,,,,,,,,,,,,,,,,,,0,0,0,0,0,17,17,17,,,,,,,,,,,,,,,,,,,407.1928103340324,q,2.02272537490353,409.27815699996427,,,,,,,19,A,2024-08-29_09h22.31.716,EPIDM,2023.1.2,None,
9430.jpg,3010.jpg,5 Points,5 Points,50 Points,PS1_L1.csv,,,,,,,,,,,,,,,,,,,,,,,,,,,,,0,0,0,0,0,18,18,18,,,,,,,,,,,,,,,,,,,413.5232251249254,q,1.8278394162189215,415.4137967498973,,,,,,,19,A,2024-08-29_09h22.31.716,EPIDM,2023.1.2,None,
1661.jpg,1321.jpg,3 Points,3 Points,53 Points,PS1_L1.csv,,,,,,,,,,,,,,,,,,,,,,,,,,,,,0,0,0,0,0,19,19,19,,,,,,,,,,,,,,,,,,,419.6537750000134,p,1.6405505831353366,421.35620308388025,,,,,,,19,A,2024-08-29_09h22.31.716,EPIDM,2023.1.2,None,
8041.jpg,2271.jpg,2 Points,2 Points,55 Points,PS1_L1.csv,,,,,,,,,,,,,,,,,,,,,,,,,,,,,0,0,0,0,0,20,20,20,,,,,,,,,,,,,,,,,,,425.608419416938,p,1.2304314579814672,426.90471054194495,,,,,,,19,A,2024-08-29_09h22.31.716,EPIDM,2023.1.2,None,
9180.jpg,9046.jpg,3 Points,3 Points,58 Points,PS1_L1.csv,,,,,,,,,,,,,,,,,,,,,,,,,,,,,0,0,0,0,0,21,21,21,,,,,,,,,,,,,,,,,,,431.14528424991295,p,2.2929247082211077,433.50991691695526,,,,,,,19,A,2024-08-29_09h22.31.716,EPIDM,2023.1.2,None,
2691.jpg,7640.jpg,0 Points,0 Points,58 Points,PS1_L1.csv,,,,,,,,,,,,,,,,,,,,,,,,,,,,,0,0,0,0,0,22,22,22,,,,,,,,,,,,,,,,,,,437.7617652500048,q,1.6685513332486153,439.4961416670121,,,,,,,19,A,2024-08-29_09h22.31.716,EPIDM,2023.1.2,None,
1660.jpg,2840.jpg,2 Points,2 Points,60 Points,PS1_L1.csv,,,,,,,,,,,,,,,,,,,,,,,,,,,,,0,0,0,0,0,23,23,23,,,,,,,,,,,,,,,,,,,443.7330557499081,q,2.025039042113349,445.82453395891935,,,456.2951352088712,space,4.630663375137374,,19,A,2024-08-29_09h22.31.716,EPIDM,2023.1.2,None,
9480.jpg,9250.jpg,0 Points,0 Points,60 Points,PS1_L2.csv,,,,,,,,,,,,,,,,,,,,,,,,,,,,,0,1,1,1,0,0,0,0,,,,,,,,,,,,,,,,,,,464.25699033401906,p,1.4758881251327693,465.8071738339495,,,,,,,19,A,2024-08-29_09h22.31.716,EPIDM,2023.1.2,None,
9910.jpg,6940.jpg,2 Points,2 Points,62 Points,PS1_L2.csv,,,,,,,,,,,,,,,,,,,,,,,,,,,,,0,1,1,1,0,1,1,1,,,,,,,,,,,,,,,,,,,470.05672100000083,q,2.380985625088215,472.50325629208237,2,1.8846371669787914,,,,,19,A,2024-08-29_09h22.31.716,EPIDM,2023.1.2,None,
4535.jpg,1811.jpg,1 Point,1 Point,63 Points,PS1_L2.csv,,,,,,,,,,,,,,,,,,,,,,,,,,,,,0,1,1,1,0,2,2,2,,,,,,,,,,,,,,,,,,,478.70662795891985,p,1.0029857081826776,479.78271187492646,,,,,,,19,A,2024-08-29_09h22.31.716,EPIDM,2023.1.2,None,
2020.jpg,1947.jpg,5 Points,5 Points,68 Points,PS1_L2.csv,,,,,,,,,,,,,,,,,,,,,,,,,,,,,0,1,1,1,0,3,3,3,,,,,,,,,,,,,,,,,,,484.02430345886387,p,3.0526837080251426,487.1513880419079,,,,,,,19,A,2024-08-29_09h22.31.716,EPIDM,2023.1.2,None,
9160.jpg,1200.jpg,4 Points,4 Points,72 Points,PS1_L2.csv,,,,,,,,,,,,,,,,,,,,,,,,,,,,,0,1,1,1,0,4,4,4,,,,,,,,,,,,,,,,,,,491.385201334022,p,1.9396403750870377,493.40424554189667,,,,,,,19,A,2024-08-29_09h22.31.716,EPIDM,2023.1.2,None,
9520.jpg,1931.jpg,3 Points,3 Points,75 Points,PS1_L2.csv,,,,,,,,,,,,,,,,,,,,,,,,,,,,,0,1,1,1,0,5,5,5,,,,,,,,,,,,,,,,,,,497.6540651670657,q,1.7269757089670748,499.45605458389036,,,,,,,19,A,2024-08-29_09h22.31.716,EPIDM,2023.1.2,None,
7830.jpg,2499.jpg,3 Points,3 Points,78 Points,PS1_L2.csv,,,,,,,,,,,,,,,,,,,,,,,,,,,,,0,1,1,1,0,6,6,6,,,,,,,,,,,,,,,,,,,503.6996597920079,p,0.9770815421361476,504.7455108340364,,,,,,,19,A,2024-08-29_09h22.31.716,EPIDM,2023.1.2,None,
6830.jpg,6212.jpg,4 Points,4 Points,82 Points,PS1_L2.csv,,,,,,,,,,,,,,,,,,,,,,,,,,,,,0,1,1,1,0,7,7,7,,,,,,,,,,,,,,,,,,,508.99717662506737,p,2.007811750052497,511.0783748750109,,,,,,,19,A,2024-08-29_09h22.31.716,EPIDM,2023.1.2,None,
7285.jpg,4233.jpg,5 Points,5 Points,87 Points,PS1_L2.csv,,,,,,,,,,,,,,,,,,,,,,,,,,,,,0,1,1,1,0,8,8,8,,,,,,,,,,,,,,,,,,,515.3206568749156,p,2.5319556251633912,517.9211532920599,,,,,,,19,A,2024-08-29_09h22.31.716,EPIDM,2023.1.2,None,
1740.jpg,7480.jpg,0 Points,0 Points,87 Points,PS1_L2.csv,,,,,,,,,,,,,,,,,,,,,,,,,,,,,0,1,1,1,0,9,9,9,,,,,,,,,,,,,,,,,,,522.1563181669917,q,1.5680621671490371,523.7976593750063,,,,,,,19,A,2024-08-29_09h22.31.716,EPIDM,2023.1.2,None,
7380.jpg,1220.jpg,1 Point,1 Point,88 Points,PS1_L2.csv,,,,,,,,,,,,,,,,,,,,,,,,,,,,,0,1,1,1,0,10,10,10,,,,,,,,,,,,,,,,,,,528.0361599170137,p,2.5844329171814024,530.6869393750094,,,,,,,19,A,2024-08-29_09h22.31.716,EPIDM,2023.1.2,None,
3061.jpg,2717.jpg,4 Points,4 Points,92 Points,PS1_L2.csv,,,,,,,,,,,,,,,,,,,,,,,,,,,,,0,1,1,1,0,11,11,11,,,,,,,,,,,,,,,,,,,534.9364334999118,p,1.6752643331419677,536.6668080000672,,,,,,,19,A,2024-08-29_09h22.31.716,EPIDM,2023.1.2,None,
5460.jpg,5800.jpg,0 Points,0 Points,92 Points,PS1_L2.csv,,,,,,,,,,,,,,,,,,,,,,,,,,,,,0,1,1,1,0,12,12,12,,,,,,,,,,,,,,,,,,,540.9254433340393,q,1.6544527080841362,542.6580224588979,,,,,,,19,A,2024-08-29_09h22.31.716,EPIDM,2023.1.2,None,
2215.jpg,2512.jpg,1 Point,1 Point,93 Points,PS1_L2.csv,,,,,,,,,,,,,,,,,,,,,,,,,,,,,0,1,1,1,0,13,13,13,,,,,,,,,,,,,,,,,,,546.8897326248698,p,2.07356125023216,549.0334951670375,1,1.4701398331671953,,,,,19,A,2024-08-29_09h22.31.716,EPIDM,2023.1.2,None,
3000.jpg,6200.jpg,5 Points,5 Points,98 Points,PS1_L2.csv,,,,,,,,,,,,,,,,,,,,,,,,,,,,,0,1,1,1,0,14,14,14,,,,,,,,,,,,,,,,,,,554.7916585840285,q,1.7956172502599657,556.6636199168861,,,,,,,19,A,2024-08-29_09h22.31.716,EPIDM,2023.1.2,None,
1945.jpg,2800.jpg,4 Points,4 Points,102 Points,PS1_L2.csv,,,,,,,,,,,,,,,,,,,,,,,,,,,,,0,1,1,1,0,15,15,15,,,,,,,,,,,,,,,,,,,560.9118894168641,p,1.3635645410977304,562.3446451250929,,,,,,,19,A,2024-08-29_09h22.31.716,EPIDM,2023.1.2,None,
5660.jpg,5201.jpg,0 Points,0 Points,102 Points,PS1_L2.csv,,,,,,,,,,,,,,,,,,,,,,,,,,,,,0,1,1,1,0,16,16,16,,,,,,,,,,,,,,,,,,,566.577873375034,q,1.6733875831123441,568.3182739999611,,,,,,,19,A,2024-08-29_09h22.31.716,EPIDM,2023.1.2,None,
3266.jpg,7360.jpg,1 Point,1 Point,103 Points,PS1_L2.csv,,,,,,,,,,,,,,,,,,,,,,,,,,,,,0,1,1,1,0,17,17,17,,,,,,,,,,,,,,,,,,,572.5614549170714,q,0.8811789168976247,573.5189516248647,,,,,,,19,A,2024-08-29_09h22.31.716,EPIDM,2023.1.2,None,
F149.jpg,3030.jpg,0 Points,0 Points,103 Points,PS1_L2.csv,,,,,,,,,,,,,,,,,,,,,,,,,,,,,0,1,1,1,0,18,18,18,,,,,,,,,,,,,,,,,,,577.7568936669268,p,1.8710732501931489,579.7342609169427,,,,,,,19,A,2024-08-29_09h22.31.716,EPIDM,2023.1.2,None,
5410.jpg,1450.jpg,5 Points,5 Points,108 Points,PS1_L2.csv,,,,,,,,,,,,,,,,,,,,,,,,,,,,,0,1,1,1,0,19,19,19,,,,,,,,,,,,,,,,,,,583.9351911249105,q,1.796837333124131,585.7863467498682,,,,,,,19,A,2024-08-29_09h22.31.716,EPIDM,2023.1.2,None,
9101.jpg,9571.jpg,2 Points,2 Points,110 Points,PS1_L2.csv,,,,,,,,,,,,,,,,,,,,,,,,,,,,,0,1,1,1,0,20,20,20,,,,,,,,,,,,,,,,,,,590.0539042500313,p,2.525198000250384,592.6482104999013,,,,,,,19,A,2024-08-29_09h22.31.716,EPIDM,2023.1.2,None,
9110.jpg,3051.jpg,1 Point,1 Point,111 Points,PS1_L2.csv,,,,,,,,,,,,,,,,,,,,,,,,,,,,,0,1,1,1,0,21,21,21,,,,,,,,,,,,,,,,,,,596.8910612089094,p,1.8471366250887513,598.8266020000447,,,,,,,19,A,2024-08-29_09h22.31.716,EPIDM,2023.1.2,None,
2100.jpg,7205.jpg,5 Points,5 Points,116 Points,PS1_L2.csv,,,,,,,,,,,,,,,,,,,,,,,,,,,,,0,1,1,1,0,22,22,22,,,,,,,,,,,,,,,,,,,603.0623663750011,q,1.5711823750752956,604.7083254589234,,,,,,,19,A,2024-08-29_09h22.31.716,EPIDM,2023.1.2,None,
3160.jpg,6210.jpg,1 Point,1 Point,117 Points,PS1_L2.csv,,,,,,,,,,,,,,,,,,,,,,,,,,,,,0,1,1,1,0,23,23,23,,,,,,,,,,,,,,,,,,,608.9447206670884,p,1.2902769171632826,610.303584124893,,,620.7624197918922,space,2.9985826672054827,,19,A,2024-08-29_09h22.31.716,EPIDM,2023.1.2,None,
7283.jpg,1720.jpg,4 Points,4 Points,121 Points,PS1_L3.csv,,,,,,,,,,,,,,,,,,,,,,,,,,,,,0,2,2,2,0,0,0,0,,,,,,,,,,,,,,,,,,,627.0770374168642,p,1.3241092499811202,628.4888165420853,,,,,,,19,A,2024-08-29_09h22.31.716,EPIDM,2023.1.2,None,
6571.jpg,P237.jpg,2 Points,2 Points,123 Points,PS1_L3.csv,,,,,,,,,,,,,,,,,,,,,,,,,,,,,0,2,2,2,0,1,1,1,,,,,,,,,,,,,,,,,,,632.722997416975,q,2.6382839160505682,635.4756797088776,2,3.155831792159006,,,,,19,A,2024-08-29_09h22.31.716,EPIDM,2023.1.2,None,
6260.jpg,3062.jpg,3 Points,3 Points,126 Points,PS1_L3.csv,,,,,,,,,,,,,,,,,,,,,,,,,,,,,0,2,2,2,0,2,2,2,,,,,,,,,,,,,,,,,,,642.9397538339254,p,1.2461505420506,644.2519610840827,,,,,,,19,A,2024-08-29_09h22.31.716,EPIDM,2023.1.2,None,
6150.jpg,2206.jpg,0 Points,0 Points,126 Points,PS1_L3.csv,,,,,,,,,,,,,,,,,,,,,,,,,,,,,0,2,2,2,0,3,3,3,,,,,,,,,,,,,,,,,,,648.5018878339324,q,2.6593135411385447,651.2330756669398,,,,,,,19,A,2024-08-29_09h22.31.716,EPIDM,2023.1.2,None,
9300.jpg,1050.jpg,4 Points,4 Points,130 Points,PS1_L3.csv,,,,,,,,,,,,,,,,,,,,,,,,,,,,,0,2,2,2,0,4,4,4,,,,,,,,,,,,,,,,,,,655.4674778750632,p,1.6222676672041416,657.1571738750208,,,,,,,19,A,2024-08-29_09h22.31.716,EPIDM,2023.1.2,None,
F365.jpg,3180.jpg,5 Points,5 Points,135 Points,PS1_L3.csv,,,,,,,,,,,,,,,,,,,,,,,,,,,,,0,2,2,2,0,5,5,5,,,,,,,,,,,,,,,,,,,661.403139791917,p,1.8462023329921067,663.3520136668812,,,,,,,19,A,2024-08-29_09h22.31.716,EPIDM,2023.1.2,None,
2320.jpg,2791.jpg,4 Points,4 Points,139 Points,PS1_L3.csv,,,,,,,,,,,,,,,,,,,,,,,,,,,,,0,2,2,2,0,6,6,6,,,,,,,,,,,,,,,,,,,667.5590137920808,q,1.9850288750603795,669.6160132500809,,,,,,,19,A,2024-08-29_09h22.31.716,EPIDM,2023.1.2,None,
8311.jpg,4609.jpg,2 Points,2 Points,141 Points,PS1_L3.csv,,,,,,,,,,,,,,,,,,,,,,,,,,,,,0,2,2,2,0,7,7,7,,,,,,,,,,,,,,,,,,,673.8556755839381,q,2.561652292031795,676.4777322090231,,,,,,,19,A,2024-08-29_09h22.31.716,EPIDM,2023.1.2,None,
9042.jpg,2753.jpg,0 Points,0 Points,141 Points,PS1_L3.csv,,,,,,,,,,,,,,,,,,,,,,,,,,,,,0,2,2,2,0,8,8,8,,,,,,,,,,,,,,,,,,,680.7168687090743,p,1.508099083090201,682.280315416865,,,,,,,19,A,2024-08-29_09h22.31.716,EPIDM,2023.1.2,None,
5471.jpg,7352.jpg,2 Points,2 Points,143 Points,PS1_L3.csv,,,,,,,,,,,,,,,,,,,,,,,,,,,,,0,2,2,2,0,9,9,9,,,,,,,,,,,,,,,,,,,686.5327224170323,q,2.06840308313258,688.6618692090269,,,,,,,19,A,2024-08-29_09h22.31.716,EPIDM,2023.1.2,None,
P222.jpg,9401.jpg,2 Points,2 Points,145 Points,PS1_L3.csv,,,,,,,,,,,,,,,,,,,,,,,,,,,,,0,2,2,2,0,10,10,10,,,,,,,,,,,,,,,,,,,692.9013052920345,q,2.043150917161256,695.051156291971,,,,,,,19,A,2024-08-29_09h22.31.716,EPIDM,2023.1.2,None,
1610.jpg,F203.jpg,0 Points,0 Points,145 Points,PS1_L3.csv,,,,,,,,,,,,,,,,,,,,,,,,,,,,,0,2,2,2,0,11,11,11,,,,,,,,,,,,,,,,,,,699.2475043749437,p,1.1366589590907097,700.4910676248837,,,,,,,19,A,2024-08-29_09h22.31.716,EPIDM,2023.1.2,None,
9405.jpg,6250.2.jpg,3 Points,3 Points,148 Points,PS1_L3.csv,,,,,,,,,,,,,,,,,,,,,,,,,,,,,0,2,2,2,0,12,12,12,,,,,,,,,,,,,,,,,,,704.6884180000052,q,1.4718234580941498,706.2770306670573,,,,,,,19,A,2024-08-29_09h22.31.716,EPIDM,2023.1.2,None,
1090.jpg,P217.jpg,5 Points,5 Points,153 Points,PS1_L3.csv,,,,,,,,,,,,,,,,,,,,,,,,,,,,,0,2,2,2,0,13,13,13,,,,,,,,,,,,,,,,,,,710.4781271670945,p,2.690036791143939,713.2751311250031,5,1.9856259999796748,,,,,19,A,2024-08-29_09h22.31.716,EPIDM,2023.1.2,None,
P233.jpg,3060.jpg,1 Point,1 Point,154 Points,PS1_L3.csv,,,,,,,,,,,,,,,,,,,,,,,,,,,,,0,2,2,2,0,14,14,14,,,,,,,,,,,,,,,,,,,719.5717209589202,q,1.8277057080995291,721.5480181670282,,,,,,,19,A,2024-08-29_09h22.31.716,EPIDM,2023.1.2,None,
8040.jpg,7185.jpg,1 Point,1 Point,155 Points,PS1_L3.csv,,,,,,,,,,,,,,,,,,,,,,,,,,,,,0,2,2,2,0,15,15,15,,,,,,,,,,,,,,,,,,,725.7210489590652,q,1.8860527500510216,727.6822755839676,,,,,,,19,A,2024-08-29_09h22.31.716,EPIDM,2023.1.2,None,
6550.jpg,9582.jpg,5 Points,5 Points,160 Points,PS1_L3.csv,,,,,,,,,,,,,,,,,,,,,,,,,,,,,0,2,2,2,0,16,16,16,,,,,,,,,,,,,,,,,,,731.908495333977,q,3.2670180411078036,735.2493435419165,,,,,,,19,A,2024-08-29_09h22.31.716,EPIDM,2023.1.2,None,
P077.jpg,A041.jpg,1 Point,1 Point,161 Points,PS1_L3.csv,,,,,,,,,,,,,,,,,,,,,,,,,,,,,0,2,2,2,0,17,17,17,,,,,,,,,,,,,,,,,,,739.4970633750781,q,1.6375571659300476,741.2760270838626,,,,,,,19,A,2024-08-29_09h22.31.716,EPIDM,2023.1.2,None,
4770.jpg,4275.jpg,3 Points,3 Points,164 Points,PS1_L3.csv,,,,,,,,,,,,,,,,,,,,,,,,,,,,,0,2,2,2,0,18,18,18,,,,,,,,,,,,,,,,,,,745.4538696249947,q,3.14391279197298,748.7177359999623,,,,,,,19,A,2024-08-29_09h22.31.716,EPIDM,2023.1.2,None,
9594.jpg,1080.jpg,4 Points,4 Points,168 Points,PS1_L3.csv,,,,,,,,,,,,,,,,,,,,,,,,,,,,,0,2,2,2,0,19,19,19,,,,,,,,,,,,,,,,,,,752.91483350005,q,2.818869042210281,755.8199687500019,,,,,,,19,A,2024-08-29_09h22.31.716,EPIDM,2023.1.2,None,
2606.jpg,2480.jpg,1 Point,1 Point,169 Points,PS1_L3.csv,,,,,,,,,,,,,,,,,,,,,,,,,,,,,0,2,2,2,0,20,20,20,,,,,,,,,,,,,,,,,,,760.058276334079,q,2.2116917080711573,762.34370579198,,,,,,,19,A,2024-08-29_09h22.31.716,EPIDM,2023.1.2,None,
1052.jpg,1201.jpg,3 Points,3 Points,172 Points,PS1_L3.csv,,,,,,,,,,,,,,,,,,,,,,,,,,,,,0,2,2,2,0,21,21,21,,,,,,,,,,,,,,,,,,,766.5991666249465,p,2.175272125052288,768.8443832499906,,,,,,,19,A,2024-08-29_09h22.31.716,EPIDM,2023.1.2,None,
F369.jpg,3100.jpg,2 Points,2 Points,174 Points,PS1_L3.csv,,,,,,,,,,,,,,,,,,,,,,,,,,,,,0,2,2,2,0,22,22,22,,,,,,,,,,,,,,,,,,,773.094283958897,p,1.4317952911369503,774.6306675418746,,,,,,,19,A,2024-08-29_09h22.31.716,EPIDM,2023.1.2,None,
2620.jpg,2594.jpg,0 Points,0 Points,174 Points,PS1_L3.csv,,,,,,,,,,,,,,,,,,,,,,,,,,,,,0,2,2,2,0,23,23,23,,,,,,,,,,,,,,,,,,,778.847977333935,p,2.3657400000374764,781.2800854169764,,,791.7956488339696,space,1.6281882501207292,,19,A,2024-08-29_09h22.31.716,EPIDM,2023.1.2,None,
P019.jpg,F158.jpg,3 Points,3 Points,177 Points,PS1_L4.csv,,,,,,,,,,,,,,,,,,,,,,,,,,,,,0,3,3,3,0,0,0,0,,,,,,,,,,,,,,,,,,,796.7330733339768,q,0.8967165839858353,797.7629022500478,,,,,,,19,A,2024-08-29_09h22.31.716,EPIDM,2023.1.2,None,
7620.jpg,5395.jpg,1 Point,1 Point,178 Points,PS1_L4.csv,,,,,,,,,,,,,,,,,,,,,,,,,,,,,0,3,3,3,0,1,1,1,,,,,,,,,,,,,,,,,,,801.9577728339937,q,2.1998405412305146,804.2373847500421,1,1.4895201670005918,,,,,19,A,2024-08-29_09h22.31.716,EPIDM,2023.1.2,None,
5970.jpg,3300.jpg,0 Points,0 Points,178 Points,PS1_L4.csv,,,,,,,,,,,,,,,,,,,,,,,,,,,,,0,3,3,3,0,2,2,2,,,,,,,,,,,,,,,,,,,810.0384517919738,p,0.9421484579797834,811.0447944588959,,,,,,,19,A,2024-08-29_09h22.31.716,EPIDM,2023.1.2,None,
5120.jpg,5520.jpg,2 Points,2 Points,180 Points,PS1_L4.csv,,,,,,,,,,,,,,,,,,,,,,,,,,,,,0,3,3,3,0,3,3,3,,,,,,,,,,,,,,,,,,,815.2853139170911,p,2.1115374169312418,817.4764537089504,,,,,,,19,A,2024-08-29_09h22.31.716,EPIDM,2023.1.2,None,
9452.jpg,7184.jpg,4 Points,4 Points,184 Points,PS1_L4.csv,,,,,,,,,,,,,,,,,,,,,,,,,,,,,0,3,3,3,0,4,4,4,,,,,,,,,,,,,,,,,,,821.7126159588806,q,1.5494602501858026,823.3477232500445,,,,,,,19,A,2024-08-29_09h22.31.716,EPIDM,2023.1.2,None,
6570.1.jpg,9432.jpg,5 Points,5 Points,189 Points,PS1_L4.csv,,,,,,,,,,,,,,,,,,,,,,,,,,,,,0,3,3,3,0,5,5,5,,,,,,,,,,,,,,,,,,,827.5980445840396,q,1.9418373750522733,829.6107407088857,,,,,,,19,A,2024-08-29_09h22.31.716,EPIDM,2023.1.2,None,
2389.jpg,7320.jpg,0 Points,0 Points,189 Points,PS1_L4.csv,,,,,,,,,,,,,,,,,,,,,,,,,,,,,0,3,3,3,0,6,6,6,,,,,,,,,,,,,,,,,,,833.8476819589268,None,,,,,,,,837.5560412090272,19,A,2024-08-29_09h22.31.716,EPIDM,2023.1.2,None,
9330.jpg,3015.jpg,5 Points,5 Points,194 Points,PS1_L4.csv,,,,,,,,,,,,,,,,,,,,,,,,,,,,,0,3,3,3,0,7,7,7,,,,,,,,,,,,,,,,,,,841.3490663750563,p,1.1592845839913934,842.5684717090335,,,,,,,19,A,2024-08-29_09h22.31.716,EPIDM,2023.1.2,None,
9560.jpg,3071.jpg,1 Point,1 Point,195 Points,PS1_L4.csv,,,,,,,,,,,,,,,,,,,,,,,,,,,,,0,3,3,3,0,8,8,8,,,,,,,,,,,,,,,,,,,846.8223812088836,p,0.6773400409147143,847.5677294170018,,,,,,,19,A,2024-08-29_09h22.31.716,EPIDM,2023.1.2,None,
5994.jpg,5390.jpg,0 Points,0 Points,195 Points,PS1_L4.csv,,,,,,,,,,,,,,,,,,,,,,,,,,,,,0,3,3,3,0,9,9,9,,,,,,,,,,,,,,,,,,,851.8109967089258,q,1.6495045830961317,853.5350822920445,,,,,,,19,A,2024-08-29_09h22.31.716,EPIDM,2023.1.2,None,
2692.jpg,8231.jpg,4 Points,4 Points,199 Points,PS1_L4.csv,,,,,,,,,,,,,,,,,,,,,,,,,,,,,0,3,3,3,0,10,10,10,,,,,,,,,,,,,,,,,,,857.7760452500079,p,1.6357016670517623,859.4728572499007,,,,,,,19,A,2024-08-29_09h22.31.716,EPIDM,2023.1.2,None,
F174.jpg,9404.jpg,5 Points,5 Points,204 Points,PS1_L4.csv,,,,,,,,,,,,,,,,,,,,,,,,,,,,,0,3,3,3,0,11,11,11,,,,,,,,,,,,,,,,,,,863.7258990418632,q,1.0695164580829442,864.9154679169878,,,,,,,19,A,2024-08-29_09h22.31.716,EPIDM,2023.1.2,None,
8010.jpg,2630.jpg,0 Points,0 Points,204 Points,PS1_L4.csv,,,,,,,,,,,,,,,,,,,,,,,,,,,,,0,3,3,3,0,12,12,12,,,,,,,,,,,,,,,,,,,869.1124849589542,p,1.842715334147215,871.0686126248911,,,,,,,19,A,2024-08-29_09h22.31.716,EPIDM,2023.1.2,None,
7175.jpg,7490.jpg,2 Points,2 Points,206 Points,PS1_L4.csv,,,,,,,,,,,,,,,,,,,,,,,,,,,,,0,3,3,3,0,13,13,13,,,,,,,,,,,,,,,,,,,875.2593572090846,p,1.3440978331491351,876.6807938339189,2,1.3991452921181917,,,,,19,A,2024-08-29_09h22.31.716,EPIDM,2023.1.2,None,
6561.jpg,1525.jpg,2 Points,2 Points,208 Points,PS1_L4.csv,,,,,,,,,,,,,,,,,,,,,,,,,,,,,0,3,3,3,0,14,14,14,,,,,,,,,,,,,,,,,,,882.3911142500583,q,1.6689652500208467,884.1329784588888,,,,,,,19,A,2024-08-29_09h22.31.716,EPIDM,2023.1.2,None,
9070.jpg,9420.jpg,2 Points,2 Points,210 Points,PS1_L4.csv,,,,,,,,,,,,,,,,,,,,,,,,,,,,,0,3,3,3,0,15,15,15,,,,,,,,,,,,,,,,,,,888.3697397089563,p,0.9535015001893044,889.3894542090129,,,,,,,19,A,2024-08-29_09h22.31.716,EPIDM,2023.1.2,None,
2516.jpg,8500.jpg,4 Points,4 Points,214 Points,PS1_L4.csv,,,,,,,,,,,,,,,,,,,,,,,,,,,,,0,3,3,3,0,16,16,16,,,,,,,,,,,,,,,,,,,893.6362801669165,q,1.5587835831101984,895.2758967920672,,,,,,,19,A,2024-08-29_09h22.31.716,EPIDM,2023.1.2,None,
9140.jpg,2810.jpg,3 Points,3 Points,217 Points,PS1_L4.csv,,,,,,,,,,,,,,,,,,,,,,,,,,,,,0,3,3,3,0,17,17,17,,,,,,,,,,,,,,,,,,,899.5116129589733,p,1.778671208070591,901.3607709170319,,,,,,,19,A,2024-08-29_09h22.31.716,EPIDM,2023.1.2,None,
7220.jpg,8090.jpg,2 Points,2 Points,219 Points,PS1_L4.csv,,,,,,,,,,,,,,,,,,,,,,,,,,,,,0,3,3,3,0,18,18,18,,,,,,,,,,,,,,,,,,,905.6192331670318,p,1.430810249876231,907.1173711670563,,,,,,,19,A,2024-08-29_09h22.31.716,EPIDM,2023.1.2,None,
2661.jpg,2870.jpg,5 Points,5 Points,224 Points,PS1_L4.csv,,,,,,,,,,,,,,,,,,,,,,,,,,,,,0,3,3,3,0,19,19,19,,,,,,,,,,,,,,,,,,,911.3628848749213,q,1.8231280411127955,913.2283036669251,,,,,,,19,A,2024-08-29_09h22.31.716,EPIDM,2023.1.2,None,
6010.jpg,7361.jpg,2 Points,2 Points,226 Points,PS1_L4.csv,,,,,,,,,,,,,,,,,,,,,,,,,,,,,0,3,3,3,0,20,20,20,,,,,,,,,,,,,,,,,,,917.4911975420546,p,2.3426524170208722,919.8999272920191,,,,,,,19,A,2024-08-29_09h22.31.716,EPIDM,2023.1.2,None,
7289.jpg,4534.jpg,0 Points,0 Points,226 Points,PS1_L4.csv,,,,,,,,,,,,,,,,,,,,,,,,,,,,,0,3,3,3,0,21,21,21,,,,,,,,,,,,,,,,,,,924.1623592919204,q,2.1507778752129525,926.38790608407,,,,,,,19,A,2024-08-29_09h22.31.716,EPIDM,2023.1.2,None,
1310.jpg,3181.jpg,4 Points,4 Points,230 Points,PS1_L4.csv,,,,,,,,,,,,,,,,,,,,,,,,,,,,,0,3,3,3,0,22,22,22,,,,,,,,,,,,,,,,,,,930.6322642499581,p,1.4015470840968192,932.1077272500843,,,,,,,19,A,2024-08-29_09h22.31.716,EPIDM,2023.1.2,None,
2383.jpg,1616.jpg,2 Points,2 Points,232 Points,PS1_L4.csv,,,,,,,,,,,,,,,,,,,,,,,,,,,,,0,3,3,3,0,23,23,23,,,,,,,,,,,,,,,,,,,936.3436861669179,p,1.5055252921301872,937.9223674999084,,,948.4114782500546,space,1.1734791251365095,,19,A,2024-08-29_09h22.31.716,EPIDM,2023.1.2,None,
4510.jpg,2230.jpg,5 Points,5 Points,237 Points,PS1_L5.csv,,,,,,,,,,,,,,,,,,,,,,,,,,,,,0,4,4,4,0,0,0,0,,,,,,,,,,,,,,,,,,,952.9154238339979,p,1.125169208040461,954.1181693340186,,,,,,,19,A,2024-08-29_09h22.31.716,EPIDM,2023.1.2,None,
A025.jpg,1051.jpg,0 Points,0 Points,237 Points,PS1_L5.csv,,,,,,,,,,,,,,,,,,,,,,,,,,,,,0,4,4,4,0,1,1,1,,,,,,,,,,,,,,,,,,,958.3639697500039,q,2.3166723751928657,960.8063120839652,0,2.3413116249721497,,,,,19,A,2024-08-29_09h22.31.716,EPIDM,2023.1.2,None,
7002.jpg,4660.jpg,4 Points,4 Points,241 Points,PS1_L5.csv,,,,,,,,,,,,,,,,,,,,,,,,,,,,,0,4,4,4,0,2,2,2,,,,,,,,,,,,,,,,,,,967.4526677499525,p,2.27548695798032,969.8467406248674,,,,,,,19,A,2024-08-29_09h22.31.716,EPIDM,2023.1.2,None,
2900.jpg,1101.jpg,3 Points,3 Points,244 Points,PS1_L5.csv,,,,,,,,,,,,,,,,,,,,,,,,,,,,,0,4,4,4,0,3,3,3,,,,,,,,,,,,,,,,,,,974.0374073339626,q,1.2502506671007723,975.3661817500833,,,,,,,19,A,2024-08-29_09h22.31.716,EPIDM,2023.1.2,None,
2485.jpg,7350.jpg,0 Points,0 Points,244 Points,PS1_L5.csv,,,,,,,,,,,,,,,,,,,,,,,,,,,,,0,4,4,4,0,4,4,4,,,,,,,,,,,,,,,,,,,979.5978667500895,q,1.6264874581247568,981.3031752090901,,,,,,,19,A,2024-08-29_09h22.31.716,EPIDM,2023.1.2,None,
6242.jpg,F034.jpg,4 Points,4 Points,248 Points,PS1_L5.csv,,,,,,,,,,,,,,,,,,,,,,,,,,,,,0,4,4,4,0,5,5,5,,,,,,,,,,,,,,,,,,,985.5414960000198,q,1.746316417120397,987.3976894589141,,,,,,,19,A,2024-08-29_09h22.31.716,EPIDM,2023.1.2,None,
3170.jpg,6560.jpg,2 Points,2 Points,250 Points,PS1_L5.csv,,,,,,,,,,,,,,,,,,,,,,,,,,,,,0,4,4,4,0,6,6,6,,,,,,,,,,,,,,,,,,,991.5910675420891,p,1.3445227502379566,993.013133124914,,,,,,,19,A,2024-08-29_09h22.31.716,EPIDM,2023.1.2,None,
8033.jpg,7270.jpg,3 Points,3 Points,253 Points,PS1_L5.csv,,,,,,,,,,,,,,,,,,,,,,,,,,,,,0,4,4,4,0,7,7,7,,,,,,,,,,,,,,,,,,,997.2621398339979,q,1.8335985832381994,999.1729725839105,,,,,,,19,A,2024-08-29_09h22.31.716,EPIDM,2023.1.2,None,
2597.jpg,5870.jpg,5 Points,5 Points,258 Points,PS1_L5.csv,,,,,,,,,,,,,,,,,,,,,,,,,,,,,0,4,4,4,0,8,8,8,,,,,,,,,,,,,,,,,,,1003.4185790838674,q,1.5739825409837067,1005.0425959168933,,,,,,,19,A,2024-08-29_09h22.31.716,EPIDM,2023.1.2,None,
6312.jpg,3230.jpg,2 Points,2 Points,260 Points,PS1_L5.csv,,,,,,,,,,,,,,,,,,,,,,,,,,,,,0,4,4,4,0,9,9,9,,,,,,,,,,,,,,,,,,,1009.2966967090033,q,1.1502820001915097,1010.5259158338886,,,,,,,19,A,2024-08-29_09h22.31.716,EPIDM,2023.1.2,None,
3130.jpg,3500.jpg,4 Points,4 Points,264 Points,PS1_L5.csv,,,,,,,,,,,,,,,,,,,,,,,,,,,,,0,4,4,4,0,10,10,10,,,,,,,,,,,,,,,,,,,1014.7754232920706,p,1.7438714592717588,1016.609773458913,,,,,,,19,A,2024-08-29_09h22.31.716,EPIDM,2023.1.2,None,
2749.jpg,7282.jpg,3 Points,3 Points,267 Points,PS1_L5.csv,,,,,,,,,,,,,,,,,,,,,,,,,,,,,0,4,4,4,0,11,11,11,,,,,,,,,,,,,,,,,,,1020.8511994590517,q,1.516489875037223,1022.4168382498901,,,,,,,19,A,2024-08-29_09h22.31.716,EPIDM,2023.1.2,None,
5300.jpg,2372.jpg,1 Point,1 Point,268 Points,PS1_L5.csv,,,,,,,,,,,,,,,,,,,,,,,,,,,,,0,4,4,4,0,12,12,12,,,,,,,,,,,,,,,,,,,1026.680277749896,p,1.9440583339892328,1028.6826788340695,,,,,,,19,A,2024-08-29_09h22.31.716,EPIDM,2023.1.2,None,
6510.jpg,A074.jpg,2 Points,2 Points,270 Points,PS1_L5.csv,,,,,,,,,,,,,,,,,,,,,,,,,,,,,0,4,4,4,0,13,13,13,,,,,,,,,,,,,,,,,,,1032.9357261669356,q,1.4870268751401454,1034.5420384169556,2,1.2783475839532912,,,,,19,A,2024-08-29_09h22.31.716,EPIDM,2023.1.2,None,
2260.jpg,2830.jpg,5 Points,5 Points,275 Points,PS1_L5.csv,,,,,,,,,,,,,,,,,,,,,,,,,,,,,0,4,4,4,0,14,14,14,,,,,,,,,,,,,,,,,,,1040.105560834054,q,2.3256107920315117,1042.5446532920469,,,,,,,19,A,2024-08-29_09h22.31.716,EPIDM,2023.1.2,None,
2710.jpg,9252.jpg,1 Point,1 Point,276 Points,PS1_L5.csv,,,,,,,,,,,,,,,,,,,,,,,,,,,,,0,4,4,4,0,15,15,15,,,,,,,,,,,,,,,,,,,1046.7346227918752,q,1.4957025421317667,1048.3072256669402,,,,,,,19,A,2024-08-29_09h22.31.716,EPIDM,2023.1.2,None,
3064.jpg,3168.jpg,4 Points,4 Points,280 Points,PS1_L5.csv,,,,,,,,,,,,,,,,,,,,,,,,,,,,,0,4,4,4,0,16,16,16,,,,,,,,,,,,,,,,,,,1052.535540124867,q,1.9101052081678063,1054.5106339999475,,,,,,,19,A,2024-08-29_09h22.31.716,EPIDM,2023.1.2,None,
1640.jpg,5531.jpg,3 Points,3 Points,283 Points,PS1_L5.csv,,,,,,,,,,,,,,,,,,,,,,,,,,,,,0,4,4,4,0,17,17,17,,,,,,,,,,,,,,,,,,,1058.7748993339483,q,1.5677841249853373,1060.4187600000296,,,,,,,19,A,2024-08-29_09h22.31.716,EPIDM,2023.1.2,None,
3530.jpg,6213.jpg,1 Point,1 Point,284 Points,PS1_L5.csv,,,,,,,,,,,,,,,,,,,,,,,,,,,,,0,4,4,4,0,18,18,18,,,,,,,,,,,,,,,,,,,1064.6745994589292,q,1.9070131671614945,1066.6606145838741,,,,,,,19,A,2024-08-29_09h22.31.716,EPIDM,2023.1.2,None,
9090.jpg,7580.jpg,3 Points,3 Points,287 Points,PS1_L5.csv,,,,,,,,,,,,,,,,,,,,,,,,,,,,,0,4,4,4,0,19,19,19,,,,,,,,,,,,,,,,,,,1070.891720250016,q,1.369910208042711,1072.3392616668716,,,,,,,19,A,2024-08-29_09h22.31.716,EPIDM,2023.1.2,None,
8230.jpg,2682.jpg,5 Points,5 Points,292 Points,PS1_L5.csv,,,,,,,,,,,,,,,,,,,,,,,,,,,,,0,4,4,4,0,20,20,20,,,,,,,,,,,,,,,,,,,1076.574373374926,q,1.9428319581784308,1078.5883517919574,,,,,,,19,A,2024-08-29_09h22.31.716,EPIDM,2023.1.2,None,
9592.jpg,1300.jpg,2 Points,2 Points,294 Points,PS1_L5.csv,,,,,,,,,,,,,,,,,,,,,,,,,,,,,0,4,4,4,0,21,21,21,,,,,,,,,,,,,,,,,,,1082.8242261249106,q,2.5018971669487655,1085.3950962089002,,,,,,,19,A,2024-08-29_09h22.31.716,EPIDM,2023.1.2,None,
2490.jpg,2590.jpg,4 Points,4 Points,298 Points,PS1_L5.csv,,,,,,,,,,,,,,,,,,,,,,,,,,,,,0,4,4,4,0,22,22,22,,,,,,,,,,,,,,,,,,,1089.6378087089397,p,2.5679857910145074,1092.2715264998842,,,,,,,19,A,2024-08-29_09h22.31.716,EPIDM,2023.1.2,None,
2190.jpg,7503.jpg,2 Points,2 Points,300 Points,PS1_L5.csv,,,,,,,,,,,,,,,,,,,,,,,,,,,,,0,4,4,4,0,23,23,23,,,,,,,,,,,,,,,,,,,1096.5055544169154,p,1.6187519172672182,1098.2042737088632,,,1108.670293666888,space,3.031135833123699,,19,A,2024-08-29_09h22.31.716,EPIDM,2023.1.2,None,
1930.jpg,9008.jpg,1 Point,1 Point,301 Points,PS1_L6.csv,,,,,,,,,,,,,,,,,,,,,,,,,,,,,0,5,5,5,0,0,0,0,,,,,,,,,,,,,,,,,,,1115.0075553748757,p,1.6847258750349283,1116.7725012500305,,,,,,,19,A,2024-08-29_09h22.31.716,EPIDM,2023.1.2,None,
4613.jpg,2720.jpg,4 Points,4 Points,305 Points,PS1_L6.csv,,,,,,,,,,,,,,,,,,,,,,,,,,,,,0,5,5,5,0,1,1,1,,,,,,,,,,,,,,,,,,,1121.0225612090435,p,2.117479250067845,1123.2174674170092,4,5.991324375150725,,,,,19,A,2024-08-29_09h22.31.716,EPIDM,2023.1.2,None,
3280.jpg,9270.jpg,0 Points,0 Points,305 Points,PS1_L6.csv,,,,,,,,,,,,,,,,,,,,,,,,,,,,,0,5,5,5,0,2,2,2,,,,,,,,,,,,,,,,,,,1133.5141839999706,p,2.849507167004049,1136.4274079590105,,,,,,,19,A,2024-08-29_09h22.31.716,EPIDM,2023.1.2,None,
6800.jpg,9190.jpg,0 Points,0 Points,305 Points,PS1_L6.csv,,,,,,,,,,,,,,,,,,,,,,,,,,,,,0,5,5,5,0,3,3,3,,,,,,,,,,,,,,,,,,,1140.6732655419037,q,1.290304042166099,1142.006427791901,,,,,,,19,A,2024-08-29_09h22.31.716,EPIDM,2023.1.2,None,
5600.jpg,9080.jpg,5 Points,5 Points,310 Points,PS1_L6.csv,,,,,,,,,,,,,,,,,,,,,,,,,,,,,0,5,5,5,0,4,4,4,,,,,,,,,,,,,,,,,,,1146.2745380420238,p,2.4087640838697553,1148.7342419589404,,,,,,,19,A,2024-08-29_09h22.31.716,EPIDM,2023.1.2,None,
P211.jpg,9041.jpg,4 Points,4 Points,314 Points,PS1_L6.csv,,,,,,,,,,,,,,,,,,,,,,,,,,,,,0,5,5,5,0,5,5,5,,,,,,,,,,,,,,,,,,,1152.992568250047,q,1.4103494172450155,1154.4973460000474,,,,,,,19,A,2024-08-29_09h22.31.716,EPIDM,2023.1.2,None,
5200.jpg,5020.jpg,0 Points,0 Points,314 Points,PS1_L6.csv,,,,,,,,,,,,,,,,,,,,,,,,,,,,,0,5,5,5,0,6,6,6,,,,,,,,,,,,,,,,,,,1158.7172514169943,q,0.9497621669434011,1159.7384514999576,,,,,,,19,A,2024-08-29_09h22.31.716,EPIDM,2023.1.2,None,
1850.jpg,5623.jpg,5 Points,5 Points,319 Points,PS1_L6.csv,,,,,,,,,,,,,,,,,,,,,,,,,,,,,0,5,5,5,0,7,7,7,,,,,,,,,,,,,,,,,,,1163.9878193750046,q,1.551792958052829,1165.6096536249388,,,,,,,19,A,2024-08-29_09h22.31.716,EPIDM,2023.1.2,None,
9440.jpg,6350.jpg,4 Points,4 Points,323 Points,PS1_L6.csv,,,,,,,,,,,,,,,,,,,,,,,,,,,,,0,5,5,5,0,8,8,8,,,,,,,,,,,,,,,,,,,1169.844743499998,p,2.151352332904935,1172.0297658750787,,,,,,,19,A,2024-08-29_09h22.31.716,EPIDM,2023.1.2,None,
5990.jpg,5780.jpg,3 Points,3 Points,326 Points,PS1_L6.csv,,,,,,,,,,,,,,,,,,,,,,,,,,,,,0,5,5,5,0,9,9,9,,,,,,,,,,,,,,,,,,,1176.3056687919889,q,1.7923401659354568,1178.1688925419003,,,,,,,19,A,2024-08-29_09h22.31.716,EPIDM,2023.1.2,None,
6244.jpg,9265.jpg,0 Points,0 Points,326 Points,PS1_L6.csv,,,,,,,,,,,,,,,,,,,,,,,,,,,,,0,5,5,5,0,10,10,10,,,,,,,,,,,,,,,,,,,1182.4149792499375,p,1.5951170839834958,1184.083927999949,,,,,,,19,A,2024-08-29_09h22.31.716,EPIDM,2023.1.2,None,
5000.jpg,8180.jpg,4 Points,4 Points,330 Points,PS1_L6.csv,,,,,,,,,,,,,,,,,,,,,,,,,,,,,0,5,5,5,0,11,11,11,,,,,,,,,,,,,,,,,,,1188.3296449170448,p,0.9451717920601368,1189.3491269170772,,,,,,,19,A,2024-08-29_09h22.31.716,EPIDM,2023.1.2,None,
5982.jpg,5260.jpg,5 Points,5 Points,335 Points,PS1_L6.csv,,,,,,,,,,,,,,,,,,,,,,,,,,,,,0,5,5,5,0,12,12,12,,,,,,,,,,,,,,,,,,,1193.5819839169271,p,1.1481556661892682,1194.8139310840052,,,,,,,19,A,2024-08-29_09h22.31.716,EPIDM,2023.1.2,None,
1301.jpg,1070.jpg,2 Points,2 Points,337 Points,PS1_L6.csv,,,,,,,,,,,,,,,,,,,,,,,,,,,,,0,5,5,5,0,13,13,13,,,,,,,,,,,,,,,,,,,1199.0458967089653,p,1.3805491251405329,1200.5102627088781,2,1.9399128751829267,,,,,19,A,2024-08-29_09h22.31.716,EPIDM,2023.1.2,None,
7920.jpg,9102.jpg,3 Points,3 Points,340 Points,PS1_L6.csv,,,,,,,,,,,,,,,,,,,,,,,,,,,,,0,5,5,5,0,14,14,14,,,,,,,,,,,,,,,,,,,1206.7370239170268,None,,,,,,,,1210.436601833906,19,A,2024-08-29_09h22.31.716,EPIDM,2023.1.2,None,
5455.jpg,5220.jpg,0 Points,0 Points,340 Points,PS1_L6.csv,,,,,,,,,,,,,,,,,,,,,,,,,,,,,0,5,5,5,0,15,15,15,,,,,,,,,,,,,,,,,,,1214.2342837499455,p,1.0704034592490643,1215.365874500014,,,,,,,19,A,2024-08-29_09h22.31.716,EPIDM,2023.1.2,None,
3350.jpg,3210.jpg,1 Point,1 Point,341 Points,PS1_L6.csv,,,,,,,,,,,,,,,,,,,,,,,,,,,,,0,5,5,5,0,16,16,16,,,,,,,,,,,,,,,,,,,1219.6279545419384,p,1.5338936250191182,1221.2018715420272,,,,,,,19,A,2024-08-29_09h22.31.716,EPIDM,2023.1.2,None,
2560.jpg,5270.jpg,4 Points,4 Points,345 Points,PS1_L6.csv,,,,,,,,,,,,,,,,,,,,,,,,,,,,,0,5,5,5,0,17,17,17,,,,,,,,,,,,,,,,,,,1225.4640405420214,p,1.0576810410711914,1226.5872237088624,,,,,,,19,A,2024-08-29_09h22.31.716,EPIDM,2023.1.2,None,
9584.jpg,3400.jpg,2 Points,2 Points,347 Points,PS1_L6.csv,,,,,,,,,,,,,,,,,,,,,,,,,,,,,0,5,5,5,0,18,18,18,,,,,,,,,,,,,,,,,,,1230.8262583338656,q,2.126620166003704,1233.0394939589314,,,,,,,19,A,2024-08-29_09h22.31.716,EPIDM,2023.1.2,None,
5760.jpg,1602.jpg,1 Point,1 Point,348 Points,PS1_L6.csv,,,,,,,,,,,,,,,,,,,,,,,,,,,,,0,5,5,5,0,19,19,19,,,,,,,,,,,,,,,,,,,1237.26951141702,q,1.2111629170831293,1238.5400470420718,,,,,,,19,A,2024-08-29_09h22.31.716,EPIDM,2023.1.2,None,
7230.jpg,7570.jpg,5 Points,5 Points,353 Points,PS1_L6.csv,,,,,,,,,,,,,,,,,,,,,,,,,,,,,0,5,5,5,0,20,20,20,,,,,,,,,,,,,,,,,,,1242.7901339170057,p,1.5620805420912802,1244.4273716669995,,,,,,,19,A,2024-08-29_09h22.31.716,EPIDM,2023.1.2,None,
1022.jpg,6930.jpg,1 Point,1 Point,354 Points,PS1_L6.csv,,,,,,,,,,,,,,,,,,,,,,,,,,,,,0,5,5,5,0,21,21,21,,,,,,,,,,,,,,,,,,,1248.6612560420763,p,1.3313420000486076,1250.0708115000743,,,,,,,19,A,2024-08-29_09h22.31.716,EPIDM,2023.1.2,None,
8340.jpg,7546.jpg,2 Points,2 Points,356 Points,PS1_L6.csv,,,,,,,,,,,,,,,,,,,,,,,,,,,,,0,5,5,5,0,22,22,22,,,,,,,,,,,,,,,,,,,1254.299611958908,q,1.2773750419728458,1255.6441229588818,,,,,,,19,A,2024-08-29_09h22.31.716,EPIDM,2023.1.2,None,
6243.jpg,2752.jpg,2 Points,2 Points,358 Points,PS1_L6.csv,,,,,,,,,,,,,,,,,,,,,,,,,,,,,0,5,5,5,0,23,23,23,,,,,,,,,,,,,,,,,,,1259.8868625420146,q,1.2651608751621097,1261.223553000018,,,1271.6896382919513,space,1.8789310832507908,,19,A,2024-08-29_09h22.31.716,EPIDM,2023.1.2,None,
7280.jpg,7160.jpg,0 Points,0 Points,358 Points,PS1_L7.csv,,,,,,,,,,,,,,,,,,,,,,,,,,,,,0,6,6,6,0,0,0,0,,,,,,,,,,,,,,,,,,,1276.8764697918668,q,2.1873601672705263,1279.1462646669243,,,,,,,19,A,2024-08-29_09h22.31.716,EPIDM,2023.1.2,None,
2580.jpg,8300.jpg,3 Points,3 Points,361 Points,PS1_L7.csv,,,,,,,,,,,,,,,,,,,,,,,,,,,,,0,6,6,6,0,1,1,1,,,,,,,,,,,,,,,,,,,1283.3848266249988,p,2.1671102079562843,1285.6336231250316,3,1.4295879581477493,,,,,19,A,2024-08-29_09h22.31.716,EPIDM,2023.1.2,None,
5972.jpg,6838.jpg,5 Points,5 Points,366 Points,PS1_L7.csv,,,,,,,,,,,,,,,,,,,,,,,,,,,,,0,6,6,6,0,2,2,2,,,,,,,,,,,,,,,,,,,1291.371667166939,p,1.2272040001116693,1292.669317458989,,,,,,,19,A,2024-08-29_09h22.31.716,EPIDM,2023.1.2,None,
5621.jpg,5534.jpg,3 Points,3 Points,369 Points,PS1_L7.csv,,,,,,,,,,,,,,,,,,,,,,,,,,,,,0,6,6,6,0,3,3,3,,,,,,,,,,,,,,,,,,,1296.9092352089938,q,1.4737474999856204,1298.461681209039,,,,,,,19,A,2024-08-29_09h22.31.716,EPIDM,2023.1.2,None,
8480.jpg,6410.jpg,1 Point,1 Point,370 Points,PS1_L7.csv,,,,,,,,,,,,,,,,,,,,,,,,,,,,,0,6,6,6,0,4,4,4,,,,,,,,,,,,,,,,,,,1302.7047071668785,p,1.0543259161058813,1303.827396791894,,,,,,,19,A,2024-08-29_09h22.31.716,EPIDM,2023.1.2,None,
2702.jpg,1590.jpg,5 Points,5 Points,375 Points,PS1_L7.csv,,,,,,,,,,,,,,,,,,,,,,,,,,,,,0,6,6,6,0,5,5,5,,,,,,,,,,,,,,,,,,,1308.0764577500522,q,1.689718083012849,1309.8564864590298,,,,,,,19,A,2024-08-29_09h22.31.716,EPIDM,2023.1.2,None,
1275.jpg,3150.jpg,1 Point,1 Point,376 Points,PS1_L7.csv,,,,,,,,,,,,,,,,,,,,,,,,,,,,,0,6,6,6,0,6,6,6,,,,,,,,,,,,,,,,,,,1314.0955752499867,p,0.6345831251237541,1314.7826030419674,,,,,,,19,A,2024-08-29_09h22.31.716,EPIDM,2023.1.2,None,
1910.jpg,2575.jpg,2 Points,2 Points,378 Points,PS1_L7.csv,,,,,,,,,,,,,,,,,,,,,,,,,,,,,0,6,6,6,0,7,7,7,,,,,,,,,,,,,,,,,,,1319.05039724987,p,0.9491258340422064,1320.0751083339565,,,,,,,19,A,2024-08-29_09h22.31.716,EPIDM,2023.1.2,None,
2518.jpg,2381.jpg,1 Point,1 Point,382 Points,PS1_L7.csv,,,,,,,,,,,,,,,,,,,,,,,,,,,,,0,6,6,6,0,8,8,8,,,,,,,,,,,,,,,,,,,1324.3115363339894,q,2.110949458088726,1326.4666700419039,,,,,,,19,A,2024-08-29_09h22.31.716,EPIDM,2023.1.2,None,
6250.1.jpg,3301.jpg,0 Points,0 Points,382 Points,PS1_L7.csv,,,,,,,,,,,,,,,,,,,,,,,,,,,,,0,6,6,6,0,9,9,9,,,,,,,,,,,,,,,,,,,1330.73983145901,q,1.4580189159605652,1332.265813875012,,,,,,,19,A,2024-08-29_09h22.31.716,EPIDM,2023.1.2,None,
7234.jpg,5533.jpg,3 Points,3 Points,385 Points,PS1_L7.csv,,,,,,,,,,,,,,,,,,,,,,,,,,,,,0,6,6,6,0,10,10,10,,,,,,,,,,,,,,,,,,,1336.5083632089663,q,1.9937592081259936,1338.566560291918,,,,,,,19,A,2024-08-29_09h22.31.716,EPIDM,2023.1.2,None,
9920.jpg,3068.jpg,5 Points,5 Points,390 Points,PS1_L7.csv,,,,,,,,,,,,,,,,,,,,,,,,,,,,,0,6,6,6,0,11,11,11,,,,,,,,,,,,,,,,,,,1342.814788583899,p,0.4948515831492841,1343.3725821669213,,,,,,,19,A,2024-08-29_09h22.31.716,EPIDM,2023.1.2,None,
3022.jpg,2352.2.jpg,0 Points,0 Points,390 Points,PS1_L7.csv,,,,,,,,,,,,,,,,,,,,,,,,,,,,,0,6,6,6,0,12,12,12,,,,,,,,,,,,,,,,,,,1347.6230118749663,p,1.878190000075847,1349.5724958749488,,,,,,,19,A,2024-08-29_09h22.31.716,EPIDM,2023.1.2,None,
8250.jpg,1313.jpg,4 Points,4 Points,394 Points,PS1_L7.csv,,,,,,,,,,,,,,,,,,,,,,,,,,,,,0,6,6,6,0,13,13,13,,,,,,,,,,,,,,,,,,,1353.815766334068,q,1.7098246251698583,1355.5991347089875,4,1.7455059168860316,,,,,19,A,2024-08-29_09h22.31.716,EPIDM,2023.1.2,None,
2690.jpg,9360.jpg,1 Point,1 Point,395 Points,PS1_L7.csv,,,,,,,,,,,,,,,,,,,,,,,,,,,,,0,6,6,6,0,14,14,14,,,,,,,,,,,,,,,,,,,1361.6576450420544,q,1.5398461252916604,1363.2726122920867,,,,,,,19,A,2024-08-29_09h22.31.716,EPIDM,2023.1.2,None,
9570.jpg,6610.jpg,0 Points,0 Points,395 Points,PS1_L7.csv,,,,,,,,,,,,,,,,,,,,,,,,,,,,,0,6,6,6,0,15,15,15,,,,,,,,,,,,,,,,,,,1367.5303669590503,q,0.6030768752098083,1368.2057534998748,,,,,,,19,A,2024-08-29_09h22.31.716,EPIDM,2023.1.2,None,
3110.jpg,9000.jpg,4 Points,4 Points,399 Points,PS1_L7.csv,,,,,,,,,,,,,,,,,,,,,,,,,,,,,0,6,6,6,0,16,16,16,,,,,,,,,,,,,,,,,,,1372.4522639999632,q,1.664344042306766,1374.1896009589545,,,,,,,19,A,2024-08-29_09h22.31.716,EPIDM,2023.1.2,None,
8465.jpg,8400.jpg,1 Point,1 Point,400 Points,PS1_L7.csv,,,,,,,,,,,,,,,,,,,,,,,,,,,,,0,6,6,6,0,17,17,17,,,,,,,,,,,,,,,,,,,1378.4263897088822,p,1.0031623330432922,1379.494274042081,,,,,,,19,A,2024-08-29_09h22.31.716,EPIDM,2023.1.2,None,
1540.jpg,2600.jpg,1 Point,1 Point,401 Points,PS1_L7.csv,,,,,,,,,,,,,,,,,,,,,,,,,,,,,0,6,6,6,0,18,18,18,,,,,,,,,,,,,,,,,,,1383.732687291922,p,0.8559185001067817,1384.6424162499607,,,,,,,19,A,2024-08-29_09h22.31.716,EPIDM,2023.1.2,None,
2276.jpg,6540.jpg,3 Points,3 Points,404 Points,PS1_L7.csv,,,,,,,,,,,,,,,,,,,,,,,,,,,,,0,6,6,6,0,19,19,19,,,,,,,,,,,,,,,,,,,1388.8994380838703,p,1.4970198750961572,1390.4553672089241,,,,,,,19,A,2024-08-29_09h22.31.716,EPIDM,2023.1.2,None,
5030.jpg,1670.jpg,3 Points,3 Points,407 Points,PS1_L7.csv,,,,,,,,,,,,,,,,,,,,,,,,,,,,,0,6,6,6,0,20,20,20,,,,,,,,,,,,,,,,,,,1394.7091251250822,p,0.8232402501162142,1395.5878459170926,,,,,,,19,A,2024-08-29_09h22.31.716,EPIDM,2023.1.2,None,
9040.jpg,1120.jpg,3 Points,3 Points,410 Points,PS1_L7.csv,,,,,,,,,,,,,,,,,,,,,,,,,,,,,0,6,6,6,0,21,21,21,,,,,,,,,,,,,,,,,,,1399.8357142088935,q,1.167812708998099,1401.0640700000804,,,,,,,19,A,2024-08-29_09h22.31.716,EPIDM,2023.1.2,None,
3220.jpg,3063.jpg,5 Points,5 Points,415 Points,PS1_L7.csv,,,,,,,,,,,,,,,,,,,,,,,,,,,,,0,6,6,6,0,22,22,22,,,,,,,,,,,,,,,,,,,1405.3093040839303,p,2.9530714580323547,1408.3290382919367,,,,,,,19,A,2024-08-29_09h22.31.716,EPIDM,2023.1.2,None,
8117.jpg,2880.jpg,5 Points,5 Points,420 Points,PS1_L7.csv,,,,,,,,,,,,,,,,,,,,,,,,,,,,,0,6,6,6,0,23,23,23,,,,,,,,,,,,,,,,,,,1412.5786277500447,q,1.257510666968301,1413.9045907920226,,,1424.37533874996,space,1.588279333896935,,19,A,2024-08-29_09h22.31.716,EPIDM,2023.1.2,None,
4274.jpg,8160.jpg,2 Points,2 Points,422 Points,PS1_L8.csv,,,,,,,,,,,,,,,,,,,,,,,,,,,,,0,7,7,7,0,0,0,0,,,,,,,,,,,,,,,,,,,1429.2756072920747,p,1.1363360001705587,1430.492356041912,,,,,,,19,A,2024-08-29_09h22.31.716,EPIDM,2023.1.2,None,
6314.jpg,O022.jpg,2 Points,2 Points,424 Points,PS1_L8.csv,,,,,,,,,,,,,,,,,,,,,,,,,,,,,0,7,7,7,0,1,1,1,,,,,,,,,,,,,,,,,,,1434.7264487498906,p,2.3341664581093937,1437.1764368340373,2,1.7875580831896514,,,,,19,A,2024-08-29_09h22.31.716,EPIDM,2023.1.2,None,
1560.jpg,8185.jpg,0 Points,0 Points,424 Points,PS1_L8.csv,,,,,,,,,,,,,,,,,,,,,,,,,,,,,0,7,7,7,0,2,2,2,,,,,,,,,,,,,,,,,,,1443.2453443340492,p,2.7333408331032842,1446.0460804589093,,,,,,,19,A,2024-08-29_09h22.31.716,EPIDM,2023.1.2,None,
2850.jpg,4532.jpg,3 Points,3 Points,427 Points,PS1_L8.csv,,,,,,,,,,,,,,,,,,,,,,,,,,,,,0,7,7,7,0,3,3,3,,,,,,,,,,,,,,,,,,,1450.2864424588624,p,2.79063875018619,1453.133417458972,,,,,,,19,A,2024-08-29_09h22.31.716,EPIDM,2023.1.2,None,
1390.jpg,9421.jpg,2 Points,2 Points,429 Points,PS1_L8.csv,,,,,,,,,,,,,,,,,,,,,,,,,,,,,0,7,7,7,0,4,4,4,,,,,,,,,,,,,,,,,,,1457.378861125093,p,1.4789734580554068,1458.9333577919751,,,,,,,19,A,2024-08-29_09h22.31.716,EPIDM,2023.1.2,None,
9800.jpg,9433.jpg,1 Point,1 Point,430 Points,PS1_L8.csv,,,,,,,,,,,,,,,,,,,,,,,,,,,,,0,7,7,7,0,5,5,5,,,,,,,,,,,,,,,,,,,1463.1715950840153,q,1.5987624579574913,1464.8332360840868,,,,,,,19,A,2024-08-29_09h22.31.716,EPIDM,2023.1.2,None,
8161.jpg,1900.jpg,4 Points,4 Points,434 Points,PS1_L8.csv,,,,,,,,,,,,,,,,,,,,,,,,,,,,,0,7,7,7,0,6,6,6,,,,,,,,,,,,,,,,,,,1469.0820245419163,q,1.0889656660147011,1470.2370986249298,,,,,,,19,A,2024-08-29_09h22.31.716,EPIDM,2023.1.2,None,
1112.jpg,6230.jpg,3 Points,3 Points,437 Points,PS1_L8.csv,,,,,,,,,,,,,,,,,,,,,,,,,,,,,0,7,7,7,0,7,7,7,,,,,,,,,,,,,,,,,,,1474.4739392919,p,1.1443306249566376,1475.6963497919496,,,,,,,19,A,2024-08-29_09h22.31.716,EPIDM,2023.1.2,None,
1111.jpg,1040.jpg,0 Points,0 Points,437 Points,PS1_L8.csv,,,,,,,,,,,,,,,,,,,,,,,,,,,,,0,7,7,7,0,8,8,8,,,,,,,,,,,,,,,,,,,1479.9399769590236,q,1.0938534999731928,1481.1073708338663,,,,,,,19,A,2024-08-29_09h22.31.716,EPIDM,2023.1.2,None,
5622.jpg,9156.jpg,4 Points,4 Points,441 Points,PS1_L8.csv,,,,,,,,,,,,,,,,,,,,,,,,,,,,,0,7,7,7,0,9,9,9,,,,,,,,,,,,,,,,,,,1485.3489660420455,p,1.6131143330130726,1487.0347010418773,,,,,,,19,A,2024-08-29_09h22.31.716,EPIDM,2023.1.2,None,
2681.jpg,7100.jpg,3 Points,3 Points,444 Points,PS1_L8.csv,,,,,,,,,,,,,,,,,,,,,,,,,,,,,0,7,7,7,0,10,10,10,,,,,,,,,,,,,,,,,,,1491.2680800838862,q,1.2622335420455784,1492.6053508750629,,,,,,,19,A,2024-08-29_09h22.31.716,EPIDM,2023.1.2,None,
6821.jpg,9622.jpg,2 Points,2 Points,446 Points,PS1_L8.csv,,,,,,,,,,,,,,,,,,,,,,,,,,,,,0,7,7,7,0,11,11,11,,,,,,,,,,,,,,,,,,,1496.8348011248745,p,1.1423910839948803,1498.0475145839155,,,,,,,19,A,2024-08-29_09h22.31.716,EPIDM,2023.1.2,None,
9490.jpg,9210.jpg,1 Point,1 Point,447 Points,PS1_L8.csv,,,,,,,,,,,,,,,,,,,,,,,,,,,,,0,7,7,7,0,12,12,12,,,,,,,,,,,,,,,,,,,1502.2979515420739,q,1.607008167076856,1503.9599622499663,,,,,,,19,A,2024-08-29_09h22.31.716,EPIDM,2023.1.2,None,
4605.jpg,1510.jpg,4 Points,4 Points,451 Points,PS1_L8.csv,,,,,,,,,,,,,,,,,,,,,,,,,,,,,0,7,7,7,0,13,13,13,,,,,,,,,,,,,,,,,,,1508.2100925419945,q,1.1592035829089582,1509.4352942919359,4,1.6814182500820607,,,,,19,A,2024-08-29_09h22.31.716,EPIDM,2023.1.2,None,
2240.jpg,5010.jpg,5 Points,5 Points,456 Points,PS1_L8.csv,,,,,,,,,,,,,,,,,,,,,,,,,,,,,0,7,7,7,0,14,14,14,,,,,,,,,,,,,,,,,,,1515.424879875034,q,1.3678413750603795,1516.8754666668829,,,,,,,19,A,2024-08-29_09h22.31.716,EPIDM,2023.1.2,None,
3102.jpg,F032.jpg,1 Point,1 Point,457 Points,PS1_L8.csv,,,,,,,,,,,,,,,,,,,,,,,,,,,,,0,7,7,7,0,15,15,15,,,,,,,,,,,,,,,,,,,1521.103165624896,q,1.7215035420376807,1522.9424161249772,,,,,,,19,A,2024-08-29_09h22.31.716,EPIDM,2023.1.2,None,
4100.jpg,6570.2.jpg,3 Points,3 Points,460 Points,PS1_L8.csv,,,,,,,,,,,,,,,,,,,,,,,,,,,,,0,7,7,7,0,16,16,16,,,,,,,,,,,,,,,,,,,1527.1345895419363,q,1.4180587080772966,1528.6667922500055,,,,,,,19,A,2024-08-29_09h22.31.716,EPIDM,2023.1.2,None,
2650.jpg,4531.jpg,5 Points,5 Points,465 Points,PS1_L8.csv,,,,,,,,,,,,,,,,,,,,,,,,,,,,,0,7,7,7,0,17,17,17,,,,,,,,,,,,,,,,,,,1532.870237458963,p,1.3718245420604944,1534.317421084037,,,,,,,19,A,2024-08-29_09h22.31.716,EPIDM,2023.1.2,None,
9320.jpg,9007.jpg,0 Points,0 Points,465 Points,PS1_L8.csv,,,,,,,,,,,,,,,,,,,,,,,,,,,,,0,7,7,7,0,18,18,18,,,,,,,,,,,,,,,,,,,1538.5469982090872,p,1.6131984589155763,1540.2383351249155,,,,,,,19,A,2024-08-29_09h22.31.716,EPIDM,2023.1.2,None,
8460.jpg,8330.jpg,0 Points,0 Points,465 Points,PS1_L8.csv,,,,,,,,,,,,,,,,,,,,,,,,,,,,,0,7,7,7,0,19,19,19,,,,,,,,,,,,,,,,,,,1544.4736748749856,q,1.590783708030358,1546.1228755419143,,,,,,,19,A,2024-08-29_09h22.31.716,EPIDM,2023.1.2,None,
2570.jpg,5500.jpg,3 Points,3 Points,468 Points,PS1_L8.csv,,,,,,,,,,,,,,,,,,,,,,,,,,,,,0,7,7,7,0,20,20,20,,,,,,,,,,,,,,,,,,,1550.3737731250003,q,1.5301957079209387,1551.9653127500787,,,,,,,19,A,2024-08-29_09h22.31.716,EPIDM,2023.1.2,None,
6190.jpg,3120.jpg,5 Points,5 Points,473 Points,PS1_L8.csv,,,,,,,,,,,,,,,,,,,,,,,,,,,,,0,7,7,7,0,21,21,21,,,,,,,,,,,,,,,,,,,1556.2136669589672,q,1.1071192501112819,1557.4062717088964,,,,,,,19,A,2024-08-29_09h22.31.716,EPIDM,2023.1.2,None,
2200.jpg,4598.jpg,1 Point,1 Point,474 Points,PS1_L8.csv,,,,,,,,,,,,,,,,,,,,,,,,,,,,,0,7,7,7,0,22,22,22,,,,,,,,,,,,,,,,,,,1561.6423781670164,p,1.4312634160742164,1563.154933999991,,,,,,,19,A,2024-08-29_09h22.31.716,EPIDM,2023.1.2,None,
1303.jpg,2000.jpg,0 Points,0 Points,474 Points,PS1_L8.csv,,,,,,,,,,,,,,,,,,,,,,,,,,,,,0,7,7,7,0,23,23,23,,,,,,,,,,,,,,,,,,,1567.3831619590055,q,1.8169997080694884,1569.2668288340792,,,1579.728331292048,space,1.032170042162761,,19,A,2024-08-29_09h22.31.716,EPIDM,2023.1.2,None,
9010.jpg,9253.jpg,0 Points,0 Points,474 Points,PS1_L9.csv,,,,,,,,,,,,,,,,,,,,,,,,,,,,,0,8,8,8,0,0,0,0,,,,,,,,,,,,,,,,,,,1584.0591462089214,p,0.9158440830651671,1585.0467980839312,,,,,,,19,A,2024-08-29_09h22.31.716,EPIDM,2023.1.2,None,
1302.jpg,2700.jpg,3 Points,3 Points,477 Points,PS1_L9.csv,,,,,,,,,,,,,,,,,,,,,,,,,,,,,0,8,8,8,0,1,1,1,,,,,,,,,,,,,,,,,,,1589.2925685839728,q,1.5233990829437971,1590.8806171668693,3,1.491841125069186,,,,,19,A,2024-08-29_09h22.31.716,EPIDM,2023.1.2,None,
2030.jpg,2495.jpg,0 Points,0 Points,477 Points,PS1_L9.csv,,,,,,,,,,,,,,,,,,,,,,,,,,,,,0,8,8,8,0,2,2,2,,,,,,,,,,,,,,,,,,,1596.6760759169701,p,1.5860985410399735,1598.3293715419713,,,,,,,19,A,2024-08-29_09h22.31.716,EPIDM,2023.1.2,None,
2110.jpg,7260.jpg,5 Points,5 Points,482 Points,PS1_L9.csv,,,,,,,,,,,,,,,,,,,,,,,,,,,,,0,8,8,8,0,3,3,3,,,,,,,,,,,,,,,,,,,1602.5757863339968,q,0.8800702921580523,1603.5215856670402,,,,,,,19,A,2024-08-29_09h22.31.716,EPIDM,2023.1.2,None,
2053.jpg,9415.jpg,4 Points,4 Points,486 Points,PS1_L9.csv,,,,,,,,,,,,,,,,,,,,,,,,,,,,,0,8,8,8,0,4,4,4,,,,,,,,,,,,,,,,,,,1607.754022709094,q,1.4852874581702054,1609.3091736249626,,,,,,,19,A,2024-08-29_09h22.31.716,EPIDM,2023.1.2,None,
6211.jpg,9611.jpg,3 Points,3 Points,489 Points,PS1_L9.csv,,,,,,,,,,,,,,,,,,,,,,,,,,,,,0,8,8,8,0,5,5,5,,,,,,,,,,,,,,,,,,,1613.5578094590455,p,2.016383625101298,1615.6277059589047,,,,,,,19,A,2024-08-29_09h22.31.716,EPIDM,2023.1.2,None,
8350.jpg,7190.jpg,5 Points,5 Points,494 Points,PS1_L9.csv,,,,,,,,,,,,,,,,,,,,,,,,,,,,,0,8,8,8,0,6,6,6,,,,,,,,,,,,,,,,,,,1619.881004709052,q,1.1916544160339981,1621.1527825419325,,,,,,,19,A,2024-08-29_09h22.31.716,EPIDM,2023.1.2,None,
9340.jpg,6910.jpg,0 Points,0 Points,494 Points,PS1_L9.csv,,,,,,,,,,,,,,,,,,,,,,,,,,,,,0,8,8,8,0,7,7,7,,,,,,,,,,,,,,,,,,,1625.387196334079,p,1.5956312089692801,1627.0669792920817,,,,,,,19,A,2024-08-29_09h22.31.716,EPIDM,2023.1.2,None,
4533.jpg,2385.jpg,3 Points,3 Points,497 Points,PS1_L9.csv,,,,,,,,,,,,,,,,,,,,,,,,,,,,,0,8,8,8,0,8,8,8,,,,,,,,,,,,,,,,,,,1631.3034762090538,q,1.1583237091545016,1632.547465124866,,,,,,,19,A,2024-08-29_09h22.31.716,EPIDM,2023.1.2,None,
5940.jpg,9411.jpg,0 Points,0 Points,497 Points,PS1_L9.csv,,,,,,,,,,,,,,,,,,,,,,,,,,,,,0,8,8,8,0,9,9,9,,,,,,,,,,,,,,,,,,,1636.7732043340802,p,1.5675222920253873,1638.41763441707,,,,,,,19,A,2024-08-29_09h22.31.716,EPIDM,2023.1.2,None,
2220.jpg,2010.jpg,5 Points,5 Points,502 Points,PS1_L9.csv,,,,,,,,,,,,,,,,,,,,,,,,,,,,,0,8,8,8,0,10,10,10,,,,,,,,,,,,,,,,,,,1642.6574290420394,p,2.140036249998957,1644.870943167014,,,,,,,19,A,2024-08-29_09h22.31.716,EPIDM,2023.1.2,None,
9500.jpg,6360.jpg,1 Point,1 Point,503 Points,PS1_L9.csv,,,,,,,,,,,,,,,,,,,,,,,,,,,,,0,8,8,8,0,11,11,11,,,,,,,,,,,,,,,,,,,1649.1034985000733,p,1.5020391251891851,1650.6740249169525,,,,,,,19,A,2024-08-29_09h22.31.716,EPIDM,2023.1.2,None,
2092.jpg,2210.jpg,0 Points,0 Points,503 Points,PS1_L9.csv,,,,,,,,,,,,,,,,,,,,,,,,,,,,,0,8,8,8,0,12,12,12,,,,,,,,,,,,,,,,,,,1654.9138588749338,p,2.8349760421551764,1657.8104112918954,,,,,,,19,A,2024-08-29_09h22.31.716,EPIDM,2023.1.2,None,
9530.jpg,9220.jpg,1 Point,1 Point,504 Points,PS1_L9.csv,,,,,,,,,,,,,,,,,,,,,,,,,,,,,0,8,8,8,0,13,13,13,,,,,,,,,,,,,,,,,,,1662.0567599169444,q,2.215155583107844,1664.335706291953,1,1.1863185830879956,,,,,19,A,2024-08-29_09h22.31.716,EPIDM,2023.1.2,None,
9254.jpg,9290.jpg,2 Points,2 Points,506 Points,PS1_L9.csv,,,,,,,,,,,,,,,,,,,,,,,,,,,,,0,8,8,8,0,14,14,14,,,,,,,,,,,,,,,,,,,1669.828053749865,q,1.345081000123173,1671.2301296670921,,,,,,,19,A,2024-08-29_09h22.31.716,EPIDM,2023.1.2,None,
4608.jpg,8320.jpg,1 Point,1 Point,507 Points,PS1_L9.csv,,,,,,,,,,,,,,,,,,,,,,,,,,,,,0,8,8,8,0,15,15,15,,,,,,,,,,,,,,,,,,,1675.490224624984,p,1.8744285001885146,1677.4344794999342,,,,,,,19,A,2024-08-29_09h22.31.716,EPIDM,2023.1.2,None,
7237.jpg,8510.jpg,4 Points,4 Points,511 Points,PS1_L9.csv,,,,,,,,,,,,,,,,,,,,,,,,,,,,,0,8,8,8,0,16,16,16,,,,,,,,,,,,,,,,,,,1681.6760995839722,p,1.44870754214935,1683.1975922090933,,,,,,,19,A,2024-08-29_09h22.31.716,EPIDM,2023.1.2,None,
9417.jpg,6530.jpg,1 Point,1 Point,512 Points,PS1_L9.csv,,,,,,,,,,,,,,,,,,,,,,,,,,,,,0,8,8,8,0,17,17,17,,,,,,,,,,,,,,,,,,,1687.4335007090122,p,1.6043470411095768,1689.1159442500211,,,,,,,19,A,2024-08-29_09h22.31.716,EPIDM,2023.1.2,None,
6831.jpg,2141.jpg,5 Points,5 Points,517 Points,PS1_L9.csv,,,,,,,,,,,,,,,,,,,,,,,,,,,,,0,8,8,8,0,18,18,18,,,,,,,,,,,,,,,,,,,1693.3427430000156,q,2.365197000093758,1695.7821535419207,,,,,,,19,A,2024-08-29_09h22.31.716,EPIDM,2023.1.2,None,
4689.jpg,7009.jpg,5 Points,5 Points,522 Points,PS1_L9.csv,,,,,,,,,,,,,,,,,,,,,,,,,,,,,0,8,8,8,0,19,19,19,,,,,,,,,,,,,,,,,,,1700.0228826669045,q,0.5980028749909252,1700.6926348749548,,,,,,,19,A,2024-08-29_09h22.31.716,EPIDM,2023.1.2,None,
2751.jpg,6313.jpg,3 Points,3 Points,525 Points,PS1_L9.csv,,,,,,,,,,,,,,,,,,,,,,,,,,,,,0,8,8,8,0,20,20,20,,,,,,,,,,,,,,,,,,,1704.9334178338759,p,1.0699516250751913,1706.07545029209,,,,,,,19,A,2024-08-29_09h22.31.716,EPIDM,2023.1.2,None,
4621.jpg,3550.jpg,2 Points,2 Points,527 Points,PS1_L9.csv,,,,,,,,,,,,,,,,,,,,,,,,,,,,,0,8,8,8,0,21,21,21,,,,,,,,,,,,,,,,,,,1710.3126875420567,p,2.979931334266439,1713.3718997500837,,,,,,,19,A,2024-08-29_09h22.31.716,EPIDM,2023.1.2,None,
8220.jpg,2410.jpg,4 Points,4 Points,531 Points,PS1_L9.csv,,,,,,,,,,,,,,,,,,,,,,,,,,,,,0,8,8,8,0,22,22,22,,,,,,,,,,,,,,,,,,,1717.6138997499365,q,1.5814037499949336,1719.2690743750427,,,,,,,19,A,2024-08-29_09h22.31.716,EPIDM,2023.1.2,None,
1113.jpg,1240.jpg,3 Points,3 Points,534 Points,PS1_L9.csv,,,,,,,,,,,,,,,,,,,,,,,,,,,,,0,8,8,8,0,23,23,23,,,,,,,,,,,,,,,,,,,1723.523499666946,p,2.129694500239566,1725.7209544170182,,,1736.1729158340022,space,0.8691073332447559,,19,A,2024-08-29_09h22.31.716,EPIDM,2023.1.2,None,
2750.jpg,9050.jpg,4 Points,4 Points,538 Points,PS1_L10.csv,,,,,,,,,,,,,,,,,,,,,,,,,,,,,0,9,9,9,0,0,0,0,,,,,,,,,,,,,,,,,,,1740.3713151670527,p,1.5043790831696242,1741.942697542021,,,,,,,19,A,2024-08-29_09h22.31.716,EPIDM,2023.1.2,None,
2312.jpg,2722.jpg,1 Points,1 Points,539 Points,PS1_L10.csv,,,,,,,,,,,,,,,,,,,,,,,,,,,,,0,9,9,9,0,1,1,1,,,,,,,,,,,,,,,,,,,1746.1835337090306,q,1.252725541125983,1747.498861375032,1,1.0210233752150089,,,,,19,A,2024-08-29_09h22.31.716,EPIDM,2023.1.2,None,
8232.jpg,4279.jpg,5 Points,5 Points,544 Points,PS1_L10.csv,,,,,,,,,,,,,,,,,,,,,,,,,,,,,0,9,9,9,0,2,2,2,,,,,,,,,,,,,,,,,,,1752.8317582090385,p,1.603968916926533,1754.5207825419493,,,,,,,19,A,2024-08-29_09h22.31.716,EPIDM,2023.1.2,None,
6000.jpg,6836.jpg,4 Points,4 Points,548 Points,PS1_L10.csv,,,,,,,,,,,,,,,,,,,,,,,,,,,,,0,9,9,9,0,3,3,3,,,,,,,,,,,,,,,,,,,1758.7523943339474,p,1.9146786669734865,1760.7453642499167,,,,,,,19,A,2024-08-29_09h22.31.716,EPIDM,2023.1.2,None,
4536.jpg,2280.jpg,4 Points,4 Points,552 Points,PS1_L10.csv,,,,,,,,,,,,,,,,,,,,,,,,,,,,,0,9,9,9,0,4,4,4,,,,,,,,,,,,,,,,,,,1764.9781134999357,q,1.3847481671255082,1766.4258517499547,,,,,,,19,A,2024-08-29_09h22.31.716,EPIDM,2023.1.2,None,
6241.jpg,9561.jpg,3 Points,3 Points,555 Points,PS1_L10.csv,,,,,,,,,,,,,,,,,,,,,,,,,,,,,0,9,9,9,0,5,5,5,,,,,,,,,,,,,,,,,,,1770.673896791879,q,1.3522111671045423,1772.094941624906,,,,,,,19,A,2024-08-29_09h22.31.716,EPIDM,2023.1.2,None,
1942.jpg,2890.jpg,1 Points,1 Points,556 Points,PS1_L10.csv,,,,,,,,,,,,,,,,,,,,,,,,,,,,,0,9,9,9,0,6,6,6,,,,,,,,,,,,,,,,,,,1776.3276884590741,p,1.2101346249692142,1777.61321683391,,,,,,,19,A,2024-08-29_09h22.31.716,EPIDM,2023.1.2,None,
6020.jpg,6300.jpg,2 Points,2 Points,558 Points,PS1_L10.csv,,,,,,,,,,,,,,,,,,,,,,,,,,,,,0,9,9,9,0,7,7,7,,,,,,,,,,,,,,,,,,,1781.8609925000928,p,2.213055750122294,1784.1328661250882,,,,,,,19,A,2024-08-29_09h22.31.716,EPIDM,2023.1.2,None,
7170.jpg,2170.jpg,2 Points,2 Points,560 Points,PS1_L10.csv,,,,,,,,,,,,,,,,,,,,,,,,,,,,,0,9,9,9,0,8,8,8,,,,,,,,,,,,,,,,,,,1788.3796905418858,p,0.7171519591938704,1789.1661187920254,,,,,,,19,A,2024-08-29_09h22.31.716,EPIDM,2023.1.2,None,
5510.jpg,2514.jpg,5 Points,5 Points,565 Points,PS1_L10.csv,,,,,,,,,,,,,,,,,,,,,,,,,,,,,0,9,9,9,0,9,9,9,,,,,,,,,,,,,,,,,,,1793.4154672920704,p,1.4520193340722471,1794.9492808750365,,,,,,,19,A,2024-08-29_09h22.31.716,EPIDM,2023.1.2,None,
6840.jpg,3080.jpg,1 Points,1 Points,566 Points,PS1_L10.csv,,,,,,,,,,,,,,,,,,,,,,,,,,,,,0,9,9,9,0,10,10,10,,,,,,,,,,,,,,,,,,,1799.193650084082,q,2.3355650000739843,1801.5972431250848,,,,,,,19,A,2024-08-29_09h22.31.716,EPIDM,2023.1.2,None,
7195.jpg,2487.jpg,2 Points,2 Points,568 Points,PS1_L10.csv,,,,,,,,,,,,,,,,,,,,,,,,,,,,,0,9,9,9,0,11,11,11,,,,,,,,,,,,,,,,,,,1805.853133500088,p,1.1086220003198832,1807.036212875042,,,,,,,19,A,2024-08-29_09h22.31.716,EPIDM,2023.1.2,None,
5971.jpg,9912.jpg,5 Points,5 Points,573 Points,PS1_L10.csv,,,,,,,,,,,,,,,,,,,,,,,,,,,,,0,9,9,9,0,12,12,12,,,,,,,,,,,,,,,,,,,1811.2855290418956,p,1.1001341249793768,1812.4550696669612,,,,,,,19,A,2024-08-29_09h22.31.716,EPIDM,2023.1.2,None,
2520.jpg,8503.jpg,2 Points,2 Points,575 Points,PS1_L10.csv,,,,,,,,,,,,,,,,,,,,,,,,,,,,,0,9,9,9,0,13,13,13,,,,,,,,,,,,,,,,,,,1816.7028415000532,q,1.1483768331818283,1817.9325662089977,2,1.8134792500641197,,,,,19,A,2024-08-29_09h22.31.716,EPIDM,2023.1.2,None,
5480.jpg,8200.jpg,4 Points,4 Points,579 Points,PS1_L10.csv,,,,,,,,,,,,,,,,,,,,,,,,,,,,,0,9,9,9,0,14,14,14,,,,,,,,,,,,,,,,,,,1824.0570552919526,p,0.5524437921121716,1824.685676916968,,,,,,,19,A,2024-08-29_09h22.31.716,EPIDM,2023.1.2,None,
6370.jpg,1270.jpg,4 Points,4 Points,583 Points,PS1_L10.csv,,,,,,,,,,,,,,,,,,,,,,,,,,,,,0,9,9,9,0,15,15,15,,,,,,,,,,,,,,,,,,,1828.9157077919226,q,0.7011168331373483,1829.689045459032,,,,,,,19,A,2024-08-29_09h22.31.716,EPIDM,2023.1.2,None,
5130.jpg,1810.jpg,3 Points,3 Points,586 Points,PS1_L10.csv,,,,,,,,,,,,,,,,,,,,,,,,,,,,,0,9,9,9,0,16,16,16,,,,,,,,,,,,,,,,,,,1833.9286956670694,p,1.5920611249748617,1835.6022182090674,,,,,,,19,A,2024-08-29_09h22.31.716,EPIDM,2023.1.2,None,
4250.jpg,7060.jpg,5 Points,5 Points,591 Points,PS1_L10.csv,,,,,,,,,,,,,,,,,,,,,,,,,,,,,0,9,9,9,0,17,17,17,,,,,,,,,,,,,,,,,,,1839.8361547919922,q,1.33176758303307,1841.2450400840025,,,,,,,19,A,2024-08-29_09h22.31.716,EPIDM,2023.1.2,None,
9373.jpg,9410.jpg,0 Points,0 Points,591 Points,PS1_L10.csv,,,,,,,,,,,,,,,,,,,,,,,,,,,,,0,9,9,9,0,18,18,18,,,,,,,,,,,,,,,,,,,1845.4758039999288,p,1.101115417201072,1846.6475816669408,,,,,,,19,A,2024-08-29_09h22.31.716,EPIDM,2023.1.2,None,
2221.jpg,2270.jpg,2 Points,2 Points,593 Points,PS1_L10.csv,,,,,,,,,,,,,,,,,,,,,,,,,,,,,0,9,9,9,0,19,19,19,,,,,,,,,,,,,,,,,,,1850.8918381668627,q,2.236763375112787,1853.1848218340892,,,,,,,19,A,2024-08-29_09h22.31.716,EPIDM,2023.1.2,None,
1650.jpg,2130.jpg,1 Points,1 Points,594 Points,PS1_L10.csv,,,,,,,,,,,,,,,,,,,,,,,,,,,,,0,9,9,9,0,20,20,20,,,,,,,,,,,,,,,,,,,1857.4282090000343,p,1.0756157080177218,1858.5686850000639,,,,,,,19,A,2024-08-29_09h22.31.716,EPIDM,2023.1.2,None,
1280.jpg,9402.jpg,2 Points,2 Points,596 Points,PS1_L10.csv,,,,,,,,,,,,,,,,,,,,,,,,,,,,,0,9,9,9,0,21,21,21,,,,,,,,,,,,,,,,,,,1862.814144874923,p,1.7619987919460982,1864.644473458873,,,,,,,19,A,2024-08-29_09h22.31.716,EPIDM,2023.1.2,None,
2214.jpg,4500.jpg,3 Points,3 Points,599 Points,PS1_L10.csv,,,,,,,,,,,,,,,,,,,,,,,,,,,,,0,9,9,9,0,22,22,22,,,,,,,,,,,,,,,,,,,1868.8786075839307,p,0.9851137921214104,1869.9347924168687,,,,,,,19,A,2024-08-29_09h22.31.716,EPIDM,2023.1.2,None,
7284.jpg,8021.jpg,4 Points,4 Points,603 Points,PS1_L10.csv,,,,,,,,,,,,,,,,,,,,,,,,,,,,,0,9,9,9,0,23,23,23,,,,,,,,,,,,,,,,,,,1874.1653071250767,q,1.818043541163206,1876.0520591670647,,,1886.5398141669575,space,5.003094792133197,,19,A,2024-08-29_09h22.31.716,EPIDM,2023.1.2,None,
