L_Scene,R_Scene,Points_L,Points_R,PtTotal,blockFile,Instructions_Loop.thisRepN,Instructions_Loop.thisTrialN,Instructions_Loop.thisN,Instructions_Loop.thisIndex,Redo_Instructions_Loop.thisRepN,Redo_Instructions_Loop.thisTrialN,Redo_Instructions_Loop.thisN,Redo_Instructions_Loop.thisIndex,Practice_Encoding_Loop.thisRepN,Practice_Encoding_Loop.thisTrialN,Practice_Encoding_Loop.thisN,Practice_Encoding_Loop.thisIndex,Practice_Response_Fail_Loop.thisRepN,Practice_Response_Fail_Loop.thisTrialN,Practice_Response_Fail_Loop.thisN,Practice_Response_Fail_Loop.thisIndex,Practice_FB_Loop.thisRepN,Practice_FB_Loop.thisTrialN,Practice_FB_Loop.thisN,Practice_FB_Loop.thisIndex,Practice_Attention_Loop.thisRepN,Practice_Attention_Loop.thisTrialN,Practice_Attention_Loop.thisN,Practice_Attention_Loop.thisIndex,Practice_EncBrk_Loop.thisRepN,Practice_EncBrk_Loop.thisTrialN,Practice_EncBrk_Loop.thisN,Practice_EncBrk_Loop.thisIndex,Encoding_Loop.thisRepN,Encoding_Loop.thisTrialN,Encoding_Loop.thisN,Encoding_Loop.thisIndex,EncStim_Loop.thisRepN,EncStim_Loop.thisTrialN,EncStim_Loop.thisN,EncStim_Loop.thisIndex,Response_Fail_Loop.thisRepN,Response_Fail_Loop.thisTrialN,Response_Fail_Loop.thisN,Response_Fail_Loop.thisIndex,FB_Loop.thisRepN,FB_Loop.thisTrialN,FB_Loop.thisN,FB_Loop.thisIndex,Attention_Loop.thisRepN,Attention_Loop.thisTrialN,Attention_Loop.thisN,Attention_Loop.thisIndex,EncBrk_Loop.thisRepN,EncBrk_Loop.thisTrialN,EncBrk_Loop.thisN,EncBrk_Loop.thisIndex,Transition_Enc.keys,Transition_Enc.rt,Encoding_Resp.started,Encoding_Resp.keys,Encoding_Resp.rt,R_Point_FB_Stim.started,Attn_resp.keys,Attn_resp.rt,Progress_Tracker.started,EncBrk_Resp.keys,EncBrk_Resp.rt,Encoding_Resp.stopped,participant,Group,date,expName,psychopyVersion,frameRate,
,,,,,,,,,,,,,,,,,,,,,,,,,,,,,,,,,,,,,,,,,,,,,,,,,,,,,,,,,,space,6.043813208932988,,,,,,,,,,,158209,A,2024-06-27_11h14.18.383,EPIDM,2023.1.2,59.78864690199872,
A060.jpg,F041.jpg,5 Points,5 Points,5 Points,,,,,,,,,,0,0,0,0,,,,,,,,,,,,,,,,,,,,,,,,,,,,,,,,,,,,,,,,,,,1160.9217383329524,q,1.8900956680299714,1162.9574950829847,,,,,,,158209,A,2024-06-27_11h14.18.383,EPIDM,2023.1.2,59.78864690199872,
O161.jpg,1812.jpg,2 Points,2 Points,7 Points,,,,,,,,,,0,1,1,1,,,,,,,,,,,,,,,,,,,,,,,,,,,,,,,,,,,,,,,,,,,1167.1287498329766,p,0.9314463339978829,1168.200649623992,,,,,,,158209,A,2024-06-27_11h14.18.383,EPIDM,2023.1.2,59.78864690199872,
O013.jpg,A001.jpg,3 Points,3 Points,10 Points,,,,,,,,,,0,2,2,2,,,,,,,,,,,,,,,,,,,,,,,,,,,,,,,,,,,,,,,,,,,1172.3764191659866,p,1.9721244170796126,1174.5374520829646,,,,,,,158209,A,2024-06-27_11h14.18.383,EPIDM,2023.1.2,59.78864690199872,
P036.jpg,F273.jpg,5 Points,5 Points,15 Points,,,,,,,,,,0,3,3,3,,,,,,,,,,,,,,,,,,,,,,,,,,,,,,,,,,,,,,,,,,,1178.6782030409668,q,1.2854893750045449,1180.1389834579313,,,,,,,158209,A,2024-06-27_11h14.18.383,EPIDM,2023.1.2,59.78864690199872,
L130.jpg,2393.jpg,0 Points,0 Points,15 Points,,,,,,,,,,0,4,4,4,,,,,,,,,,,,,,,,,,,,,,,,,,,,,,,,,,,,,,,,,,,1184.290279165958,q,1.297099250019528,1185.7233217909234,0,3.701414500013925,,,,,158209,A,2024-06-27_11h14.18.383,EPIDM,2023.1.2,59.78864690199872,
F279.jpg,P033.jpg,3 Points,3 Points,18 Points,,,,,,,,,,0,5,5,5,,,,,,,,,,,,,,,,,,,,,,,,,,,,,,,,,,,,,,,,,,,1193.7127657909878,p,1.8980640419758856,1195.789608333027,,,,,,,158209,A,2024-06-27_11h14.18.383,EPIDM,2023.1.2,59.78864690199872,
A104.jpg,2593.jpg,2 Points,2 Points,20 Points,,,,,,,,,,0,6,6,6,,,,,,,,,,,,,,,,,,,,,,,,,,,,,,,,,,,,,,,,,,,1199.9296746660257,p,1.2263095430098474,1201.283147790935,,,,,,,158209,A,2024-06-27_11h14.18.383,EPIDM,2023.1.2,59.78864690199872,
2598.jpg,2605.jpg,0 Points,0 Points,20 Points,,,,,,,,,,0,7,7,7,,,,,,,,,,,,,,,,,,,,,,,,,,,,,,,,,,,,,,,,,,,1205.4637162910076,q,1.115532708936371,1206.6470479579875,,,,,,,158209,A,2024-06-27_11h14.18.383,EPIDM,2023.1.2,59.78864690199872,
L005.jpg,O011.jpg,1 Points,1 Points,21 Points,,,,,,,,,,0,8,8,8,,,,,,,,,,,,,,,,,,,,,,,,,,,,,,,,,,,,,,,,,,,1210.8954942909768,q,2.123711209045723,1213.1500296660233,,,,,,,158209,A,2024-06-27_11h14.18.383,EPIDM,2023.1.2,59.78864690199872,
8186.jpg,F078.jpg,2 Points,2 Points,23 Points,,,,,,,,,,0,9,9,9,,,,,,,,,,,,,,,,,,,,,,,,,,,,,,,,,,,,,,,,,,,1217.3352748330217,q,1.411746958969161,1218.8922184580006,2,2.227112125023268,1231.3711114579346,space,2.4160342089599,,158209,A,2024-06-27_11h14.18.383,EPIDM,2023.1.2,59.78864690199872,
,,,,,,,,,,,,,,,,,,,,,,,,,,,,,,,,,,,,,,,,,,,,,,,,,,,,,,,,,,space,2.5135650009615347,,,,,,,,,,,158209,A,2024-06-27_11h14.18.383,EPIDM,2023.1.2,59.78864690199872,
1019.jpg,2120.jpg,0 Points,0 Points,0 Points,PS1_L1.csv,,,,,,,,,,,,,,,,,,,,,,,,,,,,,0,0,0,0,0,0,0,0,,,,,,,,,,,,,,,,,,,1262.2085181239527,q,1.145527001004666,1263.470427207998,,,,,,,158209,A,2024-06-27_11h14.18.383,EPIDM,2023.1.2,59.78864690199872,
6900.jpg,8531.jpg,4 Points,4 Points,4 Points,PS1_L1.csv,,,,,,,,,,,,,,,,,,,,,,,,,,,,,0,0,0,0,0,1,1,1,,,,,,,,,,,,,,,,,,,1267.6815192080103,p,0.8889235839014873,1268.6463497079676,4,3.5502880420535803,,,,,158209,A,2024-06-27_11h14.18.383,EPIDM,2023.1.2,59.78864690199872,
5594.jpg,5750.jpg,5 Points,5 Points,9 Points,PS1_L1.csv,,,,,,,,,,,,,,,,,,,,,,,,,,,,,0,0,0,0,0,2,2,2,,,,,,,,,,,,,,,,,,,1276.5253448330332,p,1.5010071250144392,1278.102438041009,,,,,,,158209,A,2024-06-27_11h14.18.383,EPIDM,2023.1.2,59.78864690199872,
2205.jpg,3053.jpg,4 Points,4 Points,13 Points,PS1_L1.csv,,,,,,,,,,,,,,,,,,,,,,,,,,,,,0,0,0,0,0,3,3,3,,,,,,,,,,,,,,,,,,,1282.345570540987,q,2.3041624589823186,1284.7228302489966,,,,,,,158209,A,2024-06-27_11h14.18.383,EPIDM,2023.1.2,59.78864690199872,
3250.jpg,A053.jpg,3 Points,3 Points,16 Points,PS1_L1.csv,,,,,,,,,,,,,,,,,,,,,,,,,,,,,0,0,0,0,0,4,4,4,,,,,,,,,,,,,,,,,,,1288.9655767909717,q,1.5896774999564514,1290.6682586659444,,,,,,,158209,A,2024-06-27_11h14.18.383,EPIDM,2023.1.2,59.78864690199872,
7950.jpg,7187.jpg,1 Point,1 Point,17 Points,PS1_L1.csv,,,,,,,,,,,,,,,,,,,,,,,,,,,,,0,0,0,0,0,5,5,5,,,,,,,,,,,,,,,,,,,1294.884118832997,q,1.2219482919899747,1296.2060899159405,,,,,,,158209,A,2024-06-27_11h14.18.383,EPIDM,2023.1.2,59.78864690199872,
5535.jpg,8210.jpg,3 Points,3 Points,20 Points,PS1_L1.csv,,,,,,,,,,,,,,,,,,,,,,,,,,,,,0,0,0,0,0,6,6,6,,,,,,,,,,,,,,,,,,,1300.4223171659978,p,1.2282873339718208,1301.7104812079342,,,,,,,158209,A,2024-06-27_11h14.18.383,EPIDM,2023.1.2,59.78864690199872,
9001.jpg,9620.jpg,1 Point,1 Point,21 Points,PS1_L1.csv,,,,,,,,,,,,,,,,,,,,,,,,,,,,,0,0,0,0,0,7,7,7,,,,,,,,,,,,,,,,,,,1305.960402415949,q,2.4334918749518692,1308.4752262079855,,,,,,,158209,A,2024-06-27_11h14.18.383,EPIDM,2023.1.2,59.78864690199872,
1110.jpg,9331.jpg,2 Points,2 Points,23 Points,PS1_L1.csv,,,,,,,,,,,,,,,,,,,,,,,,,,,,,0,0,0,0,0,8,8,8,,,,,,,,,,,,,,,,,,,1312.7066911659203,q,1.5186574590625241,1314.3033126239898,,,,,,,158209,A,2024-06-27_11h14.18.383,EPIDM,2023.1.2,59.78864690199872,
7820.jpg,1121.jpg,0 Points,0 Points,23 Points,PS1_L1.csv,,,,,,,,,,,,,,,,,,,,,,,,,,,,,0,0,0,0,0,9,9,9,,,,,,,,,,,,,,,,,,,1318.5415242080344,p,1.539126333897002,1320.1576417909237,,,,,,,158209,A,2024-06-27_11h14.18.383,EPIDM,2023.1.2,59.78864690199872,
7186.jpg,9182.jpg,2 Points,2 Points,25 Points,PS1_L1.csv,,,,,,,,,,,,,,,,,,,,,,,,,,,,,0,0,0,0,0,10,10,10,,,,,,,,,,,,,,,,,,,1324.406885748962,q,1.9062637930037454,1326.389263582998,,,,,,,158209,A,2024-06-27_11h14.18.383,EPIDM,2023.1.2,59.78864690199872,
9280.jpg,9390.jpg,1 Point,1 Point,26 Points,PS1_L1.csv,,,,,,,,,,,,,,,,,,,,,,,,,,,,,0,0,0,0,0,11,11,11,,,,,,,,,,,,,,,,,,,1330.6252757490147,p,1.2559924179222435,1331.9558097909903,,,,,,,158209,A,2024-06-27_11h14.18.383,EPIDM,2023.1.2,59.78864690199872,
2440.jpg,7351.jpg,4 Points,4 Points,30 Points,PS1_L1.csv,,,,,,,,,,,,,,,,,,,,,,,,,,,,,0,0,0,0,0,12,12,12,,,,,,,,,,,,,,,,,,,1336.197021082975,p,1.5964210010133684,1337.8710536239669,,,,,,,158209,A,2024-06-27_11h14.18.383,EPIDM,2023.1.2,59.78864690199872,
6834.jpg,9120.jpg,5 Points,5 Points,35 Points,PS1_L1.csv,,,,,,,,,,,,,,,,,,,,,,,,,,,,,0,0,0,0,0,13,13,13,,,,,,,,,,,,,,,,,,,1342.1185734160244,p,2.772189209004864,1344.9560323329642,5,1.3086892509600148,,,,,158209,A,2024-06-27_11h14.18.383,EPIDM,2023.1.2,59.78864690199872,
9230.jpg,9181.jpg,0 Points,0 Points,35 Points,PS1_L1.csv,,,,,,,,,,,,,,,,,,,,,,,,,,,,,0,0,0,0,0,14,14,14,,,,,,,,,,,,,,,,,,,1350.5834563330282,q,2.256819084053859,1352.9007587080123,,,,,,,158209,A,2024-06-27_11h14.18.383,EPIDM,2023.1.2,59.78864690199872,
8260.jpg,8280.jpg,3 Points,3 Points,38 Points,PS1_L1.csv,,,,,,,,,,,,,,,,,,,,,,,,,,,,,0,0,0,0,0,15,15,15,,,,,,,,,,,,,,,,,,,1357.163992082933,p,1.7334101260639727,1358.962358165998,,,,,,,158209,A,2024-06-27_11h14.18.383,EPIDM,2023.1.2,59.78864690199872,
9470.jpg,9400.jpg,3 Points,3 Points,41 Points,PS1_L1.csv,,,,,,,,,,,,,,,,,,,,,,,,,,,,,0,0,0,0,0,16,16,16,,,,,,,,,,,,,,,,,,,1363.2105012909742,q,1.903105084085837,1365.1626737909392,,,,,,,158209,A,2024-06-27_11h14.18.383,EPIDM,2023.1.2,59.78864690199872,
2616.jpg,7238.jpg,4 Points,4 Points,45 Points,PS1_L1.csv,,,,,,,,,,,,,,,,,,,,,,,,,,,,,0,0,0,0,0,17,17,17,,,,,,,,,,,,,,,,,,,1369.4204193740152,q,1.5798326259246096,1371.0698601659387,,,,,,,158209,A,2024-06-27_11h14.18.383,EPIDM,2023.1.2,59.78864690199872,
9430.jpg,3010.jpg,5 Points,5 Points,50 Points,PS1_L1.csv,,,,,,,,,,,,,,,,,,,,,,,,,,,,,0,0,0,0,0,18,18,18,,,,,,,,,,,,,,,,,,,1375.326473249006,q,1.257544375024736,1376.6492944159545,,,,,,,158209,A,2024-06-27_11h14.18.383,EPIDM,2023.1.2,59.78864690199872,
1661.jpg,1321.jpg,3 Points,3 Points,53 Points,PS1_L1.csv,,,,,,,,,,,,,,,,,,,,,,,,,,,,,0,0,0,0,0,19,19,19,,,,,,,,,,,,,,,,,,,1380.899630208034,q,1.348694666987285,1382.3136915409705,,,,,,,158209,A,2024-06-27_11h14.18.383,EPIDM,2023.1.2,59.78864690199872,
8041.jpg,2271.jpg,2 Points,2 Points,55 Points,PS1_L1.csv,,,,,,,,,,,,,,,,,,,,,,,,,,,,,0,0,0,0,0,20,20,20,,,,,,,,,,,,,,,,,,,1386.572120332974,q,1.188203293015249,1387.8212801240152,,,,,,,158209,A,2024-06-27_11h14.18.383,EPIDM,2023.1.2,59.78864690199872,
9180.jpg,9046.jpg,3 Points,3 Points,58 Points,PS1_L1.csv,,,,,,,,,,,,,,,,,,,,,,,,,,,,,0,0,0,0,0,21,21,21,,,,,,,,,,,,,,,,,,,1392.0755532489857,p,1.5244631259702146,1393.6689108329592,,,,,,,158209,A,2024-06-27_11h14.18.383,EPIDM,2023.1.2,59.78864690199872,
2691.jpg,7640.jpg,0 Points,0 Points,58 Points,PS1_L1.csv,,,,,,,,,,,,,,,,,,,,,,,,,,,,,0,0,0,0,0,22,22,22,,,,,,,,,,,,,,,,,,,1397.9222991239512,p,1.3256843340350315,1399.3066972489469,,,,,,,158209,A,2024-06-27_11h14.18.383,EPIDM,2023.1.2,59.78864690199872,
1660.jpg,2840.jpg,2 Points,2 Points,60 Points,PS1_L1.csv,,,,,,,,,,,,,,,,,,,,,,,,,,,,,0,0,0,0,0,23,23,23,,,,,,,,,,,,,,,,,,,1403.5656913330313,p,1.193820499931462,1404.8313424160006,,,1415.3152450409252,space,9.891095041995868,,158209,A,2024-06-27_11h14.18.383,EPIDM,2023.1.2,59.78864690199872,
9480.jpg,9250.jpg,0 Points,0 Points,60 Points,PS1_L2.csv,,,,,,,,,,,,,,,,,,,,,,,,,,,,,0,1,1,1,0,0,0,0,,,,,,,,,,,,,,,,,,,1428.5215192909818,q,1.8457270419457927,1430.42522937397,,,,,,,158209,A,2024-06-27_11h14.18.383,EPIDM,2023.1.2,59.78864690199872,
9910.jpg,6940.jpg,2 Points,2 Points,62 Points,PS1_L2.csv,,,,,,,,,,,,,,,,,,,,,,,,,,,,,0,1,1,1,0,1,1,1,,,,,,,,,,,,,,,,,,,1434.6789478330174,q,1.672749293036759,1436.407920083031,2,1.8281309170415625,,,,,158209,A,2024-06-27_11h14.18.383,EPIDM,2023.1.2,59.78864690199872,
4535.jpg,1811.jpg,1 Point,1 Point,63 Points,PS1_L2.csv,,,,,,,,,,,,,,,,,,,,,,,,,,,,,0,1,1,1,0,2,2,2,,,,,,,,,,,,,,,,,,,1442.551234790939,p,2.927725708927028,1445.554065290955,,,,,,,158209,A,2024-06-27_11h14.18.383,EPIDM,2023.1.2,59.78864690199872,
2020.jpg,1947.jpg,5 Points,5 Points,68 Points,PS1_L2.csv,,,,,,,,,,,,,,,,,,,,,,,,,,,,,0,1,1,1,0,3,3,3,,,,,,,,,,,,,,,,,,,1449.8012417909922,p,1.492894833907485,1451.372919040965,,,,,,,158209,A,2024-06-27_11h14.18.383,EPIDM,2023.1.2,59.78864690199872,
9160.jpg,1200.jpg,4 Points,4 Points,72 Points,PS1_L2.csv,,,,,,,,,,,,,,,,,,,,,,,,,,,,,0,1,1,1,0,4,4,4,,,,,,,,,,,,,,,,,,,1455.6237384580309,p,1.1590879999566823,1456.86343191599,,,,,,,158209,A,2024-06-27_11h14.18.383,EPIDM,2023.1.2,59.78864690199872,
9520.jpg,1931.jpg,3 Points,3 Points,75 Points,PS1_L2.csv,,,,,,,,,,,,,,,,,,,,,,,,,,,,,0,1,1,1,0,5,5,5,,,,,,,,,,,,,,,,,,,1461.101979332976,p,1.1841348339803517,1462.3602177079301,,,,,,,158209,A,2024-06-27_11h14.18.383,EPIDM,2023.1.2,59.78864690199872,
7830.jpg,2499.jpg,3 Points,3 Points,78 Points,PS1_L2.csv,,,,,,,,,,,,,,,,,,,,,,,,,,,,,0,1,1,1,0,6,6,6,,,,,,,,,,,,,,,,,,,1466.604192623985,q,1.2032661678967997,1467.8778008739464,,,,,,,158209,A,2024-06-27_11h14.18.383,EPIDM,2023.1.2,59.78864690199872,
6830.jpg,6212.jpg,4 Points,4 Points,82 Points,PS1_L2.csv,,,,,,,,,,,,,,,,,,,,,,,,,,,,,0,1,1,1,0,7,7,7,,,,,,,,,,,,,,,,,,,1472.1414777910104,p,1.4332887090276927,1473.649027373991,,,,,,,158209,A,2024-06-27_11h14.18.383,EPIDM,2023.1.2,59.78864690199872,
7285.jpg,4233.jpg,5 Points,5 Points,87 Points,PS1_L2.csv,,,,,,,,,,,,,,,,,,,,,,,,,,,,,0,1,1,1,0,8,8,8,,,,,,,,,,,,,,,,,,,1477.903696082998,q,1.9029867500066757,1479.8748308329377,,,,,,,158209,A,2024-06-27_11h14.18.383,EPIDM,2023.1.2,59.78864690199872,
1740.jpg,7480.jpg,0 Points,0 Points,87 Points,PS1_L2.csv,,,,,,,,,,,,,,,,,,,,,,,,,,,,,0,1,1,1,0,9,9,9,,,,,,,,,,,,,,,,,,,1484.124087373959,p,1.1609851670218632,1485.3638377910247,,,,,,,158209,A,2024-06-27_11h14.18.383,EPIDM,2023.1.2,59.78864690199872,
7380.jpg,1220.jpg,1 Point,1 Point,88 Points,PS1_L2.csv,,,,,,,,,,,,,,,,,,,,,,,,,,,,,0,1,1,1,0,10,10,10,,,,,,,,,,,,,,,,,,,1489.6033600409282,q,2.4824846260016784,1492.1519745410187,,,,,,,158209,A,2024-06-27_11h14.18.383,EPIDM,2023.1.2,59.78864690199872,
3061.jpg,2717.jpg,4 Points,4 Points,92 Points,PS1_L2.csv,,,,,,,,,,,,,,,,,,,,,,,,,,,,,0,1,1,1,0,11,11,11,,,,,,,,,,,,,,,,,,,1496.3989408329362,p,2.574925167951733,1499.0331445409684,,,,,,,158209,A,2024-06-27_11h14.18.383,EPIDM,2023.1.2,59.78864690199872,
5460.jpg,5800.jpg,0 Points,0 Points,92 Points,PS1_L2.csv,,,,,,,,,,,,,,,,,,,,,,,,,,,,,0,1,1,1,0,12,12,12,,,,,,,,,,,,,,,,,,,1503.2874351239298,p,1.2065653760218993,1504.568123832927,,,,,,,158209,A,2024-06-27_11h14.18.383,EPIDM,2023.1.2,59.78864690199872,
2215.jpg,2512.jpg,1 Point,1 Point,93 Points,PS1_L2.csv,,,,,,,,,,,,,,,,,,,,,,,,,,,,,0,1,1,1,0,13,13,13,,,,,,,,,,,,,,,,,,,1508.8110859580338,p,1.2987529590027407,1510.179366291035,1,1.162919083959423,,,,,158209,A,2024-06-27_11h14.18.383,EPIDM,2023.1.2,59.78864690199872,
3000.jpg,6200.jpg,5 Points,5 Points,98 Points,PS1_L2.csv,,,,,,,,,,,,,,,,,,,,,,,,,,,,,0,1,1,1,0,14,14,14,,,,,,,,,,,,,,,,,,,1515.6563168739667,p,2.06893808406312,1517.8034773329273,,,,,,,158209,A,2024-06-27_11h14.18.383,EPIDM,2023.1.2,59.78864690199872,
1945.jpg,2800.jpg,4 Points,4 Points,102 Points,PS1_L2.csv,,,,,,,,,,,,,,,,,,,,,,,,,,,,,0,1,1,1,0,15,15,15,,,,,,,,,,,,,,,,,,,1522.0399354579858,q,3.0861047509824857,1525.1966354160104,,,,,,,158209,A,2024-06-27_11h14.18.383,EPIDM,2023.1.2,59.78864690199872,
5660.jpg,5201.jpg,0 Points,0 Points,102 Points,PS1_L2.csv,,,,,,,,,,,,,,,,,,,,,,,,,,,,,0,1,1,1,0,16,16,16,,,,,,,,,,,,,,,,,,,1529.4334365410032,p,1.2204105430282652,1530.728269290994,,,,,,,158209,A,2024-06-27_11h14.18.383,EPIDM,2023.1.2,59.78864690199872,
3266.jpg,7360.jpg,1 Point,1 Point,103 Points,PS1_L2.csv,,,,,,,,,,,,,,,,,,,,,,,,,,,,,0,1,1,1,0,17,17,17,,,,,,,,,,,,,,,,,,,1534.9772480829852,p,1.5240908761043102,1536.5791907079984,,,,,,,158209,A,2024-06-27_11h14.18.383,EPIDM,2023.1.2,59.78864690199872,
F149.jpg,3030.jpg,0 Points,0 Points,103 Points,PS1_L2.csv,,,,,,,,,,,,,,,,,,,,,,,,,,,,,0,1,1,1,0,18,18,18,,,,,,,,,,,,,,,,,,,1540.822661333019,q,1.7829363759374246,1542.7164109159494,,,,,,,158209,A,2024-06-27_11h14.18.383,EPIDM,2023.1.2,59.78864690199872,
5410.jpg,1450.jpg,5 Points,5 Points,108 Points,PS1_L2.csv,,,,,,,,,,,,,,,,,,,,,,,,,,,,,0,1,1,1,0,19,19,19,,,,,,,,,,,,,,,,,,,1546.9294496240327,p,1.2599037090549245,1548.2983808330027,,,,,,,158209,A,2024-06-27_11h14.18.383,EPIDM,2023.1.2,59.78864690199872,
9101.jpg,9571.jpg,2 Points,2 Points,110 Points,PS1_L2.csv,,,,,,,,,,,,,,,,,,,,,,,,,,,,,0,1,1,1,0,20,20,20,,,,,,,,,,,,,,,,,,,1552.5092406659387,q,2.6717201670398936,1555.2347079989268,,,,,,,158209,A,2024-06-27_11h14.18.383,EPIDM,2023.1.2,59.78864690199872,
9110.jpg,3051.jpg,1 Point,1 Point,111 Points,PS1_L2.csv,,,,,,,,,,,,,,,,,,,,,,,,,,,,,0,1,1,1,0,21,21,21,,,,,,,,,,,,,,,,,,,1559.5029634989332,q,1.742113751010038,1561.3156605829718,,,,,,,158209,A,2024-06-27_11h14.18.383,EPIDM,2023.1.2,59.78864690199872,
2100.jpg,7205.jpg,5 Points,5 Points,116 Points,PS1_L2.csv,,,,,,,,,,,,,,,,,,,,,,,,,,,,,0,1,1,1,0,22,22,22,,,,,,,,,,,,,,,,,,,1565.5519183329307,p,1.2365359170362353,1566.867950957967,,,,,,,158209,A,2024-06-27_11h14.18.383,EPIDM,2023.1.2,59.78864690199872,
3160.jpg,6210.jpg,1 Point,1 Point,117 Points,PS1_L2.csv,,,,,,,,,,,,,,,,,,,,,,,,,,,,,0,1,1,1,0,23,23,23,,,,,,,,,,,,,,,,,,,1571.11268583301,q,1.9881073760334402,1573.182990915957,,,1583.7155329579255,space,21.337044333922677,,158209,A,2024-06-27_11h14.18.383,EPIDM,2023.1.2,59.78864690199872,
7283.jpg,1720.jpg,4 Points,4 Points,121 Points,PS1_L3.csv,,,,,,,,,,,,,,,,,,,,,,,,,,,,,0,2,2,2,0,0,0,0,,,,,,,,,,,,,,,,,,,1608.3680076659657,p,0.8435124589595944,1609.2825739990221,,,,,,,158209,A,2024-06-27_11h14.18.383,EPIDM,2023.1.2,59.78864690199872,
6571.jpg,P237.jpg,2 Points,2 Points,123 Points,PS1_L3.csv,,,,,,,,,,,,,,,,,,,,,,,,,,,,,0,2,2,2,0,1,1,1,,,,,,,,,,,,,,,,,,,1613.5386796239763,q,1.5608724589692429,1615.2144529159414,2,1.9269611260388047,,,,,158209,A,2024-06-27_11h14.18.383,EPIDM,2023.1.2,59.78864690199872,
6260.jpg,3062.jpg,3 Points,3 Points,126 Points,PS1_L3.csv,,,,,,,,,,,,,,,,,,,,,,,,,,,,,0,2,2,2,0,2,2,2,,,,,,,,,,,,,,,,,,,1621.4652167080203,q,1.154316168045625,1622.7278021660168,,,,,,,158209,A,2024-06-27_11h14.18.383,EPIDM,2023.1.2,59.78864690199872,
6150.jpg,2206.jpg,0 Points,0 Points,126 Points,PS1_L3.csv,,,,,,,,,,,,,,,,,,,,,,,,,,,,,0,2,2,2,0,3,3,3,,,,,,,,,,,,,,,,,,,1626.9328550409991,q,1.341942458995618,1628.35258066596,,,,,,,158209,A,2024-06-27_11h14.18.383,EPIDM,2023.1.2,59.78864690199872,
9300.jpg,1050.jpg,4 Points,4 Points,130 Points,PS1_L3.csv,,,,,,,,,,,,,,,,,,,,,,,,,,,,,0,2,2,2,0,4,4,4,,,,,,,,,,,,,,,,,,,1632.5946356239729,p,1.528337500989437,1634.188142583007,,,,,,,158209,A,2024-06-27_11h14.18.383,EPIDM,2023.1.2,59.78864690199872,
F365.jpg,3180.jpg,5 Points,5 Points,135 Points,PS1_L3.csv,,,,,,,,,,,,,,,,,,,,,,,,,,,,,0,2,2,2,0,5,5,5,,,,,,,,,,,,,,,,,,,1638.4381800410338,p,1.500539084081538,1640.0410150409443,,,,,,,158209,A,2024-06-27_11h14.18.383,EPIDM,2023.1.2,59.78864690199872,
2320.jpg,2791.jpg,4 Points,4 Points,139 Points,PS1_L3.csv,,,,,,,,,,,,,,,,,,,,,,,,,,,,,0,2,2,2,0,6,6,6,,,,,,,,,,,,,,,,,,,1644.265739999013,q,1.657398251001723,1645.9999343330273,,,,,,,158209,A,2024-06-27_11h14.18.383,EPIDM,2023.1.2,59.78864690199872,
8311.jpg,4609.jpg,2 Points,2 Points,141 Points,PS1_L3.csv,,,,,,,,,,,,,,,,,,,,,,,,,,,,,0,2,2,2,0,7,7,7,,,,,,,,,,,,,,,,,,,1650.2440205829917,q,1.5428503339644521,1651.8551292489283,,,,,,,158209,A,2024-06-27_11h14.18.383,EPIDM,2023.1.2,59.78864690199872,
9042.jpg,2753.jpg,0 Points,0 Points,141 Points,PS1_L3.csv,,,,,,,,,,,,,,,,,,,,,,,,,,,,,0,2,2,2,0,8,8,8,,,,,,,,,,,,,,,,,,,1656.1075331659522,q,2.3351054589729756,1658.5067924159812,,,,,,,158209,A,2024-06-27_11h14.18.383,EPIDM,2023.1.2,59.78864690199872,
5471.jpg,7352.jpg,2 Points,2 Points,143 Points,PS1_L3.csv,,,,,,,,,,,,,,,,,,,,,,,,,,,,,0,2,2,2,0,9,9,9,,,,,,,,,,,,,,,,,,,1662.757219666033,q,1.7973105419659987,1664.6250077079749,,,,,,,158209,A,2024-06-27_11h14.18.383,EPIDM,2023.1.2,59.78864690199872,
P222.jpg,9401.jpg,2 Points,2 Points,145 Points,PS1_L3.csv,,,,,,,,,,,,,,,,,,,,,,,,,,,,,0,2,2,2,0,10,10,10,,,,,,,,,,,,,,,,,,,1668.8794334579725,p,3.1707525009987876,1672.1562859989936,,,,,,,158209,A,2024-06-27_11h14.18.383,EPIDM,2023.1.2,59.78864690199872,
1610.jpg,F203.jpg,0 Points,0 Points,145 Points,PS1_L3.csv,,,,,,,,,,,,,,,,,,,,,,,,,,,,,0,2,2,2,0,11,11,11,,,,,,,,,,,,,,,,,,,1676.3657497490058,q,1.3727187509648502,1677.8631029989338,,,,,,,158209,A,2024-06-27_11h14.18.383,EPIDM,2023.1.2,59.78864690199872,
9405.jpg,6250.2.jpg,3 Points,3 Points,148 Points,PS1_L3.csv,,,,,,,,,,,,,,,,,,,,,,,,,,,,,0,2,2,2,0,12,12,12,,,,,,,,,,,,,,,,,,,1682.06082891603,p,2.2131695839343593,1684.357516665943,,,,,,,158209,A,2024-06-27_11h14.18.383,EPIDM,2023.1.2,59.78864690199872,
1090.jpg,P217.jpg,5 Points,5 Points,153 Points,PS1_L3.csv,,,,,,,,,,,,,,,,,,,,,,,,,,,,,0,2,2,2,0,13,13,13,,,,,,,,,,,,,,,,,,,1688.5956789159682,q,2.2622638759203255,1690.9648601239314,5,1.3873973760055378,,,,,158209,A,2024-06-27_11h14.18.383,EPIDM,2023.1.2,59.78864690199872,
P233.jpg,3060.jpg,1 Point,1 Point,154 Points,PS1_L3.csv,,,,,,,,,,,,,,,,,,,,,,,,,,,,,0,2,2,2,0,14,14,14,,,,,,,,,,,,,,,,,,,1696.6611287490232,q,2.229054959025234,1699.0261753329542,,,,,,,158209,A,2024-06-27_11h14.18.383,EPIDM,2023.1.2,59.78864690199872,
8040.jpg,7185.jpg,1 Point,1 Point,155 Points,PS1_L3.csv,,,,,,,,,,,,,,,,,,,,,,,,,,,,,0,2,2,2,0,15,15,15,,,,,,,,,,,,,,,,,,,1703.2095018329564,q,1.5201090429909527,1704.8046390409581,,,,,,,158209,A,2024-06-27_11h14.18.383,EPIDM,2023.1.2,59.78864690199872,
6550.jpg,9582.jpg,5 Points,5 Points,160 Points,PS1_L3.csv,,,,,,,,,,,,,,,,,,,,,,,,,,,,,0,2,2,2,0,16,16,16,,,,,,,,,,,,,,,,,,,1709.043139416026,p,1.9580781259573996,1711.071757123922,,,,,,,158209,A,2024-06-27_11h14.18.383,EPIDM,2023.1.2,59.78864690199872,
P077.jpg,A041.jpg,1 Point,1 Point,161 Points,PS1_L3.csv,,,,,,,,,,,,,,,,,,,,,,,,,,,,,0,2,2,2,0,17,17,17,,,,,,,,,,,,,,,,,,,1715.3123762489995,q,2.424531917902641,1717.8709008740261,,,,,,,158209,A,2024-06-27_11h14.18.383,EPIDM,2023.1.2,59.78864690199872,
4770.jpg,4275.jpg,3 Points,3 Points,164 Points,PS1_L3.csv,,,,,,,,,,,,,,,,,,,,,,,,,,,,,0,2,2,2,0,18,18,18,,,,,,,,,,,,,,,,,,,1722.059285416035,p,1.7182640429819003,1723.89217645803,,,,,,,158209,A,2024-06-27_11h14.18.383,EPIDM,2023.1.2,59.78864690199872,
9594.jpg,1080.jpg,4 Points,4 Points,168 Points,PS1_L3.csv,,,,,,,,,,,,,,,,,,,,,,,,,,,,,0,2,2,2,0,19,19,19,,,,,,,,,,,,,,,,,,,1728.098759207991,p,1.3745358760934323,1729.5502548739314,,,,,,,158209,A,2024-06-27_11h14.18.383,EPIDM,2023.1.2,59.78864690199872,
2606.jpg,2480.jpg,1 Point,1 Point,169 Points,PS1_L3.csv,,,,,,,,,,,,,,,,,,,,,,,,,,,,,0,2,2,2,0,20,20,20,,,,,,,,,,,,,,,,,,,1733.7829357489245,q,1.6023290839511901,1735.453689332935,,,,,,,158209,A,2024-06-27_11h14.18.383,EPIDM,2023.1.2,59.78864690199872,
1052.jpg,1201.jpg,3 Points,3 Points,172 Points,PS1_L3.csv,,,,,,,,,,,,,,,,,,,,,,,,,,,,,0,2,2,2,0,21,21,21,,,,,,,,,,,,,,,,,,,1739.7021408739965,p,1.4190372918965295,1741.1934878739994,,,,,,,158209,A,2024-06-27_11h14.18.383,EPIDM,2023.1.2,59.78864690199872,
F369.jpg,3100.jpg,2 Points,2 Points,174 Points,PS1_L3.csv,,,,,,,,,,,,,,,,,,,,,,,,,,,,,0,2,2,2,0,22,22,22,,,,,,,,,,,,,,,,,,,1745.44180487399,q,1.5432027509668842,1747.087266291026,,,,,,,158209,A,2024-06-27_11h14.18.383,EPIDM,2023.1.2,59.78864690199872,
2620.jpg,2594.jpg,0 Points,0 Points,174 Points,PS1_L3.csv,,,,,,,,,,,,,,,,,,,,,,,,,,,,,0,2,2,2,0,23,23,23,,,,,,,,,,,,,,,,,,,1751.2999713330064,p,1.43698175100144,1752.829313123948,,,1763.2994132909225,space,18.628628417034633,,158209,A,2024-06-27_11h14.18.383,EPIDM,2023.1.2,59.78864690199872,
P019.jpg,F158.jpg,3 Points,3 Points,177 Points,PS1_L4.csv,,,,,,,,,,,,,,,,,,,,,,,,,,,,,0,3,3,3,0,0,0,0,,,,,,,,,,,,,,,,,,,1785.247299624025,p,1.3511727510485798,1786.7384854579577,,,,,,,158209,A,2024-06-27_11h14.18.383,EPIDM,2023.1.2,59.78864690199872,
7620.jpg,5395.jpg,1 Point,1 Point,178 Points,PS1_L4.csv,,,,,,,,,,,,,,,,,,,,,,,,,,,,,0,3,3,3,0,1,1,1,,,,,,,,,,,,,,,,,,,1790.9215334160253,q,1.543379126000218,1792.5639971239725,1,1.193667000043206,,,,,158209,A,2024-06-27_11h14.18.383,EPIDM,2023.1.2,59.78864690199872,
5970.jpg,3300.jpg,0 Points,0 Points,178 Points,PS1_L4.csv,,,,,,,,,,,,,,,,,,,,,,,,,,,,,0,3,3,3,0,2,2,2,,,,,,,,,,,,,,,,,,,1798.0510520410025,q,1.6138424590462819,1799.7292673329357,,,,,,,158209,A,2024-06-27_11h14.18.383,EPIDM,2023.1.2,59.78864690199872,
5120.jpg,5520.jpg,2 Points,2 Points,180 Points,PS1_L4.csv,,,,,,,,,,,,,,,,,,,,,,,,,,,,,0,3,3,3,0,3,3,3,,,,,,,,,,,,,,,,,,,1803.984422249021,p,1.2632068340899423,1805.3200367910322,,,,,,,158209,A,2024-06-27_11h14.18.383,EPIDM,2023.1.2,59.78864690199872,
9452.jpg,7184.jpg,4 Points,4 Points,184 Points,PS1_L4.csv,,,,,,,,,,,,,,,,,,,,,,,,,,,,,0,3,3,3,0,4,4,4,,,,,,,,,,,,,,,,,,,1809.5602608330082,p,2.7745883339084685,1812.4156102079432,,,,,,,158209,A,2024-06-27_11h14.18.383,EPIDM,2023.1.2,59.78864690199872,
6570.1.jpg,9432.jpg,5 Points,5 Points,189 Points,PS1_L4.csv,,,,,,,,,,,,,,,,,,,,,,,,,,,,,0,3,3,3,0,5,5,5,,,,,,,,,,,,,,,,,,,1816.6567426240072,p,2.070002208929509,1818.7985090409638,,,,,,,158209,A,2024-06-27_11h14.18.383,EPIDM,2023.1.2,59.78864690199872,
2389.jpg,7320.jpg,0 Points,0 Points,189 Points,PS1_L4.csv,,,,,,,,,,,,,,,,,,,,,,,,,,,,,0,3,3,3,0,6,6,6,,,,,,,,,,,,,,,,,,,1823.0535197489662,p,1.5610863339388743,1824.6994064579485,,,,,,,158209,A,2024-06-27_11h14.18.383,EPIDM,2023.1.2,59.78864690199872,
9330.jpg,3015.jpg,5 Points,5 Points,194 Points,PS1_L4.csv,,,,,,,,,,,,,,,,,,,,,,,,,,,,,0,3,3,3,0,7,7,7,,,,,,,,,,,,,,,,,,,1828.9375856659608,q,2.813277125940658,1831.8251204160042,,,,,,,158209,A,2024-06-27_11h14.18.383,EPIDM,2023.1.2,59.78864690199872,
9560.jpg,3071.jpg,1 Point,1 Point,195 Points,PS1_L4.csv,,,,,,,,,,,,,,,,,,,,,,,,,,,,,0,3,3,3,0,8,8,8,,,,,,,,,,,,,,,,,,,1836.073264457984,q,2.4214873340679333,1838.5575707079843,,,,,,,158209,A,2024-06-27_11h14.18.383,EPIDM,2023.1.2,59.78864690199872,
5994.jpg,5390.jpg,0 Points,0 Points,195 Points,PS1_L4.csv,,,,,,,,,,,,,,,,,,,,,,,,,,,,,0,3,3,3,0,9,9,9,,,,,,,,,,,,,,,,,,,1842.8114873740124,p,1.3798459169920534,1844.2465699160239,,,,,,,158209,A,2024-06-27_11h14.18.383,EPIDM,2023.1.2,59.78864690199872,
2692.jpg,8231.jpg,4 Points,4 Points,199 Points,PS1_L4.csv,,,,,,,,,,,,,,,,,,,,,,,,,,,,,0,3,3,3,0,10,10,10,,,,,,,,,,,,,,,,,,,1848.5093429159606,p,2.208400167990476,1850.7770761660067,,,,,,,158209,A,2024-06-27_11h14.18.383,EPIDM,2023.1.2,59.78864690199872,
F174.jpg,9404.jpg,5 Points,5 Points,204 Points,PS1_L4.csv,,,,,,,,,,,,,,,,,,,,,,,,,,,,,0,3,3,3,0,11,11,11,,,,,,,,,,,,,,,,,,,1855.0363067080034,q,1.8424596259137616,1856.9613448330201,,,,,,,158209,A,2024-06-27_11h14.18.383,EPIDM,2023.1.2,59.78864690199872,
8010.jpg,2630.jpg,0 Points,0 Points,204 Points,PS1_L4.csv,,,,,,,,,,,,,,,,,,,,,,,,,,,,,0,3,3,3,0,12,12,12,,,,,,,,,,,,,,,,,,,1861.1922068740241,p,1.7660934999585152,1863.0731706660008,,,,,,,158209,A,2024-06-27_11h14.18.383,EPIDM,2023.1.2,59.78864690199872,
7175.jpg,7490.jpg,2 Points,2 Points,206 Points,PS1_L4.csv,,,,,,,,,,,,,,,,,,,,,,,,,,,,,0,3,3,3,0,13,13,13,,,,,,,,,,,,,,,,,,,1867.2758563329699,p,1.4098036249633878,1868.7599779160228,2,1.8024108340032399,,,,,158209,A,2024-06-27_11h14.18.383,EPIDM,2023.1.2,59.78864690199872,
6561.jpg,1525.jpg,2 Points,2 Points,208 Points,PS1_L4.csv,,,,,,,,,,,,,,,,,,,,,,,,,,,,,0,3,3,3,0,14,14,14,,,,,,,,,,,,,,,,,,,1874.8697691659909,p,1.74412437598221,1876.682696957956,,,,,,,158209,A,2024-06-27_11h14.18.383,EPIDM,2023.1.2,59.78864690199872,
9070.jpg,9420.jpg,2 Points,2 Points,210 Points,PS1_L4.csv,,,,,,,,,,,,,,,,,,,,,,,,,,,,,0,3,3,3,0,15,15,15,,,,,,,,,,,,,,,,,,,1880.935607832973,q,1.245357875013724,1882.2350474579725,,,,,,,158209,A,2024-06-27_11h14.18.383,EPIDM,2023.1.2,59.78864690199872,
2516.jpg,8500.jpg,4 Points,4 Points,214 Points,PS1_L4.csv,,,,,,,,,,,,,,,,,,,,,,,,,,,,,0,3,3,3,0,16,16,16,,,,,,,,,,,,,,,,,,,1886.4913205829216,p,1.2255856250412762,1887.7959562489996,,,,,,,158209,A,2024-06-27_11h14.18.383,EPIDM,2023.1.2,59.78864690199872,
9140.jpg,2810.jpg,3 Points,3 Points,217 Points,PS1_L4.csv,,,,,,,,,,,,,,,,,,,,,,,,,,,,,0,3,3,3,0,17,17,17,,,,,,,,,,,,,,,,,,,1892.0483803739771,p,1.1081052919616923,1893.2225928739645,,,,,,,158209,A,2024-06-27_11h14.18.383,EPIDM,2023.1.2,59.78864690199872,
7220.jpg,8090.jpg,2 Points,2 Points,219 Points,PS1_L4.csv,,,,,,,,,,,,,,,,,,,,,,,,,,,,,0,3,3,3,0,18,18,18,,,,,,,,,,,,,,,,,,,1897.4820415829308,p,1.635602833935991,1899.1930201239884,,,,,,,158209,A,2024-06-27_11h14.18.383,EPIDM,2023.1.2,59.78864690199872,
2661.jpg,2870.jpg,5 Points,5 Points,224 Points,PS1_L4.csv,,,,,,,,,,,,,,,,,,,,,,,,,,,,,0,3,3,3,0,19,19,19,,,,,,,,,,,,,,,,,,,1903.445620915969,p,2.2796936261001974,1905.7839241239708,,,,,,,158209,A,2024-06-27_11h14.18.383,EPIDM,2023.1.2,59.78864690199872,
6010.jpg,7361.jpg,2 Points,2 Points,226 Points,PS1_L4.csv,,,,,,,,,,,,,,,,,,,,,,,,,,,,,0,3,3,3,0,20,20,20,,,,,,,,,,,,,,,,,,,1910.0429527079687,q,2.836478292942047,1912.9453992079943,,,,,,,158209,A,2024-06-27_11h14.18.383,EPIDM,2023.1.2,59.78864690199872,
7289.jpg,4534.jpg,0 Points,0 Points,226 Points,PS1_L4.csv,,,,,,,,,,,,,,,,,,,,,,,,,,,,,0,3,3,3,0,21,21,21,,,,,,,,,,,,,,,,,,,1917.1940877910238,p,1.4354208749718964,1918.7128146659816,,,,,,,158209,A,2024-06-27_11h14.18.383,EPIDM,2023.1.2,59.78864690199872,
1310.jpg,3181.jpg,4 Points,4 Points,230 Points,PS1_L4.csv,,,,,,,,,,,,,,,,,,,,,,,,,,,,,0,3,3,3,0,22,22,22,,,,,,,,,,,,,,,,,,,1922.9515767489793,q,1.5011767920805141,1924.5170463739196,,,,,,,158209,A,2024-06-27_11h14.18.383,EPIDM,2023.1.2,59.78864690199872,
2383.jpg,1616.jpg,2 Points,2 Points,232 Points,PS1_L4.csv,,,,,,,,,,,,,,,,,,,,,,,,,,,,,0,3,3,3,0,23,23,23,,,,,,,,,,,,,,,,,,,1928.771325165988,q,1.6491575429681689,1930.4951971659902,,,1940.9911805830197,space,22.804862251039594,,158209,A,2024-06-27_11h14.18.383,EPIDM,2023.1.2,59.78864690199872,
4510.jpg,2230.jpg,5 Points,5 Points,237 Points,PS1_L5.csv,,,,,,,,,,,,,,,,,,,,,,,,,,,,,0,4,4,4,0,0,0,0,,,,,,,,,,,,,,,,,,,1967.1172585409367,q,1.2383812089683488,1968.4411120410077,,,,,,,158209,A,2024-06-27_11h14.18.383,EPIDM,2023.1.2,59.78864690199872,
A025.jpg,1051.jpg,0 Points,0 Points,237 Points,PS1_L5.csv,,,,,,,,,,,,,,,,,,,,,,,,,,,,,0,4,4,4,0,1,1,1,,,,,,,,,,,,,,,,,,,1972.697292833007,p,1.2023262090515345,1974.0348788329866,0,1.5681386260548607,,,,,158209,A,2024-06-27_11h14.18.383,EPIDM,2023.1.2,59.78864690199872,
7002.jpg,4660.jpg,4 Points,4 Points,241 Points,PS1_L5.csv,,,,,,,,,,,,,,,,,,,,,,,,,,,,,0,4,4,4,0,2,2,2,,,,,,,,,,,,,,,,,,,1979.9068739989307,p,2.5283977510407567,1982.5495856659254,,,,,,,158209,A,2024-06-27_11h14.18.383,EPIDM,2023.1.2,59.78864690199872,
2900.jpg,1101.jpg,3 Points,3 Points,244 Points,PS1_L5.csv,,,,,,,,,,,,,,,,,,,,,,,,,,,,,0,4,4,4,0,3,3,3,,,,,,,,,,,,,,,,,,,1986.7475769160083,p,1.5998735430184752,1988.4248218740104,,,,,,,158209,A,2024-06-27_11h14.18.383,EPIDM,2023.1.2,59.78864690199872,
2485.jpg,7350.jpg,0 Points,0 Points,244 Points,PS1_L5.csv,,,,,,,,,,,,,,,,,,,,,,,,,,,,,0,4,4,4,0,4,4,4,,,,,,,,,,,,,,,,,,,1992.663370165974,p,1.4920756670180708,1994.2273931240197,,,,,,,158209,A,2024-06-27_11h14.18.383,EPIDM,2023.1.2,59.78864690199872,
6242.jpg,F034.jpg,4 Points,4 Points,248 Points,PS1_L5.csv,,,,,,,,,,,,,,,,,,,,,,,,,,,,,0,4,4,4,0,5,5,5,,,,,,,,,,,,,,,,,,,1998.4725102080265,q,2.618394333985634,2001.1983778739814,,,,,,,158209,A,2024-06-27_11h14.18.383,EPIDM,2023.1.2,59.78864690199872,
3170.jpg,6560.jpg,2 Points,2 Points,250 Points,PS1_L5.csv,,,,,,,,,,,,,,,,,,,,,,,,,,,,,0,4,4,4,0,6,6,6,,,,,,,,,,,,,,,,,,,2005.41244949901,q,2.5423410419607535,2008.05631674896,,,,,,,158209,A,2024-06-27_11h14.18.383,EPIDM,2023.1.2,59.78864690199872,
8033.jpg,7270.jpg,3 Points,3 Points,253 Points,PS1_L5.csv,,,,,,,,,,,,,,,,,,,,,,,,,,,,,0,4,4,4,0,7,7,7,,,,,,,,,,,,,,,,,,,2012.2694524580147,p,1.9089617090066895,2014.2475856239907,,,,,,,158209,A,2024-06-27_11h14.18.383,EPIDM,2023.1.2,59.78864690199872,
2597.jpg,5870.jpg,5 Points,5 Points,258 Points,PS1_L5.csv,,,,,,,,,,,,,,,,,,,,,,,,,,,,,0,4,4,4,0,8,8,8,,,,,,,,,,,,,,,,,,,2018.499903916032,p,1.4466788760619238,2020.0072746239603,,,,,,,158209,A,2024-06-27_11h14.18.383,EPIDM,2023.1.2,59.78864690199872,
6312.jpg,3230.jpg,2 Points,2 Points,260 Points,PS1_L5.csv,,,,,,,,,,,,,,,,,,,,,,,,,,,,,0,4,4,4,0,9,9,9,,,,,,,,,,,,,,,,,,,2024.2657697489485,p,1.6163765840465203,2025.9567753330339,,,,,,,158209,A,2024-06-27_11h14.18.383,EPIDM,2023.1.2,59.78864690199872,
3130.jpg,3500.jpg,4 Points,4 Points,264 Points,PS1_L5.csv,,,,,,,,,,,,,,,,,,,,,,,,,,,,,0,4,4,4,0,10,10,10,,,,,,,,,,,,,,,,,,,2030.2036277910229,p,1.4400122499791905,2031.7117512489203,,,,,,,158209,A,2024-06-27_11h14.18.383,EPIDM,2023.1.2,59.78864690199872,
2749.jpg,7282.jpg,3 Points,3 Points,267 Points,PS1_L5.csv,,,,,,,,,,,,,,,,,,,,,,,,,,,,,0,4,4,4,0,11,11,11,,,,,,,,,,,,,,,,,,,2035.9521353329765,p,2.6018589589511976,2038.6304803739768,,,,,,,158209,A,2024-06-27_11h14.18.383,EPIDM,2023.1.2,59.78864690199872,
5300.jpg,2372.jpg,1 Point,1 Point,268 Points,PS1_L5.csv,,,,,,,,,,,,,,,,,,,,,,,,,,,,,0,4,4,4,0,12,12,12,,,,,,,,,,,,,,,,,,,2042.87548499892,q,0.9895634590648115,2043.943281832966,,,,,,,158209,A,2024-06-27_11h14.18.383,EPIDM,2023.1.2,59.78864690199872,
6510.jpg,A074.jpg,2 Points,2 Points,270 Points,PS1_L5.csv,,,,,,,,,,,,,,,,,,,,,,,,,,,,,0,4,4,4,0,13,13,13,,,,,,,,,,,,,,,,,,,2048.1830456239404,p,1.9227170419180766,2050.2125635410193,2,1.5463729170151055,,,,,158209,A,2024-06-27_11h14.18.383,EPIDM,2023.1.2,59.78864690199872,
2260.jpg,2830.jpg,5 Points,5 Points,275 Points,PS1_L5.csv,,,,,,,,,,,,,,,,,,,,,,,,,,,,,0,4,4,4,0,14,14,14,,,,,,,,,,,,,,,,,,,2056.088179874001,q,1.2736681249225512,2057.4671331660356,,,,,,,158209,A,2024-06-27_11h14.18.383,EPIDM,2023.1.2,59.78864690199872,
2710.jpg,9252.jpg,1 Point,1 Point,276 Points,PS1_L5.csv,,,,,,,,,,,,,,,,,,,,,,,,,,,,,0,4,4,4,0,15,15,15,,,,,,,,,,,,,,,,,,,2061.678066998953,q,1.3162560429191217,2063.0670817909995,,,,,,,158209,A,2024-06-27_11h14.18.383,EPIDM,2023.1.2,59.78864690199872,
3064.jpg,3168.jpg,4 Points,4 Points,280 Points,PS1_L5.csv,,,,,,,,,,,,,,,,,,,,,,,,,,,,,0,4,4,4,0,16,16,16,,,,,,,,,,,,,,,,,,,2067.3115520409774,q,3.170273166964762,2070.544285123935,,,,,,,158209,A,2024-06-27_11h14.18.383,EPIDM,2023.1.2,59.78864690199872,
1640.jpg,5531.jpg,3 Points,3 Points,283 Points,PS1_L5.csv,,,,,,,,,,,,,,,,,,,,,,,,,,,,,0,4,4,4,0,17,17,17,,,,,,,,,,,,,,,,,,,2074.7945289990166,q,1.0941724589793012,2075.9674740829505,,,,,,,158209,A,2024-06-27_11h14.18.383,EPIDM,2023.1.2,59.78864690199872,
3530.jpg,6213.jpg,1 Point,1 Point,284 Points,PS1_L5.csv,,,,,,,,,,,,,,,,,,,,,,,,,,,,,0,4,4,4,0,18,18,18,,,,,,,,,,,,,,,,,,,2080.2117484159535,p,1.876664291950874,2082.179102416034,,,,,,,158209,A,2024-06-27_11h14.18.383,EPIDM,2023.1.2,59.78864690199872,
9090.jpg,7580.jpg,3 Points,3 Points,287 Points,PS1_L5.csv,,,,,,,,,,,,,,,,,,,,,,,,,,,,,0,4,4,4,0,19,19,19,,,,,,,,,,,,,,,,,,,2086.423348790966,p,1.0493747920263559,2087.5491013739957,,,,,,,158209,A,2024-06-27_11h14.18.383,EPIDM,2023.1.2,59.78864690199872,
8230.jpg,2682.jpg,5 Points,5 Points,292 Points,PS1_L5.csv,,,,,,,,,,,,,,,,,,,,,,,,,,,,,0,4,4,4,0,20,20,20,,,,,,,,,,,,,,,,,,,2091.810536499019,q,2.174651209032163,2094.0652575410204,,,,,,,158209,A,2024-06-27_11h14.18.383,EPIDM,2023.1.2,59.78864690199872,
9592.jpg,1300.jpg,2 Points,2 Points,294 Points,PS1_L5.csv,,,,,,,,,,,,,,,,,,,,,,,,,,,,,0,4,4,4,0,21,21,21,,,,,,,,,,,,,,,,,,,2098.317518998985,q,1.9632716260384768,2100.349391583004,,,,,,,158209,A,2024-06-27_11h14.18.383,EPIDM,2023.1.2,59.78864690199872,
2490.jpg,2590.jpg,4 Points,4 Points,298 Points,PS1_L5.csv,,,,,,,,,,,,,,,,,,,,,,,,,,,,,0,4,4,4,0,22,22,22,,,,,,,,,,,,,,,,,,,2104.604410748929,p,2.107807168038562,2106.781052040984,,,,,,,158209,A,2024-06-27_11h14.18.383,EPIDM,2023.1.2,59.78864690199872,
2190.jpg,7503.jpg,2 Points,2 Points,300 Points,PS1_L5.csv,,,,,,,,,,,,,,,,,,,,,,,,,,,,,0,4,4,4,0,23,23,23,,,,,,,,,,,,,,,,,,,2111.0231921660015,p,1.6182587920920923,2112.714034623932,,,2123.191413457971,space,19.496396208996885,,158209,A,2024-06-27_11h14.18.383,EPIDM,2023.1.2,59.78864690199872,
1930.jpg,9008.jpg,1 Point,1 Point,301 Points,PS1_L6.csv,,,,,,,,,,,,,,,,,,,,,,,,,,,,,0,5,5,5,0,0,0,0,,,,,,,,,,,,,,,,,,,2146.0060683329357,q,1.6255070010665804,2147.708296458004,,,,,,,158209,A,2024-06-27_11h14.18.383,EPIDM,2023.1.2,59.78864690199872,
4613.jpg,2720.jpg,4 Points,4 Points,305 Points,PS1_L6.csv,,,,,,,,,,,,,,,,,,,,,,,,,,,,,0,5,5,5,0,1,1,1,,,,,,,,,,,,,,,,,,,2151.956065541017,p,1.3715955429943278,2153.3998657909688,4,1.4098693749401718,,,,,158209,A,2024-06-27_11h14.18.383,EPIDM,2023.1.2,59.78864690199872,
3280.jpg,9270.jpg,0 Points,0 Points,305 Points,PS1_L6.csv,,,,,,,,,,,,,,,,,,,,,,,,,,,,,0,5,5,5,0,2,2,2,,,,,,,,,,,,,,,,,,,2159.1090255409945,q,1.9476159169571474,2161.1244297910016,,,,,,,158209,A,2024-06-27_11h14.18.383,EPIDM,2023.1.2,59.78864690199872,
6800.jpg,9190.jpg,0 Points,0 Points,305 Points,PS1_L6.csv,,,,,,,,,,,,,,,,,,,,,,,,,,,,,0,5,5,5,0,3,3,3,,,,,,,,,,,,,,,,,,,2165.3826320410008,p,1.5448064170777798,2166.996007165988,,,,,,,158209,A,2024-06-27_11h14.18.383,EPIDM,2023.1.2,59.78864690199872,
5600.jpg,9080.jpg,5 Points,5 Points,310 Points,PS1_L6.csv,,,,,,,,,,,,,,,,,,,,,,,,,,,,,0,5,5,5,0,4,4,4,,,,,,,,,,,,,,,,,,,2171.2554804160027,p,1.328137333970517,2172.6584670830052,,,,,,,158209,A,2024-06-27_11h14.18.383,EPIDM,2023.1.2,59.78864690199872,
P211.jpg,9041.jpg,4 Points,4 Points,314 Points,PS1_L6.csv,,,,,,,,,,,,,,,,,,,,,,,,,,,,,0,5,5,5,0,5,5,5,,,,,,,,,,,,,,,,,,,2176.895250957925,p,1.7115184589056298,2178.7204888330307,,,,,,,158209,A,2024-06-27_11h14.18.383,EPIDM,2023.1.2,59.78864690199872,
5200.jpg,5020.jpg,0 Points,0 Points,314 Points,PS1_L6.csv,,,,,,,,,,,,,,,,,,,,,,,,,,,,,0,5,5,5,0,6,6,6,,,,,,,,,,,,,,,,,,,2182.921407790971,q,1.1662463339744136,2184.1532841660082,,,,,,,158209,A,2024-06-27_11h14.18.383,EPIDM,2023.1.2,59.78864690199872,
1850.jpg,5623.jpg,5 Points,5 Points,319 Points,PS1_L6.csv,,,,,,,,,,,,,,,,,,,,,,,,,,,,,0,5,5,5,0,7,7,7,,,,,,,,,,,,,,,,,,,2188.3948988739867,p,1.2913687500404194,2189.764115583035,,,,,,,158209,A,2024-06-27_11h14.18.383,EPIDM,2023.1.2,59.78864690199872,
9440.jpg,6350.jpg,4 Points,4 Points,323 Points,PS1_L6.csv,,,,,,,,,,,,,,,,,,,,,,,,,,,,,0,5,5,5,0,8,8,8,,,,,,,,,,,,,,,,,,,2194.0058228740236,p,1.6336951670236886,2195.6991386240115,,,,,,,158209,A,2024-06-27_11h14.18.383,EPIDM,2023.1.2,59.78864690199872,
5990.jpg,5780.jpg,3 Points,3 Points,326 Points,PS1_L6.csv,,,,,,,,,,,,,,,,,,,,,,,,,,,,,0,5,5,5,0,9,9,9,,,,,,,,,,,,,,,,,,,2199.958086957922,q,1.5144617499317974,2201.5367742079543,,,,,,,158209,A,2024-06-27_11h14.18.383,EPIDM,2023.1.2,59.78864690199872,
6244.jpg,9265.jpg,0 Points,0 Points,326 Points,PS1_L6.csv,,,,,,,,,,,,,,,,,,,,,,,,,,,,,0,5,5,5,0,10,10,10,,,,,,,,,,,,,,,,,,,2205.7914358329726,p,2.286178334034048,2208.1476464580046,,,,,,,158209,A,2024-06-27_11h14.18.383,EPIDM,2023.1.2,59.78864690199872,
5000.jpg,8180.jpg,4 Points,4 Points,330 Points,PS1_L6.csv,,,,,,,,,,,,,,,,,,,,,,,,,,,,,0,5,5,5,0,11,11,11,,,,,,,,,,,,,,,,,,,2212.4044245829573,q,0.9774009590037167,2213.457844248973,,,,,,,158209,A,2024-06-27_11h14.18.383,EPIDM,2023.1.2,59.78864690199872,
5982.jpg,5260.jpg,5 Points,5 Points,335 Points,PS1_L6.csv,,,,,,,,,,,,,,,,,,,,,,,,,,,,,0,5,5,5,0,12,12,12,,,,,,,,,,,,,,,,,,,2217.70185570803,p,0.9761964590288699,2218.75489587395,,,,,,,158209,A,2024-06-27_11h14.18.383,EPIDM,2023.1.2,59.78864690199872,
1301.jpg,1070.jpg,2 Points,2 Points,337 Points,PS1_L6.csv,,,,,,,,,,,,,,,,,,,,,,,,,,,,,0,5,5,5,0,13,13,13,,,,,,,,,,,,,,,,,,,2222.997240207973,p,1.1369636680465192,2224.2162771659205,2,1.379060584004037,,,,,158209,A,2024-06-27_11h14.18.383,EPIDM,2023.1.2,59.78864690199872,
7920.jpg,9102.jpg,3 Points,3 Points,340 Points,PS1_L6.csv,,,,,,,,,,,,,,,,,,,,,,,,,,,,,0,5,5,5,0,14,14,14,,,,,,,,,,,,,,,,,,,2229.9169980830047,q,1.9919182509183884,2231.9915761239827,,,,,,,158209,A,2024-06-27_11h14.18.383,EPIDM,2023.1.2,59.78864690199872,
5455.jpg,5220.jpg,0 Points,0 Points,340 Points,PS1_L6.csv,,,,,,,,,,,,,,,,,,,,,,,,,,,,,0,5,5,5,0,15,15,15,,,,,,,,,,,,,,,,,,,2236.2307073739357,p,1.109702334040776,2237.4149828329682,,,,,,,158209,A,2024-06-27_11h14.18.383,EPIDM,2023.1.2,59.78864690199872,
3350.jpg,3210.jpg,1 Point,1 Point,341 Points,PS1_L6.csv,,,,,,,,,,,,,,,,,,,,,,,,,,,,,0,5,5,5,0,16,16,16,,,,,,,,,,,,,,,,,,,2241.655580832972,q,1.693955125985667,2243.406638916,,,,,,,158209,A,2024-06-27_11h14.18.383,EPIDM,2023.1.2,59.78864690199872,
2560.jpg,5270.jpg,4 Points,4 Points,345 Points,PS1_L6.csv,,,,,,,,,,,,,,,,,,,,,,,,,,,,,0,5,5,5,0,17,17,17,,,,,,,,,,,,,,,,,,,2247.6636933329282,p,1.1174614588962868,2248.8496610409347,,,,,,,158209,A,2024-06-27_11h14.18.383,EPIDM,2023.1.2,59.78864690199872,
9584.jpg,3400.jpg,2 Points,2 Points,347 Points,PS1_L6.csv,,,,,,,,,,,,,,,,,,,,,,,,,,,,,0,5,5,5,0,18,18,18,,,,,,,,,,,,,,,,,,,2253.1032128740335,q,1.4848955429624766,2254.6622415409656,,,,,,,158209,A,2024-06-27_11h14.18.383,EPIDM,2023.1.2,59.78864690199872,
5760.jpg,1602.jpg,1 Point,1 Point,348 Points,PS1_L6.csv,,,,,,,,,,,,,,,,,,,,,,,,,,,,,0,5,5,5,0,19,19,19,,,,,,,,,,,,,,,,,,,2258.9005576659692,q,1.0882337919902056,2260.0536342079286,,,,,,,158209,A,2024-06-27_11h14.18.383,EPIDM,2023.1.2,59.78864690199872,
7230.jpg,7570.jpg,5 Points,5 Points,353 Points,PS1_L6.csv,,,,,,,,,,,,,,,,,,,,,,,,,,,,,0,5,5,5,0,20,20,20,,,,,,,,,,,,,,,,,,,2264.313936873921,p,1.642882292973809,2266.029452458024,,,,,,,158209,A,2024-06-27_11h14.18.383,EPIDM,2023.1.2,59.78864690199872,
1022.jpg,6930.jpg,1 Point,1 Point,354 Points,PS1_L6.csv,,,,,,,,,,,,,,,,,,,,,,,,,,,,,0,5,5,5,0,21,21,21,,,,,,,,,,,,,,,,,,,2270.2664599579293,q,1.51361220900435,2271.8544598330045,,,,,,,158209,A,2024-06-27_11h14.18.383,EPIDM,2023.1.2,59.78864690199872,
8340.jpg,7546.jpg,2 Points,2 Points,356 Points,PS1_L6.csv,,,,,,,,,,,,,,,,,,,,,,,,,,,,,0,5,5,5,0,22,22,22,,,,,,,,,,,,,,,,,,,2276.0933644989273,p,1.1776107919868082,2277.3395503739594,,,,,,,158209,A,2024-06-27_11h14.18.383,EPIDM,2023.1.2,59.78864690199872,
6243.jpg,2752.jpg,2 Points,2 Points,358 Points,PS1_L6.csv,,,,,,,,,,,,,,,,,,,,,,,,,,,,,0,5,5,5,0,23,23,23,,,,,,,,,,,,,,,,,,,2281.589629499009,q,2.07840295904316,2283.7328896239633,,,2294.2444784579566,space,21.351022250950336,,158209,A,2024-06-27_11h14.18.383,EPIDM,2023.1.2,59.78864690199872,
7280.jpg,7160.jpg,0 Points,0 Points,358 Points,PS1_L7.csv,,,,,,,,,,,,,,,,,,,,,,,,,,,,,0,6,6,6,0,0,0,0,,,,,,,,,,,,,,,,,,,2318.902700582985,q,1.3015028340741992,2320.2936374989804,,,,,,,158209,A,2024-06-27_11h14.18.383,EPIDM,2023.1.2,59.78864690199872,
2580.jpg,8300.jpg,3 Points,3 Points,361 Points,PS1_L7.csv,,,,,,,,,,,,,,,,,,,,,,,,,,,,,0,6,6,6,0,1,1,1,,,,,,,,,,,,,,,,,,,2324.5340534989955,q,1.334232626017183,2325.943798791035,3,1.2432355429045856,,,,,158209,A,2024-06-27_11h14.18.383,EPIDM,2023.1.2,59.78864690199872,
5972.jpg,6838.jpg,5 Points,5 Points,366 Points,PS1_L7.csv,,,,,,,,,,,,,,,,,,,,,,,,,,,,,0,6,6,6,0,2,2,2,,,,,,,,,,,,,,,,,,,2331.4882717489963,q,2.3955210839631036,2333.959927457967,,,,,,,158209,A,2024-06-27_11h14.18.383,EPIDM,2023.1.2,59.78864690199872,
5621.jpg,5534.jpg,3 Points,3 Points,369 Points,PS1_L7.csv,,,,,,,,,,,,,,,,,,,,,,,,,,,,,0,6,6,6,0,3,3,3,,,,,,,,,,,,,,,,,,,2338.204744749004,q,2.525938000995666,2340.806330790976,,,,,,,158209,A,2024-06-27_11h14.18.383,EPIDM,2023.1.2,59.78864690199872,
8480.jpg,6410.jpg,1 Point,1 Point,370 Points,PS1_L7.csv,,,,,,,,,,,,,,,,,,,,,,,,,,,,,0,6,6,6,0,4,4,4,,,,,,,,,,,,,,,,,,,2345.0454400830204,q,2.813189584063366,2347.940912207938,,,,,,,158209,A,2024-06-27_11h14.18.383,EPIDM,2023.1.2,59.78864690199872,
2702.jpg,1590.jpg,5 Points,5 Points,375 Points,PS1_L7.csv,,,,,,,,,,,,,,,,,,,,,,,,,,,,,0,6,6,6,0,5,5,5,,,,,,,,,,,,,,,,,,,2352.1784463740187,p,1.7766485839383677,2354.0337671239395,,,,,,,158209,A,2024-06-27_11h14.18.383,EPIDM,2023.1.2,59.78864690199872,
1275.jpg,3150.jpg,1 Point,1 Point,376 Points,PS1_L7.csv,,,,,,,,,,,,,,,,,,,,,,,,,,,,,0,6,6,6,0,6,6,6,,,,,,,,,,,,,,,,,,,2358.275189916021,q,1.0957356260623783,2359.4393337910296,,,,,,,158209,A,2024-06-27_11h14.18.383,EPIDM,2023.1.2,59.78864690199872,
1910.jpg,2575.jpg,2 Points,2 Points,378 Points,PS1_L7.csv,,,,,,,,,,,,,,,,,,,,,,,,,,,,,0,6,6,6,0,7,7,7,,,,,,,,,,,,,,,,,,,2363.6776173739927,p,2.191280208993703,2365.93021749903,,,,,,,158209,A,2024-06-27_11h14.18.383,EPIDM,2023.1.2,59.78864690199872,
2518.jpg,2381.jpg,1 Point,1 Point,382 Points,PS1_L7.csv,,,,,,,,,,,,,,,,,,,,,,,,,,,,,0,6,6,6,0,8,8,8,,,,,,,,,,,,,,,,,,,2370.183967457968,p,1.4986999590182677,2371.7363131659804,,,,,,,158209,A,2024-06-27_11h14.18.383,EPIDM,2023.1.2,59.78864690199872,
6250.1.jpg,3301.jpg,0 Points,0 Points,382 Points,PS1_L7.csv,,,,,,,,,,,,,,,,,,,,,,,,,,,,,0,6,6,6,0,9,9,9,,,,,,,,,,,,,,,,,,,2375.9976024989737,q,1.797132667968981,2377.8562469989993,,,,,,,158209,A,2024-06-27_11h14.18.383,EPIDM,2023.1.2,59.78864690199872,
7234.jpg,5533.jpg,3 Points,3 Points,385 Points,PS1_L7.csv,,,,,,,,,,,,,,,,,,,,,,,,,,,,,0,6,6,6,0,10,10,10,,,,,,,,,,,,,,,,,,,2382.1202390829567,p,1.122250417014584,2383.3204401659314,,,,,,,158209,A,2024-06-27_11h14.18.383,EPIDM,2023.1.2,59.78864690199872,
9920.jpg,3068.jpg,5 Points,5 Points,390 Points,PS1_L7.csv,,,,,,,,,,,,,,,,,,,,,,,,,,,,,0,6,6,6,0,11,11,11,,,,,,,,,,,,,,,,,,,2387.5679354160093,q,2.002075001015328,2389.6362670409726,,,,,,,158209,A,2024-06-27_11h14.18.383,EPIDM,2023.1.2,59.78864690199872,
3022.jpg,2352.2.jpg,0 Points,0 Points,390 Points,PS1_L7.csv,,,,,,,,,,,,,,,,,,,,,,,,,,,,,0,6,6,6,0,12,12,12,,,,,,,,,,,,,,,,,,,2393.8842388329795,q,3.157688500941731,2397.1070132079767,,,,,,,158209,A,2024-06-27_11h14.18.383,EPIDM,2023.1.2,59.78864690199872,
8250.jpg,1313.jpg,4 Points,4 Points,394 Points,PS1_L7.csv,,,,,,,,,,,,,,,,,,,,,,,,,,,,,0,6,6,6,0,13,13,13,,,,,,,,,,,,,,,,,,,2401.3531975409715,p,1.7842112500220537,2403.207921874011,4,1.3873872089898214,,,,,158209,A,2024-06-27_11h14.18.383,EPIDM,2023.1.2,59.78864690199872,
2690.jpg,9360.jpg,1 Point,1 Point,395 Points,PS1_L7.csv,,,,,,,,,,,,,,,,,,,,,,,,,,,,,0,6,6,6,0,14,14,14,,,,,,,,,,,,,,,,,,,2408.923524915939,p,1.5182032498996705,2410.511034957948,,,,,,,158209,A,2024-06-27_11h14.18.383,EPIDM,2023.1.2,59.78864690199872,
9570.jpg,6610.jpg,0 Points,0 Points,395 Points,PS1_L7.csv,,,,,,,,,,,,,,,,,,,,,,,,,,,,,0,6,6,6,0,15,15,15,,,,,,,,,,,,,,,,,,,2414.754282332957,p,1.7985574170015752,2416.622572415974,,,,,,,158209,A,2024-06-27_11h14.18.383,EPIDM,2023.1.2,59.78864690199872,
3110.jpg,9000.jpg,4 Points,4 Points,399 Points,PS1_L7.csv,,,,,,,,,,,,,,,,,,,,,,,,,,,,,0,6,6,6,0,16,16,16,,,,,,,,,,,,,,,,,,,2420.873229998979,p,1.6642777930246666,2422.607614248991,,,,,,,158209,A,2024-06-27_11h14.18.383,EPIDM,2023.1.2,59.78864690199872,
8465.jpg,8400.jpg,1 Point,1 Point,400 Points,PS1_L7.csv,,,,,,,,,,,,,,,,,,,,,,,,,,,,,0,6,6,6,0,17,17,17,,,,,,,,,,,,,,,,,,,2426.8624279990327,q,1.3392625009873882,2428.279697999009,,,,,,,158209,A,2024-06-27_11h14.18.383,EPIDM,2023.1.2,59.78864690199872,
1540.jpg,2600.jpg,1 Point,1 Point,401 Points,PS1_L7.csv,,,,,,,,,,,,,,,,,,,,,,,,,,,,,0,6,6,6,0,18,18,18,,,,,,,,,,,,,,,,,,,2432.5366170830093,q,1.384825334069319,2433.984329623985,,,,,,,158209,A,2024-06-27_11h14.18.383,EPIDM,2023.1.2,59.78864690199872,
2276.jpg,6540.jpg,3 Points,3 Points,404 Points,PS1_L7.csv,,,,,,,,,,,,,,,,,,,,,,,,,,,,,0,6,6,6,0,19,19,19,,,,,,,,,,,,,,,,,,,2438.2363464579685,q,2.260393084026873,2440.5573257909855,,,,,,,158209,A,2024-06-27_11h14.18.383,EPIDM,2023.1.2,59.78864690199872,
5030.jpg,1670.jpg,3 Points,3 Points,407 Points,PS1_L7.csv,,,,,,,,,,,,,,,,,,,,,,,,,,,,,0,6,6,6,0,20,20,20,,,,,,,,,,,,,,,,,,,2444.813252249034,q,1.18784283392597,2446.0670450829202,,,,,,,158209,A,2024-06-27_11h14.18.383,EPIDM,2023.1.2,59.78864690199872,
9040.jpg,1120.jpg,3 Points,3 Points,410 Points,PS1_L7.csv,,,,,,,,,,,,,,,,,,,,,,,,,,,,,0,6,6,6,0,21,21,21,,,,,,,,,,,,,,,,,,,2450.32609483297,p,1.8734637919114903,2452.2750858329237,,,,,,,158209,A,2024-06-27_11h14.18.383,EPIDM,2023.1.2,59.78864690199872,
3220.jpg,3063.jpg,5 Points,5 Points,415 Points,PS1_L7.csv,,,,,,,,,,,,,,,,,,,,,,,,,,,,,0,6,6,6,0,22,22,22,,,,,,,,,,,,,,,,,,,2456.5191013739677,q,1.4164424589835107,2458.0009907489875,,,,,,,158209,A,2024-06-27_11h14.18.383,EPIDM,2023.1.2,59.78864690199872,
8117.jpg,2880.jpg,5 Points,5 Points,420 Points,PS1_L7.csv,,,,,,,,,,,,,,,,,,,,,,,,,,,,,0,6,6,6,0,23,23,23,,,,,,,,,,,,,,,,,,,2462.252104373998,p,1.1885077499318868,2463.510364457965,,,2473.9767116659787,space,20.567272417945787,,158209,A,2024-06-27_11h14.18.383,EPIDM,2023.1.2,59.78864690199872,
4274.jpg,8160.jpg,2 Points,2 Points,422 Points,PS1_L8.csv,,,,,,,,,,,,,,,,,,,,,,,,,,,,,0,7,7,7,0,0,0,0,,,,,,,,,,,,,,,,,,,2497.861350915977,p,0.8264353339327499,2498.757412332925,,,,,,,158209,A,2024-06-27_11h14.18.383,EPIDM,2023.1.2,59.78864690199872,
6314.jpg,O022.jpg,2 Points,2 Points,424 Points,PS1_L8.csv,,,,,,,,,,,,,,,,,,,,,,,,,,,,,0,7,7,7,0,1,1,1,,,,,,,,,,,,,,,,,,,2502.997640165966,p,1.481060666963458,2504.5843386240304,2,1.3309971670387313,,,,,158209,A,2024-06-27_11h14.18.383,EPIDM,2023.1.2,59.78864690199872,
1560.jpg,8185.jpg,0 Points,0 Points,424 Points,PS1_L8.csv,,,,,,,,,,,,,,,,,,,,,,,,,,,,,0,7,7,7,0,2,2,2,,,,,,,,,,,,,,,,,,,2510.244032123941,p,1.0990334179950878,2511.411072332994,,,,,,,158209,A,2024-06-27_11h14.18.383,EPIDM,2023.1.2,59.78864690199872,
2850.jpg,4532.jpg,3 Points,3 Points,427 Points,PS1_L8.csv,,,,,,,,,,,,,,,,,,,,,,,,,,,,,0,7,7,7,0,3,3,3,,,,,,,,,,,,,,,,,,,2515.655308999005,p,1.015286959009245,2516.7318369579734,,,,,,,158209,A,2024-06-27_11h14.18.383,EPIDM,2023.1.2,59.78864690199872,
1390.jpg,9421.jpg,2 Points,2 Points,429 Points,PS1_L8.csv,,,,,,,,,,,,,,,,,,,,,,,,,,,,,0,7,7,7,0,4,4,4,,,,,,,,,,,,,,,,,,,2520.9844104580116,q,1.030878416961059,2522.085596748977,,,,,,,158209,A,2024-06-27_11h14.18.383,EPIDM,2023.1.2,59.78864690199872,
9800.jpg,9433.jpg,1 Point,1 Point,430 Points,PS1_L8.csv,,,,,,,,,,,,,,,,,,,,,,,,,,,,,0,7,7,7,0,5,5,5,,,,,,,,,,,,,,,,,,,2526.327375291032,p,1.8553680010372773,2528.2542532490334,,,,,,,158209,A,2024-06-27_11h14.18.383,EPIDM,2023.1.2,59.78864690199872,
8161.jpg,1900.jpg,4 Points,4 Points,434 Points,PS1_L8.csv,,,,,,,,,,,,,,,,,,,,,,,,,,,,,0,7,7,7,0,6,6,6,,,,,,,,,,,,,,,,,,,2532.496993873967,p,0.9896830840734765,2533.5549123330275,,,,,,,158209,A,2024-06-27_11h14.18.383,EPIDM,2023.1.2,59.78864690199872,
1112.jpg,6230.jpg,3 Points,3 Points,437 Points,PS1_L8.csv,,,,,,,,,,,,,,,,,,,,,,,,,,,,,0,7,7,7,0,7,7,7,,,,,,,,,,,,,,,,,,,2537.8035217910074,q,1.098994959029369,2538.9677687489893,,,,,,,158209,A,2024-06-27_11h14.18.383,EPIDM,2023.1.2,59.78864690199872,
1111.jpg,1040.jpg,0 Points,0 Points,437 Points,PS1_L8.csv,,,,,,,,,,,,,,,,,,,,,,,,,,,,,0,7,7,7,0,8,8,8,,,,,,,,,,,,,,,,,,,2543.225935166003,p,2.205580667941831,2545.5025480829645,,,,,,,158209,A,2024-06-27_11h14.18.383,EPIDM,2023.1.2,59.78864690199872,
5622.jpg,9156.jpg,4 Points,4 Points,441 Points,PS1_L8.csv,,,,,,,,,,,,,,,,,,,,,,,,,,,,,0,7,7,7,0,9,9,9,,,,,,,,,,,,,,,,,,,2549.7428092489718,q,1.6307428339496255,2551.457564832992,,,,,,,158209,A,2024-06-27_11h14.18.383,EPIDM,2023.1.2,59.78864690199872,
2681.jpg,7100.jpg,3 Points,3 Points,444 Points,PS1_L8.csv,,,,,,,,,,,,,,,,,,,,,,,,,,,,,0,7,7,7,0,10,10,10,,,,,,,,,,,,,,,,,,,2555.6919267909834,p,1.522264749975875,2557.2863041659584,,,,,,,158209,A,2024-06-27_11h14.18.383,EPIDM,2023.1.2,59.78864690199872,
6821.jpg,9622.jpg,2 Points,2 Points,446 Points,PS1_L8.csv,,,,,,,,,,,,,,,,,,,,,,,,,,,,,0,7,7,7,0,11,11,11,,,,,,,,,,,,,,,,,,,2561.549322957988,p,2.6987978339893743,2564.319896665984,,,,,,,158209,A,2024-06-27_11h14.18.383,EPIDM,2023.1.2,59.78864690199872,
9490.jpg,9210.jpg,1 Point,1 Point,447 Points,PS1_L8.csv,,,,,,,,,,,,,,,,,,,,,,,,,,,,,0,7,7,7,0,12,12,12,,,,,,,,,,,,,,,,,,,2568.575755208032,p,1.517994291963987,2570.1589698329335,,,,,,,158209,A,2024-06-27_11h14.18.383,EPIDM,2023.1.2,59.78864690199872,
4605.jpg,1510.jpg,4 Points,4 Points,451 Points,PS1_L8.csv,,,,,,,,,,,,,,,,,,,,,,,,,,,,,0,7,7,7,0,13,13,13,,,,,,,,,,,,,,,,,,,2574.42260683293,p,1.6794719169847667,2576.166474291007,4,1.2896556679625064,,,,,158209,A,2024-06-27_11h14.18.383,EPIDM,2023.1.2,59.78864690199872,
2240.jpg,5010.jpg,5 Points,5 Points,456 Points,PS1_L8.csv,,,,,,,,,,,,,,,,,,,,,,,,,,,,,0,7,7,7,0,14,14,14,,,,,,,,,,,,,,,,,,,2581.7767493739957,p,1.165221001021564,2583.014134665951,,,,,,,158209,A,2024-06-27_11h14.18.383,EPIDM,2023.1.2,59.78864690199872,
3102.jpg,F032.jpg,1 Point,1 Point,457 Points,PS1_L8.csv,,,,,,,,,,,,,,,,,,,,,,,,,,,,,0,7,7,7,0,15,15,15,,,,,,,,,,,,,,,,,,,2587.2522917080205,p,2.3778330840868875,2589.756218498922,,,,,,,158209,A,2024-06-27_11h14.18.383,EPIDM,2023.1.2,59.78864690199872,
4100.jpg,6570.2.jpg,3 Points,3 Points,460 Points,PS1_L8.csv,,,,,,,,,,,,,,,,,,,,,,,,,,,,,0,7,7,7,0,16,16,16,,,,,,,,,,,,,,,,,,,2593.9554964579875,q,1.2574925419175997,2595.3276081240037,,,,,,,158209,A,2024-06-27_11h14.18.383,EPIDM,2023.1.2,59.78864690199872,
2650.jpg,4531.jpg,5 Points,5 Points,465 Points,PS1_L8.csv,,,,,,,,,,,,,,,,,,,,,,,,,,,,,0,7,7,7,0,17,17,17,,,,,,,,,,,,,,,,,,,2599.5356494579464,q,1.1641671259421855,2600.7810210830066,,,,,,,158209,A,2024-06-27_11h14.18.383,EPIDM,2023.1.2,59.78864690199872,
9320.jpg,9007.jpg,0 Points,0 Points,465 Points,PS1_L8.csv,,,,,,,,,,,,,,,,,,,,,,,,,,,,,0,7,7,7,0,18,18,18,,,,,,,,,,,,,,,,,,,2605.0155169159407,q,1.6478153760544956,2606.7451233739266,,,,,,,158209,A,2024-06-27_11h14.18.383,EPIDM,2023.1.2,59.78864690199872,
8460.jpg,8330.jpg,0 Points,0 Points,465 Points,PS1_L8.csv,,,,,,,,,,,,,,,,,,,,,,,,,,,,,0,7,7,7,0,19,19,19,,,,,,,,,,,,,,,,,,,2610.985400583013,p,1.195715666981414,2612.2469082489843,,,,,,,158209,A,2024-06-27_11h14.18.383,EPIDM,2023.1.2,59.78864690199872,
2570.jpg,5500.jpg,3 Points,3 Points,468 Points,PS1_L8.csv,,,,,,,,,,,,,,,,,,,,,,,,,,,,,0,7,7,7,0,20,20,20,,,,,,,,,,,,,,,,,,,2616.4982345829485,p,0.8827360009308904,2617.453659749008,,,,,,,158209,A,2024-06-27_11h14.18.383,EPIDM,2023.1.2,59.78864690199872,
6190.jpg,3120.jpg,5 Points,5 Points,473 Points,PS1_L8.csv,,,,,,,,,,,,,,,,,,,,,,,,,,,,,0,7,7,7,0,21,21,21,,,,,,,,,,,,,,,,,,,2621.707124873996,q,1.497979833977297,2623.28231224895,,,,,,,158209,A,2024-06-27_11h14.18.383,EPIDM,2023.1.2,59.78864690199872,
2200.jpg,4598.jpg,1 Point,1 Point,474 Points,PS1_L8.csv,,,,,,,,,,,,,,,,,,,,,,,,,,,,,0,7,7,7,0,22,22,22,,,,,,,,,,,,,,,,,,,2627.5288064579945,p,1.3803895009914413,2628.979950748966,,,,,,,158209,A,2024-06-27_11h14.18.383,EPIDM,2023.1.2,59.78864690199872,
1303.jpg,2000.jpg,0 Points,0 Points,474 Points,PS1_L8.csv,,,,,,,,,,,,,,,,,,,,,,,,,,,,,0,7,7,7,0,23,23,23,,,,,,,,,,,,,,,,,,,2633.226521915989,p,1.5847069589653984,2634.889754790929,,,2645.372041582945,space,19.031940208980814,,158209,A,2024-06-27_11h14.18.383,EPIDM,2023.1.2,59.78864690199872,
9010.jpg,9253.jpg,0 Points,0 Points,474 Points,PS1_L9.csv,,,,,,,,,,,,,,,,,,,,,,,,,,,,,0,8,8,8,0,0,0,0,,,,,,,,,,,,,,,,,,,2667.742144873948,q,2.19765779201407,2670.0131837489316,,,,,,,158209,A,2024-06-27_11h14.18.383,EPIDM,2023.1.2,59.78864690199872,
1302.jpg,2700.jpg,3 Points,3 Points,477 Points,PS1_L9.csv,,,,,,,,,,,,,,,,,,,,,,,,,,,,,0,8,8,8,0,1,1,1,,,,,,,,,,,,,,,,,,,2674.2571108329576,p,1.5946697508916259,2675.9358099160017,3,1.2702314590569586,,,,,158209,A,2024-06-27_11h14.18.383,EPIDM,2023.1.2,59.78864690199872,
2030.jpg,2495.jpg,0 Points,0 Points,477 Points,PS1_L9.csv,,,,,,,,,,,,,,,,,,,,,,,,,,,,,0,8,8,8,0,2,2,2,,,,,,,,,,,,,,,,,,,2681.5231588740135,q,1.006665542954579,2682.611522373976,,,,,,,158209,A,2024-06-27_11h14.18.383,EPIDM,2023.1.2,59.78864690199872,
2110.jpg,7260.jpg,5 Points,5 Points,482 Points,PS1_L9.csv,,,,,,,,,,,,,,,,,,,,,,,,,,,,,0,8,8,8,0,3,3,3,,,,,,,,,,,,,,,,,,,2686.8503650409402,p,1.2003395430510864,2688.1273987910245,,,,,,,158209,A,2024-06-27_11h14.18.383,EPIDM,2023.1.2,59.78864690199872,
2053.jpg,9415.jpg,4 Points,4 Points,486 Points,PS1_L9.csv,,,,,,,,,,,,,,,,,,,,,,,,,,,,,0,8,8,8,0,4,4,4,,,,,,,,,,,,,,,,,,,2692.363567290944,q,1.3666503339773044,2693.806144873961,,,,,,,158209,A,2024-06-27_11h14.18.383,EPIDM,2023.1.2,59.78864690199872,
6211.jpg,9611.jpg,3 Points,3 Points,489 Points,PS1_L9.csv,,,,,,,,,,,,,,,,,,,,,,,,,,,,,0,8,8,8,0,5,5,5,,,,,,,,,,,,,,,,,,,2698.0590654580155,p,1.2239700009813532,2699.340882624034,,,,,,,158209,A,2024-06-27_11h14.18.383,EPIDM,2023.1.2,59.78864690199872,
8350.jpg,7190.jpg,5 Points,5 Points,494 Points,PS1_L9.csv,,,,,,,,,,,,,,,,,,,,,,,,,,,,,0,8,8,8,0,6,6,6,,,,,,,,,,,,,,,,,,,2703.6028624159517,q,1.2632125009549782,2704.9475101659773,,,,,,,158209,A,2024-06-27_11h14.18.383,EPIDM,2023.1.2,59.78864690199872,
9340.jpg,6910.jpg,0 Points,0 Points,494 Points,PS1_L9.csv,,,,,,,,,,,,,,,,,,,,,,,,,,,,,0,8,8,8,0,7,7,7,,,,,,,,,,,,,,,,,,,2709.188504874008,p,0.862380376085639,2710.12972054095,,,,,,,158209,A,2024-06-27_11h14.18.383,EPIDM,2023.1.2,59.78864690199872,
4533.jpg,2385.jpg,3 Points,3 Points,497 Points,PS1_L9.csv,,,,,,,,,,,,,,,,,,,,,,,,,,,,,0,8,8,8,0,8,8,8,,,,,,,,,,,,,,,,,,,2714.378800623934,q,1.8480507499771193,2716.3029239579337,,,,,,,158209,A,2024-06-27_11h14.18.383,EPIDM,2023.1.2,59.78864690199872,
5940.jpg,9411.jpg,0 Points,0 Points,497 Points,PS1_L9.csv,,,,,,,,,,,,,,,,,,,,,,,,,,,,,0,8,8,8,0,9,9,9,,,,,,,,,,,,,,,,,,,2720.5438807909377,p,2.2666250839829445,2722.8794602910057,,,,,,,158209,A,2024-06-27_11h14.18.383,EPIDM,2023.1.2,59.78864690199872,
2220.jpg,2010.jpg,5 Points,5 Points,502 Points,PS1_L9.csv,,,,,,,,,,,,,,,,,,,,,,,,,,,,,0,8,8,8,0,10,10,10,,,,,,,,,,,,,,,,,,,2727.1246939989505,p,1.2620394169352949,2728.4631326239323,,,,,,,158209,A,2024-06-27_11h14.18.383,EPIDM,2023.1.2,59.78864690199872,
9500.jpg,6360.jpg,1 Point,1 Point,503 Points,PS1_L9.csv,,,,,,,,,,,,,,,,,,,,,,,,,,,,,0,8,8,8,0,11,11,11,,,,,,,,,,,,,,,,,,,2732.7100624989253,p,1.9392176680266857,2734.7266349160345,,,,,,,158209,A,2024-06-27_11h14.18.383,EPIDM,2023.1.2,59.78864690199872,
2092.jpg,2210.jpg,0 Points,0 Points,503 Points,PS1_L9.csv,,,,,,,,,,,,,,,,,,,,,,,,,,,,,0,8,8,8,0,12,12,12,,,,,,,,,,,,,,,,,,,2738.9744554579956,q,1.685555626056157,2740.736193749006,,,,,,,158209,A,2024-06-27_11h14.18.383,EPIDM,2023.1.2,59.78864690199872,
9530.jpg,9220.jpg,1 Point,1 Point,504 Points,PS1_L9.csv,,,,,,,,,,,,,,,,,,,,,,,,,,,,,0,8,8,8,0,13,13,13,,,,,,,,,,,,,,,,,,,2744.9824130829656,q,1.8745601259870455,2746.92062945792,1,1.2791155419545248,,,,,158209,A,2024-06-27_11h14.18.383,EPIDM,2023.1.2,59.78864690199872,
9254.jpg,9290.jpg,2 Points,2 Points,506 Points,PS1_L9.csv,,,,,,,,,,,,,,,,,,,,,,,,,,,,,0,8,8,8,0,14,14,14,,,,,,,,,,,,,,,,,,,2752.511992958025,p,1.5612311259610578,2754.1287672489416,,,,,,,158209,A,2024-06-27_11h14.18.383,EPIDM,2023.1.2,59.78864690199872,
4608.jpg,8320.jpg,1 Point,1 Point,507 Points,PS1_L9.csv,,,,,,,,,,,,,,,,,,,,,,,,,,,,,0,8,8,8,0,15,15,15,,,,,,,,,,,,,,,,,,,2758.3955957909347,q,1.686271584010683,2760.1462509989506,,,,,,,158209,A,2024-06-27_11h14.18.383,EPIDM,2023.1.2,59.78864690199872,
7237.jpg,8510.jpg,4 Points,4 Points,511 Points,PS1_L9.csv,,,,,,,,,,,,,,,,,,,,,,,,,,,,,0,8,8,8,0,16,16,16,,,,,,,,,,,,,,,,,,,2764.3956520829815,q,0.8610308759380132,2765.341615748941,,,,,,,158209,A,2024-06-27_11h14.18.383,EPIDM,2023.1.2,59.78864690199872,
9417.jpg,6530.jpg,1 Point,1 Point,512 Points,PS1_L9.csv,,,,,,,,,,,,,,,,,,,,,,,,,,,,,0,8,8,8,0,17,17,17,,,,,,,,,,,,,,,,,,,2769.5847917490173,q,1.8710228339768946,2771.5227965409867,,,,,,,158209,A,2024-06-27_11h14.18.383,EPIDM,2023.1.2,59.78864690199872,
6831.jpg,2141.jpg,5 Points,5 Points,517 Points,PS1_L9.csv,,,,,,,,,,,,,,,,,,,,,,,,,,,,,0,8,8,8,0,18,18,18,,,,,,,,,,,,,,,,,,,2775.7644580829656,None,,,,,,,,2779.472274248954,158209,A,2024-06-27_11h14.18.383,EPIDM,2023.1.2,59.78864690199872,
4689.jpg,7009.jpg,5 Points,5 Points,522 Points,PS1_L9.csv,,,,,,,,,,,,,,,,,,,,,,,,,,,,,0,8,8,8,0,19,19,19,,,,,,,,,,,,,,,,,,,2783.2745304990094,p,0.5676106669707224,2783.924583707936,,,,,,,158209,A,2024-06-27_11h14.18.383,EPIDM,2023.1.2,59.78864690199872,
2751.jpg,6313.jpg,3 Points,3 Points,525 Points,PS1_L9.csv,,,,,,,,,,,,,,,,,,,,,,,,,,,,,0,8,8,8,0,20,20,20,,,,,,,,,,,,,,,,,,,2788.169962832937,q,0.9829491260461509,2789.2242569159716,,,,,,,158209,A,2024-06-27_11h14.18.383,EPIDM,2023.1.2,59.78864690199872,
4621.jpg,3550.jpg,2 Points,2 Points,527 Points,PS1_L9.csv,,,,,,,,,,,,,,,,,,,,,,,,,,,,,0,8,8,8,0,21,21,21,,,,,,,,,,,,,,,,,,,2793.4643407079857,q,1.5280472089070827,2795.049396165996,,,,,,,158209,A,2024-06-27_11h14.18.383,EPIDM,2023.1.2,59.78864690199872,
8220.jpg,2410.jpg,4 Points,4 Points,531 Points,PS1_L9.csv,,,,,,,,,,,,,,,,,,,,,,,,,,,,,0,8,8,8,0,22,22,22,,,,,,,,,,,,,,,,,,,2799.309711290989,q,1.585185791947879,2800.96318641596,,,,,,,158209,A,2024-06-27_11h14.18.383,EPIDM,2023.1.2,59.78864690199872,
1113.jpg,1240.jpg,3 Points,3 Points,534 Points,PS1_L9.csv,,,,,,,,,,,,,,,,,,,,,,,,,,,,,0,8,8,8,0,23,23,23,,,,,,,,,,,,,,,,,,,2805.21968958294,p,0.7485300418920815,2806.043241541018,,,2816.51147233299,space,14.943511583958752,,158209,A,2024-06-27_11h14.18.383,EPIDM,2023.1.2,59.78864690199872,
2750.jpg,9050.jpg,4 Points,4 Points,538 Points,PS1_L10.csv,,,,,,,,,,,,,,,,,,,,,,,,,,,,,0,9,9,9,0,0,0,0,,,,,,,,,,,,,,,,,,,2834.7793035829673,p,2.3882263340055943,2837.2362714989576,,,,,,,158209,A,2024-06-27_11h14.18.383,EPIDM,2023.1.2,59.78864690199872,
2312.jpg,2722.jpg,1 Points,1 Points,539 Points,PS1_L10.csv,,,,,,,,,,,,,,,,,,,,,,,,,,,,,0,9,9,9,0,1,1,1,,,,,,,,,,,,,,,,,,,2841.492869373993,q,1.2270349180325866,2842.7826649990166,1,1.2306008340092376,,,,,158209,A,2024-06-27_11h14.18.383,EPIDM,2023.1.2,59.78864690199872,
8232.jpg,4279.jpg,5 Points,5 Points,544 Points,PS1_L10.csv,,,,,,,,,,,,,,,,,,,,,,,,,,,,,0,9,9,9,0,2,2,2,,,,,,,,,,,,,,,,,,,2848.3356221240247,p,2.0312292920425534,2850.4406326659955,,,,,,,158209,A,2024-06-27_11h14.18.383,EPIDM,2023.1.2,59.78864690199872,
6000.jpg,6836.jpg,4 Points,4 Points,548 Points,PS1_L10.csv,,,,,,,,,,,,,,,,,,,,,,,,,,,,,0,9,9,9,0,3,3,3,,,,,,,,,,,,,,,,,,,2854.685668498976,q,0.800630833953619,2855.5586988329887,,,,,,,158209,A,2024-06-27_11h14.18.383,EPIDM,2023.1.2,59.78864690199872,
4536.jpg,2280.jpg,4 Points,4 Points,552 Points,PS1_L10.csv,,,,,,,,,,,,,,,,,,,,,,,,,,,,,0,9,9,9,0,4,4,4,,,,,,,,,,,,,,,,,,,2859.801842582994,p,1.5570850420044735,2861.4304547079373,,,,,,,158209,A,2024-06-27_11h14.18.383,EPIDM,2023.1.2,59.78864690199872,
6241.jpg,9561.jpg,3 Points,3 Points,555 Points,PS1_L10.csv,,,,,,,,,,,,,,,,,,,,,,,,,,,,,0,9,9,9,0,5,5,5,,,,,,,,,,,,,,,,,,,2865.6821225410094,q,1.81265404203441,2867.5744337909855,,,,,,,158209,A,2024-06-27_11h14.18.383,EPIDM,2023.1.2,59.78864690199872,
1942.jpg,2890.jpg,1 Points,1 Points,556 Points,PS1_L10.csv,,,,,,,,,,,,,,,,,,,,,,,,,,,,,0,9,9,9,0,6,6,6,,,,,,,,,,,,,,,,,,,2871.8255211659707,q,1.6359248759690672,2873.520855040988,,,,,,,158209,A,2024-06-27_11h14.18.383,EPIDM,2023.1.2,59.78864690199872,
6020.jpg,6300.jpg,2 Points,2 Points,558 Points,PS1_L10.csv,,,,,,,,,,,,,,,,,,,,,,,,,,,,,0,9,9,9,0,7,7,7,,,,,,,,,,,,,,,,,,,2877.7798786240164,p,2.2771962920669466,2880.1157524989685,,,,,,,158209,A,2024-06-27_11h14.18.383,EPIDM,2023.1.2,59.78864690199872,
7170.jpg,2170.jpg,2 Points,2 Points,560 Points,PS1_L10.csv,,,,,,,,,,,,,,,,,,,,,,,,,,,,,0,9,9,9,0,8,8,8,,,,,,,,,,,,,,,,,,,2884.375077207922,p,1.9432756670285016,2886.3882597489282,,,,,,,158209,A,2024-06-27_11h14.18.383,EPIDM,2023.1.2,59.78864690199872,
5510.jpg,2514.jpg,5 Points,5 Points,565 Points,PS1_L10.csv,,,,,,,,,,,,,,,,,,,,,,,,,,,,,0,9,9,9,0,9,9,9,,,,,,,,,,,,,,,,,,,2890.6423188740155,p,1.2761369589716196,2891.985002332949,,,,,,,158209,A,2024-06-27_11h14.18.383,EPIDM,2023.1.2,59.78864690199872,
6840.jpg,3080.jpg,1 Points,1 Points,566 Points,PS1_L10.csv,,,,,,,,,,,,,,,,,,,,,,,,,,,,,0,9,9,9,0,10,10,10,,,,,,,,,,,,,,,,,,,2896.228074708022,q,1.7051772919949144,2897.9991053739795,,,,,,,158209,A,2024-06-27_11h14.18.383,EPIDM,2023.1.2,59.78864690199872,
7195.jpg,2487.jpg,2 Points,2 Points,568 Points,PS1_L10.csv,,,,,,,,,,,,,,,,,,,,,,,,,,,,,0,9,9,9,0,11,11,11,,,,,,,,,,,,,,,,,,,2902.254713290953,p,1.447525750962086,2903.7790901659755,,,,,,,158209,A,2024-06-27_11h14.18.383,EPIDM,2023.1.2,59.78864690199872,
5971.jpg,9912.jpg,5 Points,5 Points,573 Points,PS1_L10.csv,,,,,,,,,,,,,,,,,,,,,,,,,,,,,0,9,9,9,0,12,12,12,,,,,,,,,,,,,,,,,,,2908.027971873991,q,1.5140190420206636,2909.599432582967,,,,,,,158209,A,2024-06-27_11h14.18.383,EPIDM,2023.1.2,59.78864690199872,
2520.jpg,8503.jpg,2 Points,2 Points,575 Points,PS1_L10.csv,,,,,,,,,,,,,,,,,,,,,,,,,,,,,0,9,9,9,0,13,13,13,,,,,,,,,,,,,,,,,,,2913.857806124026,p,2.355218376033008,2916.2862312910147,2,1.010958084021695,,,,,158209,A,2024-06-27_11h14.18.383,EPIDM,2023.1.2,59.78864690199872,
5480.jpg,8200.jpg,4 Points,4 Points,579 Points,PS1_L10.csv,,,,,,,,,,,,,,,,,,,,,,,,,,,,,0,9,9,9,0,14,14,14,,,,,,,,,,,,,,,,,,,2921.6112303739646,q,1.1058104999829084,2922.797978498973,,,,,,,158209,A,2024-06-27_11h14.18.383,EPIDM,2023.1.2,59.78864690199872,
6370.jpg,1270.jpg,4 Points,4 Points,583 Points,PS1_L10.csv,,,,,,,,,,,,,,,,,,,,,,,,,,,,,0,9,9,9,0,15,15,15,,,,,,,,,,,,,,,,,,,2927.0313485829392,p,1.0130162510322407,2928.1231239580084,,,,,,,158209,A,2024-06-27_11h14.18.383,EPIDM,2023.1.2,59.78864690199872,
5130.jpg,1810.jpg,3 Points,3 Points,586 Points,PS1_L10.csv,,,,,,,,,,,,,,,,,,,,,,,,,,,,,0,9,9,9,0,16,16,16,,,,,,,,,,,,,,,,,,,2932.3606259579537,p,1.2518994169076905,2933.6899597910233,,,,,,,158209,A,2024-06-27_11h14.18.383,EPIDM,2023.1.2,59.78864690199872,
4250.jpg,7060.jpg,5 Points,5 Points,591 Points,PS1_L10.csv,,,,,,,,,,,,,,,,,,,,,,,,,,,,,0,9,9,9,0,17,17,17,,,,,,,,,,,,,,,,,,,2937.9334549159976,q,0.7504806260112673,2938.7620958739426,,,,,,,158209,A,2024-06-27_11h14.18.383,EPIDM,2023.1.2,59.78864690199872,
9373.jpg,9410.jpg,0 Points,0 Points,591 Points,PS1_L10.csv,,,,,,,,,,,,,,,,,,,,,,,,,,,,,0,9,9,9,0,18,18,18,,,,,,,,,,,,,,,,,,,2943.010956123937,q,2.2976038759807125,2945.3910971239675,,,,,,,158209,A,2024-06-27_11h14.18.383,EPIDM,2023.1.2,59.78864690199872,
2221.jpg,2270.jpg,2 Points,2 Points,593 Points,PS1_L10.csv,,,,,,,,,,,,,,,,,,,,,,,,,,,,,0,9,9,9,0,19,19,19,,,,,,,,,,,,,,,,,,,2949.632791873999,p,1.0279510009568185,2950.72818229103,,,,,,,158209,A,2024-06-27_11h14.18.383,EPIDM,2023.1.2,59.78864690199872,
1650.jpg,2130.jpg,1 Points,1 Points,594 Points,PS1_L10.csv,,,,,,,,,,,,,,,,,,,,,,,,,,,,,0,9,9,9,0,20,20,20,,,,,,,,,,,,,,,,,,,2954.980471333023,q,1.1672808749135584,2956.2203244989505,,,,,,,158209,A,2024-06-27_11h14.18.383,EPIDM,2023.1.2,59.78864690199872,
1280.jpg,9402.jpg,2 Points,2 Points,596 Points,PS1_L10.csv,,,,,,,,,,,,,,,,,,,,,,,,,,,,,0,9,9,9,0,21,21,21,,,,,,,,,,,,,,,,,,,2960.473824457964,q,1.78121475095395,2962.3187873739516,,,,,,,158209,A,2024-06-27_11h14.18.383,EPIDM,2023.1.2,59.78864690199872,
2214.jpg,4500.jpg,3 Points,3 Points,599 Points,PS1_L10.csv,,,,,,,,,,,,,,,,,,,,,,,,,,,,,0,9,9,9,0,22,22,22,,,,,,,,,,,,,,,,,,,2966.5812598739285,q,1.3344828760018572,2967.985424623941,,,,,,,158209,A,2024-06-27_11h14.18.383,EPIDM,2023.1.2,59.78864690199872,
7284.jpg,8021.jpg,4 Points,4 Points,603 Points,PS1_L10.csv,,,,,,,,,,,,,,,,,,,,,,,,,,,,,0,9,9,9,0,23,23,23,,,,,,,,,,,,,,,,,,,2972.2299249159405,p,1.4298813339555636,2973.738849374,,,2984.205873791012,space,11.501723500085063,,158209,A,2024-06-27_11h14.18.383,EPIDM,2023.1.2,59.78864690199872,
