L_Scene,R_Scene,Points_L,Points_R,PtTotal,blockFile,Instructions_Loop.thisRepN,Instructions_Loop.thisTrialN,Instructions_Loop.thisN,Instructions_Loop.thisIndex,Redo_Instructions_Loop.thisRepN,Redo_Instructions_Loop.thisTrialN,Redo_Instructions_Loop.thisN,Redo_Instructions_Loop.thisIndex,Practice_Encoding_Loop.thisRepN,Practice_Encoding_Loop.thisTrialN,Practice_Encoding_Loop.thisN,Practice_Encoding_Loop.thisIndex,Practice_Response_Fail_Loop.thisRepN,Practice_Response_Fail_Loop.thisTrialN,Practice_Response_Fail_Loop.thisN,Practice_Response_Fail_Loop.thisIndex,Practice_FB_Loop.thisRepN,Practice_FB_Loop.thisTrialN,Practice_FB_Loop.thisN,Practice_FB_Loop.thisIndex,Practice_Attention_Loop.thisRepN,Practice_Attention_Loop.thisTrialN,Practice_Attention_Loop.thisN,Practice_Attention_Loop.thisIndex,Practice_EncBrk_Loop.thisRepN,Practice_EncBrk_Loop.thisTrialN,Practice_EncBrk_Loop.thisN,Practice_EncBrk_Loop.thisIndex,Encoding_Loop.thisRepN,Encoding_Loop.thisTrialN,Encoding_Loop.thisN,Encoding_Loop.thisIndex,EncStim_Loop.thisRepN,EncStim_Loop.thisTrialN,EncStim_Loop.thisN,EncStim_Loop.thisIndex,Response_Fail_Loop.thisRepN,Response_Fail_Loop.thisTrialN,Response_Fail_Loop.thisN,Response_Fail_Loop.thisIndex,FB_Loop.thisRepN,FB_Loop.thisTrialN,FB_Loop.thisN,FB_Loop.thisIndex,Attention_Loop.thisRepN,Attention_Loop.thisTrialN,Attention_Loop.thisN,Attention_Loop.thisIndex,EncBrk_Loop.thisRepN,EncBrk_Loop.thisTrialN,EncBrk_Loop.thisN,EncBrk_Loop.thisIndex,Transition_Enc.keys,Transition_Enc.rt,Encoding_Resp.started,Encoding_Resp.keys,Encoding_Resp.rt,R_Point_FB_Stim.started,Attn_resp.keys,Attn_resp.rt,Progress_Tracker.started,EncBrk_Resp.keys,EncBrk_Resp.rt,participant,Group,date,expName,psychopyVersion,frameRate,
,,,,,,,,,,,,,,,,,,,,,,,,,,,,,,,,,,,,,,,,,,,,,,,,,,,,,,,,,,space,3.891048875171691,,,,,,,,,,269107,A,2024-10-16_19h03.02.706,EPIDM,2023.1.2,59.875832387055624,
A060.jpg,F041.jpg,5 Points,5 Points,5 Points,,,,,,,,,,0,0,0,0,,,,,,,,,,,,,,,,,,,,,,,,,,,,,,,,,,,,,,,,,,,465.96552920900285,p,1.326577375177294,467.44760479195975,,,,,,269107,A,2024-10-16_19h03.02.706,EPIDM,2023.1.2,59.875832387055624,
O161.jpg,1812.jpg,2 Points,2 Points,7 Points,,,,,,,,,,0,1,1,1,,,,,,,,,,,,,,,,,,,,,,,,,,,,,,,,,,,,,,,,,,,471.6240650420077,p,1.5733459580224007,473.3361255838536,,,,,,269107,A,2024-10-16_19h03.02.706,EPIDM,2023.1.2,59.875832387055624,
O013.jpg,A001.jpg,3 Points,3 Points,10 Points,,,,,,,,,,0,2,2,2,,,,,,,,,,,,,,,,,,,,,,,,,,,,,,,,,,,,,,,,,,,477.5091016248334,q,1.1040814162697643,478.75536887487397,,,,,,269107,A,2024-10-16_19h03.02.706,EPIDM,2023.1.2,59.875832387055624,
P036.jpg,F273.jpg,5 Points,5 Points,15 Points,,,,,,,,,,0,3,3,3,,,,,,,,,,,,,,,,,,,,,,,,,,,,,,,,,,,,,,,,,,,482.91660295892507,p,1.3759473331738263,484.46607924997807,,,,,,269107,A,2024-10-16_19h03.02.706,EPIDM,2023.1.2,59.875832387055624,
L130.jpg,2393.jpg,0 Points,0 Points,15 Points,,,,,,,,,,0,4,4,4,,,,,,,,,,,,,,,,,,,,,,,,,,,,,,,,,,,,,,,,,,,488.60210791695863,q,1.2363146252464503,489.97589754196815,0,4.3700850831810385,,,,269107,A,2024-10-16_19h03.02.706,EPIDM,2023.1.2,59.875832387055624,
F279.jpg,P033.jpg,3 Points,3 Points,18 Points,,,,,,,,,,0,5,5,5,,,,,,,,,,,,,,,,,,,,,,,,,,,,,,,,,,,,,,,,,,,498.6169207089115,q,2.243207583203912,501.00604420900345,,,,,,269107,A,2024-10-16_19h03.02.706,EPIDM,2023.1.2,59.875832387055624,
A104.jpg,2593.jpg,2 Points,2 Points,20 Points,,,,,,,,,,0,6,6,6,,,,,,,,,,,,,,,,,,,,,,,,,,,,,,,,,,,,,,,,,,,505.1757753340062,q,1.2758006241638213,506.58985287486576,,,,,,269107,A,2024-10-16_19h03.02.706,EPIDM,2023.1.2,59.875832387055624,
2598.jpg,2605.jpg,0 Points,0 Points,20 Points,,,,,,,,,,0,7,7,7,,,,,,,,,,,,,,,,,,,,,,,,,,,,,,,,,,,,,,,,,,,510.7673814999871,p,1.4863160410895944,512.3566804998554,,,,,,269107,A,2024-10-16_19h03.02.706,EPIDM,2023.1.2,59.875832387055624,
L005.jpg,O011.jpg,1 Points,1 Points,21 Points,,,,,,,,,,0,8,8,8,,,,,,,,,,,,,,,,,,,,,,,,,,,,,,,,,,,,,,,,,,,516.5631123748608,q,1.5371438332367688,518.2408673339523,,,,,,269107,A,2024-10-16_19h03.02.706,EPIDM,2023.1.2,59.875832387055624,
8186.jpg,F078.jpg,2 Points,2 Points,23 Points,,,,,,,,,,0,9,9,9,,,,,,,,,,,,,,,,,,,,,,,,,,,,,,,,,,,,,,,,,,,522.4105306668207,q,1.4496477502398193,524.0026187920012,2,1.6550812502391636,535.8816334169824,space,4.651539208367467,269107,A,2024-10-16_19h03.02.706,EPIDM,2023.1.2,59.875832387055624,
,,,,,,,,,,,,,,,,,,,,,,,,,,,,,,,,,,,,,,,,,,,,,,,,,,,,,,,,,,space,3.3966392083093524,,,,,,,,,,269107,A,2024-10-16_19h03.02.706,EPIDM,2023.1.2,59.875832387055624,
1019.jpg,2120.jpg,0 Points,0 Points,0 Points,PS1_L1.csv,,,,,,,,,,,,,,,,,,,,,,,,,,,,,0,0,0,0,0,0,0,0,,,,,,,,,,,,,,,,,,,568.1960209589452,q,1.1429972911719233,569.4530900840182,,,,,,269107,A,2024-10-16_19h03.02.706,EPIDM,2023.1.2,59.875832387055624,
6900.jpg,8531.jpg,4 Points,4 Points,4 Points,PS1_L1.csv,,,,,,,,,,,,,,,,,,,,,,,,,,,,,0,0,0,0,0,1,1,1,,,,,,,,,,,,,,,,,,,573.6471857088618,q,1.1800284581258893,574.8933516668621,4,2.123727541184053,,,,269107,A,2024-10-16_19h03.02.706,EPIDM,2023.1.2,59.875832387055624,
5594.jpg,5750.jpg,5 Points,5 Points,9 Points,PS1_L1.csv,,,,,,,,,,,,,,,,,,,,,,,,,,,,,0,0,0,0,0,2,2,2,,,,,,,,,,,,,,,,,,,581.3221231668722,p,1.5372323330957443,582.9299510419369,,,,,,269107,A,2024-10-16_19h03.02.706,EPIDM,2023.1.2,59.875832387055624,
2205.jpg,3053.jpg,4 Points,4 Points,13 Points,PS1_L1.csv,,,,,,,,,,,,,,,,,,,,,,,,,,,,,0,0,0,0,0,3,3,3,,,,,,,,,,,,,,,,,,,587.1706005840097,q,2.0242172912694514,589.2694782919716,,,,,,269107,A,2024-10-16_19h03.02.706,EPIDM,2023.1.2,59.875832387055624,
3250.jpg,A053.jpg,3 Points,3 Points,16 Points,PS1_L1.csv,,,,,,,,,,,,,,,,,,,,,,,,,,,,,0,0,0,0,0,4,4,4,,,,,,,,,,,,,,,,,,,593.5110487088095,p,1.6679822083096951,595.2882297500037,,,,,,269107,A,2024-10-16_19h03.02.706,EPIDM,2023.1.2,59.875832387055624,
7950.jpg,7187.jpg,1 Point,1 Point,17 Points,PS1_L1.csv,,,,,,,,,,,,,,,,,,,,,,,,,,,,,0,0,0,0,0,5,5,5,,,,,,,,,,,,,,,,,,,599.4871331248432,p,1.836695333244279,601.4050439998973,,,,,,269107,A,2024-10-16_19h03.02.706,EPIDM,2023.1.2,59.875832387055624,
5535.jpg,8210.jpg,3 Points,3 Points,20 Points,PS1_L1.csv,,,,,,,,,,,,,,,,,,,,,,,,,,,,,0,0,0,0,0,6,6,6,,,,,,,,,,,,,,,,,,,605.6452029589564,p,1.5898985001258552,607.3179868748412,,,,,,269107,A,2024-10-16_19h03.02.706,EPIDM,2023.1.2,59.875832387055624,
9001.jpg,9620.jpg,1 Point,1 Point,21 Points,PS1_L1.csv,,,,,,,,,,,,,,,,,,,,,,,,,,,,,0,0,0,0,0,7,7,7,,,,,,,,,,,,,,,,,,,611.5740040419623,p,1.6519435830414295,613.2987931668758,,,,,,269107,A,2024-10-16_19h03.02.706,EPIDM,2023.1.2,59.875832387055624,
1110.jpg,9331.jpg,2 Points,2 Points,23 Points,PS1_L1.csv,,,,,,,,,,,,,,,,,,,,,,,,,,,,,0,0,0,0,0,8,8,8,,,,,,,,,,,,,,,,,,,617.5350130838342,q,1.6840548331383616,619.289970374899,,,,,,269107,A,2024-10-16_19h03.02.706,EPIDM,2023.1.2,59.875832387055624,
7820.jpg,1121.jpg,0 Points,0 Points,23 Points,PS1_L1.csv,,,,,,,,,,,,,,,,,,,,,,,,,,,,,0,0,0,0,0,9,9,9,,,,,,,,,,,,,,,,,,,623.517632749863,p,1.8921133743133396,625.4799580839463,,,,,,269107,A,2024-10-16_19h03.02.706,EPIDM,2023.1.2,59.875832387055624,
7186.jpg,9182.jpg,2 Points,2 Points,25 Points,PS1_L1.csv,,,,,,,,,,,,,,,,,,,,,,,,,,,,,0,0,0,0,0,10,10,10,,,,,,,,,,,,,,,,,,,629.7205102499574,p,1.66573170828633,631.4690845839214,,,,,,269107,A,2024-10-16_19h03.02.706,EPIDM,2023.1.2,59.875832387055624,
9280.jpg,9390.jpg,1 Point,1 Point,26 Points,PS1_L1.csv,,,,,,,,,,,,,,,,,,,,,,,,,,,,,0,0,0,0,0,11,11,11,,,,,,,,,,,,,,,,,,,635.6939663339872,q,1.3709419581573457,637.1491517918184,,,,,,269107,A,2024-10-16_19h03.02.706,EPIDM,2023.1.2,59.875832387055624,
2440.jpg,7351.jpg,4 Points,4 Points,30 Points,PS1_L1.csv,,,,,,,,,,,,,,,,,,,,,,,,,,,,,0,0,0,0,0,12,12,12,,,,,,,,,,,,,,,,,,,641.379436958814,p,1.3342800410464406,642.7950742088724,,,,,,269107,A,2024-10-16_19h03.02.706,EPIDM,2023.1.2,59.875832387055624,
6834.jpg,9120.jpg,5 Points,5 Points,35 Points,PS1_L1.csv,,,,,,,,,,,,,,,,,,,,,,,,,,,,,0,0,0,0,0,13,13,13,,,,,,,,,,,,,,,,,,,647.0322362920269,p,2.3213736661709845,649.4211858748458,5,1.8859117911197245,,,,269107,A,2024-10-16_19h03.02.706,EPIDM,2023.1.2,59.875832387055624,
9230.jpg,9181.jpg,0 Points,0 Points,35 Points,PS1_L1.csv,,,,,,,,,,,,,,,,,,,,,,,,,,,,,0,0,0,0,0,14,14,14,,,,,,,,,,,,,,,,,,,655.6238702498376,q,2.1537279163021594,657.8309124589432,,,,,,269107,A,2024-10-16_19h03.02.706,EPIDM,2023.1.2,59.875832387055624,
8260.jpg,8280.jpg,3 Points,3 Points,38 Points,PS1_L1.csv,,,,,,,,,,,,,,,,,,,,,,,,,,,,,0,0,0,0,0,15,15,15,,,,,,,,,,,,,,,,,,,662.0797952918801,p,1.2334659160114825,663.3831439998467,,,,,,269107,A,2024-10-16_19h03.02.706,EPIDM,2023.1.2,59.875832387055624,
9470.jpg,9400.jpg,3 Points,3 Points,41 Points,PS1_L1.csv,,,,,,,,,,,,,,,,,,,,,,,,,,,,,0,0,0,0,0,16,16,16,,,,,,,,,,,,,,,,,,,667.6360310418531,p,1.6689955410547554,669.3673353339545,,,,,,269107,A,2024-10-16_19h03.02.706,EPIDM,2023.1.2,59.875832387055624,
2616.jpg,7238.jpg,4 Points,4 Points,45 Points,PS1_L1.csv,,,,,,,,,,,,,,,,,,,,,,,,,,,,,0,0,0,0,0,17,17,17,,,,,,,,,,,,,,,,,,,673.6174385419581,q,1.5826105000451207,675.2669819169678,,,,,,269107,A,2024-10-16_19h03.02.706,EPIDM,2023.1.2,59.875832387055624,
9430.jpg,3010.jpg,5 Points,5 Points,50 Points,PS1_L1.csv,,,,,,,,,,,,,,,,,,,,,,,,,,,,,0,0,0,0,0,18,18,18,,,,,,,,,,,,,,,,,,,679.5105375419371,q,1.8186950411181897,681.3950798748992,,,,,,269107,A,2024-10-16_19h03.02.706,EPIDM,2023.1.2,59.875832387055624,
1661.jpg,1321.jpg,3 Points,3 Points,53 Points,PS1_L1.csv,,,,,,,,,,,,,,,,,,,,,,,,,,,,,0,0,0,0,0,19,19,19,,,,,,,,,,,,,,,,,,,685.6426688749343,p,2.158663875190541,687.8667128749657,,,,,,269107,A,2024-10-16_19h03.02.706,EPIDM,2023.1.2,59.875832387055624,
8041.jpg,2271.jpg,2 Points,2 Points,55 Points,PS1_L1.csv,,,,,,,,,,,,,,,,,,,,,,,,,,,,,0,0,0,0,0,20,20,20,,,,,,,,,,,,,,,,,,,692.1194760419894,q,1.4893688750453293,693.6707171248272,,,,,,269107,A,2024-10-16_19h03.02.706,EPIDM,2023.1.2,59.875832387055624,
9180.jpg,9046.jpg,3 Points,3 Points,58 Points,PS1_L1.csv,,,,,,,,,,,,,,,,,,,,,,,,,,,,,0,0,0,0,0,21,21,21,,,,,,,,,,,,,,,,,,,697.9170191669837,p,1.651326833292842,699.6280108338688,,,,,,269107,A,2024-10-16_19h03.02.706,EPIDM,2023.1.2,59.875832387055624,
2691.jpg,7640.jpg,0 Points,0 Points,58 Points,PS1_L1.csv,,,,,,,,,,,,,,,,,,,,,,,,,,,,,0,0,0,0,0,22,22,22,,,,,,,,,,,,,,,,,,,703.8720461667981,q,1.856617249082774,705.7982509168796,,,,,,269107,A,2024-10-16_19h03.02.706,EPIDM,2023.1.2,59.875832387055624,
1660.jpg,2840.jpg,2 Points,2 Points,60 Points,PS1_L1.csv,,,,,,,,,,,,,,,,,,,,,,,,,,,,,0,0,0,0,0,23,23,23,,,,,,,,,,,,,,,,,,,710.0422762089875,q,1.9821794582530856,712.0992322498932,,,722.5936636249535,space,15.277955083176494,269107,A,2024-10-16_19h03.02.706,EPIDM,2023.1.2,59.875832387055624,
9480.jpg,9250.jpg,0 Points,0 Points,60 Points,PS1_L2.csv,,,,,,,,,,,,,,,,,,,,,,,,,,,,,0,1,1,1,0,0,0,0,,,,,,,,,,,,,,,,,,,741.1836357919965,q,1.3839887080248445,742.6266896668822,,,,,,269107,A,2024-10-16_19h03.02.706,EPIDM,2023.1.2,59.875832387055624,
9910.jpg,6940.jpg,2 Points,2 Points,62 Points,PS1_L2.csv,,,,,,,,,,,,,,,,,,,,,,,,,,,,,0,1,1,1,0,1,1,1,,,,,,,,,,,,,,,,,,,746.8745573339984,p,1.4445880411658436,748.374460541876,2,1.4404246252961457,,,,269107,A,2024-10-16_19h03.02.706,EPIDM,2023.1.2,59.875832387055624,
4535.jpg,1811.jpg,1 Point,1 Point,63 Points,PS1_L2.csv,,,,,,,,,,,,,,,,,,,,,,,,,,,,,0,1,1,1,0,2,2,2,,,,,,,,,,,,,,,,,,,754.1449477088172,p,2.2614563331007957,756.4837735418696,,,,,,269107,A,2024-10-16_19h03.02.706,EPIDM,2023.1.2,59.875832387055624,
2020.jpg,1947.jpg,5 Points,5 Points,68 Points,PS1_L2.csv,,,,,,,,,,,,,,,,,,,,,,,,,,,,,0,1,1,1,0,3,3,3,,,,,,,,,,,,,,,,,,,760.7133550839499,p,1.3085230831056833,762.0982768340036,,,,,,269107,A,2024-10-16_19h03.02.706,EPIDM,2023.1.2,59.875832387055624,
9160.jpg,1200.jpg,4 Points,4 Points,72 Points,PS1_L2.csv,,,,,,,,,,,,,,,,,,,,,,,,,,,,,0,1,1,1,0,4,4,4,,,,,,,,,,,,,,,,,,,766.3410393749364,q,1.9203889581840485,768.3551895418204,,,,,,269107,A,2024-10-16_19h03.02.706,EPIDM,2023.1.2,59.875832387055624,
9520.jpg,1931.jpg,3 Points,3 Points,75 Points,PS1_L2.csv,,,,,,,,,,,,,,,,,,,,,,,,,,,,,0,1,1,1,0,5,5,5,,,,,,,,,,,,,,,,,,,772.592604749836,p,0.886319000273943,773.5478137920145,,,,,,269107,A,2024-10-16_19h03.02.706,EPIDM,2023.1.2,59.875832387055624,
7830.jpg,2499.jpg,3 Points,3 Points,78 Points,PS1_L2.csv,,,,,,,,,,,,,,,,,,,,,,,,,,,,,0,1,1,1,0,6,6,6,,,,,,,,,,,,,,,,,,,777.7836799998768,p,1.6233649582136422,779.4648787919432,,,,,,269107,A,2024-10-16_19h03.02.706,EPIDM,2023.1.2,59.875832387055624,
6830.jpg,6212.jpg,4 Points,4 Points,82 Points,PS1_L2.csv,,,,,,,,,,,,,,,,,,,,,,,,,,,,,0,1,1,1,0,7,7,7,,,,,,,,,,,,,,,,,,,783.7080363749992,q,2.178542416077107,785.9418396668043,,,,,,269107,A,2024-10-16_19h03.02.706,EPIDM,2023.1.2,59.875832387055624,
7285.jpg,4233.jpg,5 Points,5 Points,87 Points,PS1_L2.csv,,,,,,,,,,,,,,,,,,,,,,,,,,,,,0,1,1,1,0,8,8,8,,,,,,,,,,,,,,,,,,,790.1942776248325,p,1.5637094993144274,791.8363136670087,,,,,,269107,A,2024-10-16_19h03.02.706,EPIDM,2023.1.2,59.875832387055624,
1740.jpg,7480.jpg,0 Points,0 Points,87 Points,PS1_L2.csv,,,,,,,,,,,,,,,,,,,,,,,,,,,,,0,1,1,1,0,9,9,9,,,,,,,,,,,,,,,,,,,796.0674039588775,q,1.9302583332173526,798.0690285000019,,,,,,269107,A,2024-10-16_19h03.02.706,EPIDM,2023.1.2,59.875832387055624,
7380.jpg,1220.jpg,1 Point,1 Point,88 Points,PS1_L2.csv,,,,,,,,,,,,,,,,,,,,,,,,,,,,,0,1,1,1,0,10,10,10,,,,,,,,,,,,,,,,,,,802.3106829589233,p,2.0237883331719786,804.3944954168983,,,,,,269107,A,2024-10-16_19h03.02.706,EPIDM,2023.1.2,59.875832387055624,
3061.jpg,2717.jpg,4 Points,4 Points,92 Points,PS1_L2.csv,,,,,,,,,,,,,,,,,,,,,,,,,,,,,0,1,1,1,0,11,11,11,,,,,,,,,,,,,,,,,,,808.6507444588933,p,1.38680229219608,810.0953366670292,,,,,,269107,A,2024-10-16_19h03.02.706,EPIDM,2023.1.2,59.875832387055624,
5460.jpg,5800.jpg,0 Points,0 Points,92 Points,PS1_L2.csv,,,,,,,,,,,,,,,,,,,,,,,,,,,,,0,1,1,1,0,12,12,12,,,,,,,,,,,,,,,,,,,814.366705249995,p,2.6085285833105445,817.0586315838154,,,,,,269107,A,2024-10-16_19h03.02.706,EPIDM,2023.1.2,59.875832387055624,
2215.jpg,2512.jpg,1 Point,1 Point,93 Points,PS1_L2.csv,,,,,,,,,,,,,,,,,,,,,,,,,,,,,0,1,1,1,0,13,13,13,,,,,,,,,,,,,,,,,,,821.2958023748361,q,2.286037583136931,823.6621434998233,1,2.122077417327091,,,,269107,A,2024-10-16_19h03.02.706,EPIDM,2023.1.2,59.875832387055624,
3000.jpg,6200.jpg,5 Points,5 Points,98 Points,PS1_L2.csv,,,,,,,,,,,,,,,,,,,,,,,,,,,,,0,1,1,1,0,14,14,14,,,,,,,,,,,,,,,,,,,830.0995058338158,p,1.0734316252637655,831.248475958826,,,,,,269107,A,2024-10-16_19h03.02.706,EPIDM,2023.1.2,59.875832387055624,
1945.jpg,2800.jpg,4 Points,4 Points,102 Points,PS1_L2.csv,,,,,,,,,,,,,,,,,,,,,,,,,,,,,0,1,1,1,0,15,15,15,,,,,,,,,,,,,,,,,,,835.4841687500011,q,1.9128743333276361,837.4730884998571,,,,,,269107,A,2024-10-16_19h03.02.706,EPIDM,2023.1.2,59.875832387055624,
5660.jpg,5201.jpg,0 Points,0 Points,102 Points,PS1_L2.csv,,,,,,,,,,,,,,,,,,,,,,,,,,,,,0,1,1,1,0,16,16,16,,,,,,,,,,,,,,,,,,,841.7022399168927,q,1.7667560002300888,843.5354843749665,,,,,,269107,A,2024-10-16_19h03.02.706,EPIDM,2023.1.2,59.875832387055624,
3266.jpg,7360.jpg,1 Point,1 Point,103 Points,PS1_L2.csv,,,,,,,,,,,,,,,,,,,,,,,,,,,,,0,1,1,1,0,17,17,17,,,,,,,,,,,,,,,,,,,847.7723592498805,p,1.2574962491635233,849.1085289998446,,,,,,269107,A,2024-10-16_19h03.02.706,EPIDM,2023.1.2,59.875832387055624,
F149.jpg,3030.jpg,0 Points,0 Points,103 Points,PS1_L2.csv,,,,,,,,,,,,,,,,,,,,,,,,,,,,,0,1,1,1,0,18,18,18,,,,,,,,,,,,,,,,,,,853.3362851249985,q,2.292894625104964,855.7385157498065,,,,,,269107,A,2024-10-16_19h03.02.706,EPIDM,2023.1.2,59.875832387055624,
5410.jpg,1450.jpg,5 Points,5 Points,108 Points,PS1_L2.csv,,,,,,,,,,,,,,,,,,,,,,,,,,,,,0,1,1,1,0,19,19,19,,,,,,,,,,,,,,,,,,,859.9402021248825,q,1.7687235411722213,861.7691248748451,,,,,,269107,A,2024-10-16_19h03.02.706,EPIDM,2023.1.2,59.875832387055624,
9101.jpg,9571.jpg,2 Points,2 Points,110 Points,PS1_L2.csv,,,,,,,,,,,,,,,,,,,,,,,,,,,,,0,1,1,1,0,20,20,20,,,,,,,,,,,,,,,,,,,866.0237067088019,q,1.7479935411829501,867.8397267088294,,,,,,269107,A,2024-10-16_19h03.02.706,EPIDM,2023.1.2,59.875832387055624,
9110.jpg,3051.jpg,1 Point,1 Point,111 Points,PS1_L2.csv,,,,,,,,,,,,,,,,,,,,,,,,,,,,,0,1,1,1,0,21,21,21,,,,,,,,,,,,,,,,,,,872.0798465840053,q,2.0125655422452837,874.1647078748792,,,,,,269107,A,2024-10-16_19h03.02.706,EPIDM,2023.1.2,59.875832387055624,
2100.jpg,7205.jpg,5 Points,5 Points,116 Points,PS1_L2.csv,,,,,,,,,,,,,,,,,,,,,,,,,,,,,0,1,1,1,0,22,22,22,,,,,,,,,,,,,,,,,,,878.4046897089574,p,1.7359709991142154,880.2206837090198,,,,,,269107,A,2024-10-16_19h03.02.706,EPIDM,2023.1.2,59.875832387055624,
3160.jpg,6210.jpg,1 Point,1 Point,117 Points,PS1_L2.csv,,,,,,,,,,,,,,,,,,,,,,,,,,,,,0,1,1,1,0,23,23,23,,,,,,,,,,,,,,,,,,,884.463134333957,p,1.245413125026971,885.7742337919772,,,896.2626978748012,space,13.004512083018199,269107,A,2024-10-16_19h03.02.706,EPIDM,2023.1.2,59.875832387055624,
7283.jpg,1720.jpg,4 Points,4 Points,121 Points,PS1_L3.csv,,,,,,,,,,,,,,,,,,,,,,,,,,,,,0,2,2,2,0,0,0,0,,,,,,,,,,,,,,,,,,,912.5804252498783,p,1.1904195002280176,913.8521644589491,,,,,,269107,A,2024-10-16_19h03.02.706,EPIDM,2023.1.2,59.875832387055624,
6571.jpg,P237.jpg,2 Points,2 Points,123 Points,PS1_L3.csv,,,,,,,,,,,,,,,,,,,,,,,,,,,,,0,2,2,2,0,1,1,1,,,,,,,,,,,,,,,,,,,918.0838321249466,q,2.0550854161847383,920.2500170839485,2,1.5039537083357573,,,,269107,A,2024-10-16_19h03.02.706,EPIDM,2023.1.2,59.875832387055624,
6260.jpg,3062.jpg,3 Points,3 Points,126 Points,PS1_L3.csv,,,,,,,,,,,,,,,,,,,,,,,,,,,,,0,2,2,2,0,2,2,2,,,,,,,,,,,,,,,,,,,926.0656771250069,q,0.9289567081723362,927.1213658340275,,,,,,269107,A,2024-10-16_19h03.02.706,EPIDM,2023.1.2,59.875832387055624,
6150.jpg,2206.jpg,0 Points,0 Points,126 Points,PS1_L3.csv,,,,,,,,,,,,,,,,,,,,,,,,,,,,,0,2,2,2,0,3,3,3,,,,,,,,,,,,,,,,,,,931.3153588748537,p,1.7757056241389364,933.1623233340215,,,,,,269107,A,2024-10-16_19h03.02.706,EPIDM,2023.1.2,59.875832387055624,
9300.jpg,1050.jpg,4 Points,4 Points,130 Points,PS1_L3.csv,,,,,,,,,,,,,,,,,,,,,,,,,,,,,0,2,2,2,0,4,4,4,,,,,,,,,,,,,,,,,,,937.3981651249342,p,1.7087977081537247,939.1827272088267,,,,,,269107,A,2024-10-16_19h03.02.706,EPIDM,2023.1.2,59.875832387055624,
F365.jpg,3180.jpg,5 Points,5 Points,135 Points,PS1_L3.csv,,,,,,,,,,,,,,,,,,,,,,,,,,,,,0,2,2,2,0,5,5,5,,,,,,,,,,,,,,,,,,,943.4292076248676,p,1.4770604171790183,945.0092845419422,,,,,,269107,A,2024-10-16_19h03.02.706,EPIDM,2023.1.2,59.875832387055624,
2320.jpg,2791.jpg,4 Points,4 Points,139 Points,PS1_L3.csv,,,,,,,,,,,,,,,,,,,,,,,,,,,,,0,2,2,2,0,6,6,6,,,,,,,,,,,,,,,,,,,949.2277417918667,p,2.447193458210677,951.7661319170147,,,,,,269107,A,2024-10-16_19h03.02.706,EPIDM,2023.1.2,59.875832387055624,
8311.jpg,4609.jpg,2 Points,2 Points,141 Points,PS1_L3.csv,,,,,,,,,,,,,,,,,,,,,,,,,,,,,0,2,2,2,0,7,7,7,,,,,,,,,,,,,,,,,,,955.9825610839762,q,2.6200401671230793,958.6671230418142,,,,,,269107,A,2024-10-16_19h03.02.706,EPIDM,2023.1.2,59.875832387055624,
9042.jpg,2753.jpg,0 Points,0 Points,141 Points,PS1_L3.csv,,,,,,,,,,,,,,,,,,,,,,,,,,,,,0,2,2,2,0,8,8,8,,,,,,,,,,,,,,,,,,,962.909470833838,p,2.396411416120827,965.3673217499163,,,,,,269107,A,2024-10-16_19h03.02.706,EPIDM,2023.1.2,59.875832387055624,
5471.jpg,7352.jpg,2 Points,2 Points,143 Points,PS1_L3.csv,,,,,,,,,,,,,,,,,,,,,,,,,,,,,0,2,2,2,0,9,9,9,,,,,,,,,,,,,,,,,,,969.6161332088523,q,1.7465192913077772,971.4242044999264,,,,,,269107,A,2024-10-16_19h03.02.706,EPIDM,2023.1.2,59.875832387055624,
P222.jpg,9401.jpg,2 Points,2 Points,145 Points,PS1_L3.csv,,,,,,,,,,,,,,,,,,,,,,,,,,,,,0,2,2,2,0,10,10,10,,,,,,,,,,,,,,,,,,,975.6611599170137,p,1.461489458102733,977.235679499805,,,,,,269107,A,2024-10-16_19h03.02.706,EPIDM,2023.1.2,59.875832387055624,
1610.jpg,F203.jpg,0 Points,0 Points,145 Points,PS1_L3.csv,,,,,,,,,,,,,,,,,,,,,,,,,,,,,0,2,2,2,0,11,11,11,,,,,,,,,,,,,,,,,,,981.4360947918613,q,1.6525302082300186,983.2070598748978,,,,,,269107,A,2024-10-16_19h03.02.706,EPIDM,2023.1.2,59.875832387055624,
9405.jpg,6250.2.jpg,3 Points,3 Points,148 Points,PS1_L3.csv,,,,,,,,,,,,,,,,,,,,,,,,,,,,,0,2,2,2,0,12,12,12,,,,,,,,,,,,,,,,,,,987.3991184588522,q,2.570755625143647,990.0811238749884,,,,,,269107,A,2024-10-16_19h03.02.706,EPIDM,2023.1.2,59.875832387055624,
1090.jpg,P217.jpg,5 Points,5 Points,153 Points,PS1_L3.csv,,,,,,,,,,,,,,,,,,,,,,,,,,,,,0,2,2,2,0,13,13,13,,,,,,,,,,,,,,,,,,,994.2768652918749,q,1.891955208266154,996.2736653748434,5,1.2096735411323607,,,,269107,A,2024-10-16_19h03.02.706,EPIDM,2023.1.2,59.875832387055624,
P233.jpg,3060.jpg,1 Point,1 Point,154 Points,PS1_L3.csv,,,,,,,,,,,,,,,,,,,,,,,,,,,,,0,2,2,2,0,14,14,14,,,,,,,,,,,,,,,,,,,1001.803770541912,q,1.901044167112559,1003.841588958865,,,,,,269107,A,2024-10-16_19h03.02.706,EPIDM,2023.1.2,59.875832387055624,
8040.jpg,7185.jpg,1 Point,1 Point,155 Points,PS1_L3.csv,,,,,,,,,,,,,,,,,,,,,,,,,,,,,0,2,2,2,0,15,15,15,,,,,,,,,,,,,,,,,,,1008.0092057918664,q,1.255613542161882,1009.352747958852,,,,,,269107,A,2024-10-16_19h03.02.706,EPIDM,2023.1.2,59.875832387055624,
6550.jpg,9582.jpg,5 Points,5 Points,160 Points,PS1_L3.csv,,,,,,,,,,,,,,,,,,,,,,,,,,,,,0,2,2,2,0,16,16,16,,,,,,,,,,,,,,,,,,,1013.5821901250165,q,2.513597416225821,1016.1730802499224,,,,,,269107,A,2024-10-16_19h03.02.706,EPIDM,2023.1.2,59.875832387055624,
P077.jpg,A041.jpg,1 Point,1 Point,161 Points,PS1_L3.csv,,,,,,,,,,,,,,,,,,,,,,,,,,,,,0,2,2,2,0,17,17,17,,,,,,,,,,,,,,,,,,,1020.4285360840149,q,2.3882241253741086,1022.9602757499088,,,,,,269107,A,2024-10-16_19h03.02.706,EPIDM,2023.1.2,59.875832387055624,
4770.jpg,4275.jpg,3 Points,3 Points,164 Points,PS1_L3.csv,,,,,,,,,,,,,,,,,,,,,,,,,,,,,0,2,2,2,0,18,18,18,,,,,,,,,,,,,,,,,,,1027.1234207919333,q,2.2852939581498504,1029.5167088748422,,,,,,269107,A,2024-10-16_19h03.02.706,EPIDM,2023.1.2,59.875832387055624,
9594.jpg,1080.jpg,4 Points,4 Points,168 Points,PS1_L3.csv,,,,,,,,,,,,,,,,,,,,,,,,,,,,,0,2,2,2,0,19,19,19,,,,,,,,,,,,,,,,,,,1033.710836416809,p,1.8894957501906902,1035.6753842090257,,,,,,269107,A,2024-10-16_19h03.02.706,EPIDM,2023.1.2,59.875832387055624,
2606.jpg,2480.jpg,1 Point,1 Point,169 Points,PS1_L3.csv,,,,,,,,,,,,,,,,,,,,,,,,,,,,,0,2,2,2,0,20,20,20,,,,,,,,,,,,,,,,,,,1039.9028949588537,q,1.5530540831387043,1041.5206774999388,,,,,,269107,A,2024-10-16_19h03.02.706,EPIDM,2023.1.2,59.875832387055624,
1052.jpg,1201.jpg,3 Points,3 Points,172 Points,PS1_L3.csv,,,,,,,,,,,,,,,,,,,,,,,,,,,,,0,2,2,2,0,21,21,21,,,,,,,,,,,,,,,,,,,1045.7583714998327,q,1.513856042176485,1047.3369354589377,,,,,,269107,A,2024-10-16_19h03.02.706,EPIDM,2023.1.2,59.875832387055624,
F369.jpg,3100.jpg,2 Points,2 Points,174 Points,PS1_L3.csv,,,,,,,,,,,,,,,,,,,,,,,,,,,,,0,2,2,2,0,22,22,22,,,,,,,,,,,,,,,,,,,1051.5797297498211,p,1.5404433752410114,1053.2185510839336,,,,,,269107,A,2024-10-16_19h03.02.706,EPIDM,2023.1.2,59.875832387055624,
2620.jpg,2594.jpg,0 Points,0 Points,174 Points,PS1_L3.csv,,,,,,,,,,,,,,,,,,,,,,,,,,,,,0,2,2,2,0,23,23,23,,,,,,,,,,,,,,,,,,,1057.4389812089503,q,1.9290320412255824,1059.4255109590013,,,1069.9244850839023,space,13.778447916032746,269107,A,2024-10-16_19h03.02.706,EPIDM,2023.1.2,59.875832387055624,
P019.jpg,F158.jpg,3 Points,3 Points,177 Points,PS1_L4.csv,,,,,,,,,,,,,,,,,,,,,,,,,,,,,0,3,3,3,0,0,0,0,,,,,,,,,,,,,,,,,,,1087.0029922088142,p,1.6596598331816494,1088.8044499168172,,,,,,269107,A,2024-10-16_19h03.02.706,EPIDM,2023.1.2,59.875832387055624,
7620.jpg,5395.jpg,1 Point,1 Point,178 Points,PS1_L4.csv,,,,,,,,,,,,,,,,,,,,,,,,,,,,,0,3,3,3,0,1,1,1,,,,,,,,,,,,,,,,,,,1092.9730420419946,q,1.409290166106075,1094.488346541999,1,1.3472734992392361,,,,269107,A,2024-10-16_19h03.02.706,EPIDM,2023.1.2,59.875832387055624,
5970.jpg,3300.jpg,0 Points,0 Points,178 Points,PS1_L4.csv,,,,,,,,,,,,,,,,,,,,,,,,,,,,,0,3,3,3,0,2,2,2,,,,,,,,,,,,,,,,,,,1100.1140069589019,q,2.4522198741324246,1102.6368748338427,,,,,,269107,A,2024-10-16_19h03.02.706,EPIDM,2023.1.2,59.875832387055624,
5120.jpg,5520.jpg,2 Points,2 Points,180 Points,PS1_L4.csv,,,,,,,,,,,,,,,,,,,,,,,,,,,,,0,3,3,3,0,3,3,3,,,,,,,,,,,,,,,,,,,1106.8829087088816,p,2.090755792334676,1109.054416458821,,,,,,269107,A,2024-10-16_19h03.02.706,EPIDM,2023.1.2,59.875832387055624,
9452.jpg,7184.jpg,4 Points,4 Points,184 Points,PS1_L4.csv,,,,,,,,,,,,,,,,,,,,,,,,,,,,,0,3,3,3,0,4,4,4,,,,,,,,,,,,,,,,,,,1113.294290666934,q,1.7196684160735458,1115.0794391669333,,,,,,269107,A,2024-10-16_19h03.02.706,EPIDM,2023.1.2,59.875832387055624,
6570.1.jpg,9432.jpg,5 Points,5 Points,189 Points,PS1_L4.csv,,,,,,,,,,,,,,,,,,,,,,,,,,,,,0,3,3,3,0,5,5,5,,,,,,,,,,,,,,,,,,,1119.3156159589998,q,1.8184235412627459,1121.2125883339904,,,,,,269107,A,2024-10-16_19h03.02.706,EPIDM,2023.1.2,59.875832387055624,
2389.jpg,7320.jpg,0 Points,0 Points,189 Points,PS1_L4.csv,,,,,,,,,,,,,,,,,,,,,,,,,,,,,0,3,3,3,0,6,6,6,,,,,,,,,,,,,,,,,,,1125.457395958947,q,1.700651708059013,1127.2369887498207,,,,,,269107,A,2024-10-16_19h03.02.706,EPIDM,2023.1.2,59.875832387055624,
9330.jpg,3015.jpg,5 Points,5 Points,194 Points,PS1_L4.csv,,,,,,,,,,,,,,,,,,,,,,,,,,,,,0,3,3,3,0,7,7,7,,,,,,,,,,,,,,,,,,,1131.4747348749079,q,1.8276109162252396,1133.366349666845,,,,,,269107,A,2024-10-16_19h03.02.706,EPIDM,2023.1.2,59.875832387055624,
9560.jpg,3071.jpg,1 Point,1 Point,195 Points,PS1_L4.csv,,,,,,,,,,,,,,,,,,,,,,,,,,,,,0,3,3,3,0,8,8,8,,,,,,,,,,,,,,,,,,,1137.604658541968,q,1.2099670832976699,1138.8882286669686,,,,,,269107,A,2024-10-16_19h03.02.706,EPIDM,2023.1.2,59.875832387055624,
5994.jpg,5390.jpg,0 Points,0 Points,195 Points,PS1_L4.csv,,,,,,,,,,,,,,,,,,,,,,,,,,,,,0,3,3,3,0,9,9,9,,,,,,,,,,,,,,,,,,,1143.1420038340148,q,0.960395792266354,1144.175766499946,,,,,,269107,A,2024-10-16_19h03.02.706,EPIDM,2023.1.2,59.875832387055624,
2692.jpg,8231.jpg,4 Points,4 Points,199 Points,PS1_L4.csv,,,,,,,,,,,,,,,,,,,,,,,,,,,,,0,3,3,3,0,10,10,10,,,,,,,,,,,,,,,,,,,1148.422221624991,q,2.055803457973525,1150.5339864999987,,,,,,269107,A,2024-10-16_19h03.02.706,EPIDM,2023.1.2,59.875832387055624,
F174.jpg,9404.jpg,5 Points,5 Points,204 Points,PS1_L4.csv,,,,,,,,,,,,,,,,,,,,,,,,,,,,,0,3,3,3,0,11,11,11,,,,,,,,,,,,,,,,,,,1154.7825125418603,p,1.3662494993768632,1156.2567195419688,,,,,,269107,A,2024-10-16_19h03.02.706,EPIDM,2023.1.2,59.875832387055624,
8010.jpg,2630.jpg,0 Points,0 Points,204 Points,PS1_L4.csv,,,,,,,,,,,,,,,,,,,,,,,,,,,,,0,3,3,3,0,12,12,12,,,,,,,,,,,,,,,,,,,1160.464670999907,p,2.277212125249207,1162.8455933339428,,,,,,269107,A,2024-10-16_19h03.02.706,EPIDM,2023.1.2,59.875832387055624,
7175.jpg,7490.jpg,2 Points,2 Points,206 Points,PS1_L4.csv,,,,,,,,,,,,,,,,,,,,,,,,,,,,,0,3,3,3,0,13,13,13,,,,,,,,,,,,,,,,,,,1167.0498651668895,p,1.6263180002570152,1168.7501688338816,2,1.2453090001363307,,,,269107,A,2024-10-16_19h03.02.706,EPIDM,2023.1.2,59.875832387055624,
6561.jpg,1525.jpg,2 Points,2 Points,208 Points,PS1_L4.csv,,,,,,,,,,,,,,,,,,,,,,,,,,,,,0,3,3,3,0,14,14,14,,,,,,,,,,,,,,,,,,,1174.3079702088144,p,1.383672958239913,1175.7583908338565,,,,,,269107,A,2024-10-16_19h03.02.706,EPIDM,2023.1.2,59.875832387055624,
9070.jpg,9420.jpg,2 Points,2 Points,210 Points,PS1_L4.csv,,,,,,,,,,,,,,,,,,,,,,,,,,,,,0,3,3,3,0,15,15,15,,,,,,,,,,,,,,,,,,,1179.998904749984,q,1.868976416066289,1181.9249444999732,,,,,,269107,A,2024-10-16_19h03.02.706,EPIDM,2023.1.2,59.875832387055624,
2516.jpg,8500.jpg,4 Points,4 Points,214 Points,PS1_L4.csv,,,,,,,,,,,,,,,,,,,,,,,,,,,,,0,3,3,3,0,16,16,16,,,,,,,,,,,,,,,,,,,1186.1749030000065,p,0.9328755412716419,1187.1840849588625,,,,,,269107,A,2024-10-16_19h03.02.706,EPIDM,2023.1.2,59.875832387055624,
9140.jpg,2810.jpg,3 Points,3 Points,217 Points,PS1_L4.csv,,,,,,,,,,,,,,,,,,,,,,,,,,,,,0,3,3,3,0,17,17,17,,,,,,,,,,,,,,,,,,,1191.4165376669262,p,2.1320032910443842,1193.6164716249332,,,,,,269107,A,2024-10-16_19h03.02.706,EPIDM,2023.1.2,59.875832387055624,
7220.jpg,8090.jpg,2 Points,2 Points,219 Points,PS1_L4.csv,,,,,,,,,,,,,,,,,,,,,,,,,,,,,0,3,3,3,0,18,18,18,,,,,,,,,,,,,,,,,,,1197.8749342500232,p,1.5294579162728041,1199.4725272918586,,,,,,269107,A,2024-10-16_19h03.02.706,EPIDM,2023.1.2,59.875832387055624,
2661.jpg,2870.jpg,5 Points,5 Points,224 Points,PS1_L4.csv,,,,,,,,,,,,,,,,,,,,,,,,,,,,,0,3,3,3,0,19,19,19,,,,,,,,,,,,,,,,,,,1203.7179897089954,p,1.6625132912304252,1205.4400670838077,,,,,,269107,A,2024-10-16_19h03.02.706,EPIDM,2023.1.2,59.875832387055624,
6010.jpg,7361.jpg,2 Points,2 Points,226 Points,PS1_L4.csv,,,,,,,,,,,,,,,,,,,,,,,,,,,,,0,3,3,3,0,20,20,20,,,,,,,,,,,,,,,,,,,1209.6831774588209,q,1.6569547082763165,1211.4160042088479,,,,,,269107,A,2024-10-16_19h03.02.706,EPIDM,2023.1.2,59.875832387055624,
7289.jpg,4534.jpg,0 Points,0 Points,226 Points,PS1_L4.csv,,,,,,,,,,,,,,,,,,,,,,,,,,,,,0,3,3,3,0,21,21,21,,,,,,,,,,,,,,,,,,,1215.6655359589495,p,1.482248250162229,1217.2302492088638,,,,,,269107,A,2024-10-16_19h03.02.706,EPIDM,2023.1.2,59.875832387055624,
1310.jpg,3181.jpg,4 Points,4 Points,230 Points,PS1_L4.csv,,,,,,,,,,,,,,,,,,,,,,,,,,,,,0,3,3,3,0,22,22,22,,,,,,,,,,,,,,,,,,,1221.4630345839541,q,1.8454188331961632,1223.3788057919592,,,,,,269107,A,2024-10-16_19h03.02.706,EPIDM,2023.1.2,59.875832387055624,
2383.jpg,1616.jpg,2 Points,2 Points,232 Points,PS1_L4.csv,,,,,,,,,,,,,,,,,,,,,,,,,,,,,0,3,3,3,0,23,23,23,,,,,,,,,,,,,,,,,,,1227.6228408748284,p,2.0313295000232756,1229.7275035839994,,,1240.2456268339884,space,7.852483333088458,269107,A,2024-10-16_19h03.02.706,EPIDM,2023.1.2,59.875832387055624,
4510.jpg,2230.jpg,5 Points,5 Points,237 Points,PS1_L5.csv,,,,,,,,,,,,,,,,,,,,,,,,,,,,,0,4,4,4,0,0,0,0,,,,,,,,,,,,,,,,,,,1251.4063916669693,p,1.4133889162912965,1252.8911252499092,,,,,,269107,A,2024-10-16_19h03.02.706,EPIDM,2023.1.2,59.875832387055624,
A025.jpg,1051.jpg,0 Points,0 Points,237 Points,PS1_L5.csv,,,,,,,,,,,,,,,,,,,,,,,,,,,,,0,4,4,4,0,1,1,1,,,,,,,,,,,,,,,,,,,1257.131531624822,p,1.7988947911653668,1259.0467388338875,0,2.3029378331266344,,,,269107,A,2024-10-16_19h03.02.706,EPIDM,2023.1.2,59.875832387055624,
7002.jpg,4660.jpg,4 Points,4 Points,241 Points,PS1_L5.csv,,,,,,,,,,,,,,,,,,,,,,,,,,,,,0,4,4,4,0,2,2,2,,,,,,,,,,,,,,,,,,,1265.6580215420108,p,1.4889271662104875,1267.2709469588008,,,,,,269107,A,2024-10-16_19h03.02.706,EPIDM,2023.1.2,59.875832387055624,
2900.jpg,1101.jpg,3 Points,3 Points,244 Points,PS1_L5.csv,,,,,,,,,,,,,,,,,,,,,,,,,,,,,0,4,4,4,0,3,3,3,,,,,,,,,,,,,,,,,,,1271.4687877090182,p,1.3420760831795633,1272.888073458802,,,,,,269107,A,2024-10-16_19h03.02.706,EPIDM,2023.1.2,59.875832387055624,
2485.jpg,7350.jpg,0 Points,0 Points,244 Points,PS1_L5.csv,,,,,,,,,,,,,,,,,,,,,,,,,,,,,0,4,4,4,0,4,4,4,,,,,,,,,,,,,,,,,,,1277.1214511250146,p,1.440913749160245,1278.6445484168362,,,,,,269107,A,2024-10-16_19h03.02.706,EPIDM,2023.1.2,59.875832387055624,
6242.jpg,F034.jpg,4 Points,4 Points,248 Points,PS1_L5.csv,,,,,,,,,,,,,,,,,,,,,,,,,,,,,0,4,4,4,0,5,5,5,,,,,,,,,,,,,,,,,,,1282.8839364168234,q,1.3974352499935776,1284.3997128750198,,,,,,269107,A,2024-10-16_19h03.02.706,EPIDM,2023.1.2,59.875832387055624,
3170.jpg,6560.jpg,2 Points,2 Points,250 Points,PS1_L5.csv,,,,,,,,,,,,,,,,,,,,,,,,,,,,,0,4,4,4,0,6,6,6,,,,,,,,,,,,,,,,,,,1288.6038885838352,p,1.3410805412568152,1290.0172707089223,,,,,,269107,A,2024-10-16_19h03.02.706,EPIDM,2023.1.2,59.875832387055624,
8033.jpg,7270.jpg,3 Points,3 Points,253 Points,PS1_L5.csv,,,,,,,,,,,,,,,,,,,,,,,,,,,,,0,4,4,4,0,7,7,7,,,,,,,,,,,,,,,,,,,1294.2611354168039,q,1.2046142080798745,1295.5275189999957,,,,,,269107,A,2024-10-16_19h03.02.706,EPIDM,2023.1.2,59.875832387055624,
2597.jpg,5870.jpg,5 Points,5 Points,258 Points,PS1_L5.csv,,,,,,,,,,,,,,,,,,,,,,,,,,,,,0,4,4,4,0,8,8,8,,,,,,,,,,,,,,,,,,,1299.7743724999018,p,1.8191809172276407,1301.665959249949,,,,,,269107,A,2024-10-16_19h03.02.706,EPIDM,2023.1.2,59.875832387055624,
6312.jpg,3230.jpg,2 Points,2 Points,260 Points,PS1_L5.csv,,,,,,,,,,,,,,,,,,,,,,,,,,,,,0,4,4,4,0,9,9,9,,,,,,,,,,,,,,,,,,,1305.9145974589046,q,1.3991970831993967,1307.3877754169516,,,,,,269107,A,2024-10-16_19h03.02.706,EPIDM,2023.1.2,59.875832387055624,
3130.jpg,3500.jpg,4 Points,4 Points,264 Points,PS1_L5.csv,,,,,,,,,,,,,,,,,,,,,,,,,,,,,0,4,4,4,0,10,10,10,,,,,,,,,,,,,,,,,,,1311.6183676668443,p,1.3018218751531094,1313.000360667007,,,,,,269107,A,2024-10-16_19h03.02.706,EPIDM,2023.1.2,59.875832387055624,
2749.jpg,7282.jpg,3 Points,3 Points,267 Points,PS1_L5.csv,,,,,,,,,,,,,,,,,,,,,,,,,,,,,0,4,4,4,0,11,11,11,,,,,,,,,,,,,,,,,,,1317.254134416813,q,1.5798701250459999,1318.9077966669574,,,,,,269107,A,2024-10-16_19h03.02.706,EPIDM,2023.1.2,59.875832387055624,
5300.jpg,2372.jpg,1 Point,1 Point,268 Points,PS1_L5.csv,,,,,,,,,,,,,,,,,,,,,,,,,,,,,0,4,4,4,0,12,12,12,,,,,,,,,,,,,,,,,,,1323.1708424168173,q,1.5645307500381023,1324.8134697088972,,,,,,269107,A,2024-10-16_19h03.02.706,EPIDM,2023.1.2,59.875832387055624,
6510.jpg,A074.jpg,2 Points,2 Points,270 Points,PS1_L5.csv,,,,,,,,,,,,,,,,,,,,,,,,,,,,,0,4,4,4,0,13,13,13,,,,,,,,,,,,,,,,,,,1329.0485357088037,q,2.002063416177407,1331.1694288339932,2,1.2639073331374675,,,,269107,A,2024-10-16_19h03.02.706,EPIDM,2023.1.2,59.875832387055624,
2260.jpg,2830.jpg,5 Points,5 Points,275 Points,PS1_L5.csv,,,,,,,,,,,,,,,,,,,,,,,,,,,,,0,4,4,4,0,14,14,14,,,,,,,,,,,,,,,,,,,1336.7357602089178,p,1.1122658753301948,1337.9212569589727,,,,,,269107,A,2024-10-16_19h03.02.706,EPIDM,2023.1.2,59.875832387055624,
2710.jpg,9252.jpg,1 Point,1 Point,276 Points,PS1_L5.csv,,,,,,,,,,,,,,,,,,,,,,,,,,,,,0,4,4,4,0,15,15,15,,,,,,,,,,,,,,,,,,,1342.1567373748403,q,2.0835102491546422,1344.3109594588168,,,,,,269107,A,2024-10-16_19h03.02.706,EPIDM,2023.1.2,59.875832387055624,
3064.jpg,3168.jpg,4 Points,4 Points,280 Points,PS1_L5.csv,,,,,,,,,,,,,,,,,,,,,,,,,,,,,0,4,4,4,0,16,16,16,,,,,,,,,,,,,,,,,,,1348.5529058338143,q,1.399637458147481,1350.0255857920274,,,,,,269107,A,2024-10-16_19h03.02.706,EPIDM,2023.1.2,59.875832387055624,
1640.jpg,5531.jpg,3 Points,3 Points,283 Points,PS1_L5.csv,,,,,,,,,,,,,,,,,,,,,,,,,,,,,0,4,4,4,0,17,17,17,,,,,,,,,,,,,,,,,,,1354.278685749974,p,1.6338709159754217,1355.988057459006,,,,,,269107,A,2024-10-16_19h03.02.706,EPIDM,2023.1.2,59.875832387055624,
3530.jpg,6213.jpg,1 Point,1 Point,284 Points,PS1_L5.csv,,,,,,,,,,,,,,,,,,,,,,,,,,,,,0,4,4,4,0,18,18,18,,,,,,,,,,,,,,,,,,,1360.222394875018,p,1.480950124328956,1361.7812000419945,,,,,,269107,A,2024-10-16_19h03.02.706,EPIDM,2023.1.2,59.875832387055624,
9090.jpg,7580.jpg,3 Points,3 Points,287 Points,PS1_L5.csv,,,,,,,,,,,,,,,,,,,,,,,,,,,,,0,4,4,4,0,19,19,19,,,,,,,,,,,,,,,,,,,1366.011701124953,p,1.2673929161392152,1367.360160375014,,,,,,269107,A,2024-10-16_19h03.02.706,EPIDM,2023.1.2,59.875832387055624,
8230.jpg,2682.jpg,5 Points,5 Points,292 Points,PS1_L5.csv,,,,,,,,,,,,,,,,,,,,,,,,,,,,,0,4,4,4,0,20,20,20,,,,,,,,,,,,,,,,,,,1371.5983097918797,p,1.2571322910953313,1372.9255517090205,,,,,,269107,A,2024-10-16_19h03.02.706,EPIDM,2023.1.2,59.875832387055624,
9592.jpg,1300.jpg,2 Points,2 Points,294 Points,PS1_L5.csv,,,,,,,,,,,,,,,,,,,,,,,,,,,,,0,4,4,4,0,21,21,21,,,,,,,,,,,,,,,,,,,1377.1626138340216,p,1.6125228751916438,1378.840915999841,,,,,,269107,A,2024-10-16_19h03.02.706,EPIDM,2023.1.2,59.875832387055624,
2490.jpg,2590.jpg,4 Points,4 Points,298 Points,PS1_L5.csv,,,,,,,,,,,,,,,,,,,,,,,,,,,,,0,4,4,4,0,22,22,22,,,,,,,,,,,,,,,,,,,1383.0924883338157,p,1.5377824162133038,1384.6979279587977,,,,,,269107,A,2024-10-16_19h03.02.706,EPIDM,2023.1.2,59.875832387055624,
2190.jpg,7503.jpg,2 Points,2 Points,300 Points,PS1_L5.csv,,,,,,,,,,,,,,,,,,,,,,,,,,,,,0,4,4,4,0,23,23,23,,,,,,,,,,,,,,,,,,,1388.9394865420181,p,1.1388856251724064,1390.1453520839568,,,1400.6661320419516,space,7.875594374258071,269107,A,2024-10-16_19h03.02.706,EPIDM,2023.1.2,59.875832387055624,
1930.jpg,9008.jpg,1 Point,1 Point,301 Points,PS1_L6.csv,,,,,,,,,,,,,,,,,,,,,,,,,,,,,0,5,5,5,0,0,0,0,,,,,,,,,,,,,,,,,,,1411.8510435000062,q,0.7879133331589401,1412.7097084168345,,,,,,269107,A,2024-10-16_19h03.02.706,EPIDM,2023.1.2,59.875832387055624,
4613.jpg,2720.jpg,4 Points,4 Points,305 Points,PS1_L6.csv,,,,,,,,,,,,,,,,,,,,,,,,,,,,,0,5,5,5,0,1,1,1,,,,,,,,,,,,,,,,,,,1416.9484046248253,p,1.4507759581319988,1418.4697192090098,4,1.5540223740972579,,,,269107,A,2024-10-16_19h03.02.706,EPIDM,2023.1.2,59.875832387055624,
3280.jpg,9270.jpg,0 Points,0 Points,305 Points,PS1_L6.csv,,,,,,,,,,,,,,,,,,,,,,,,,,,,,0,5,5,5,0,2,2,2,,,,,,,,,,,,,,,,,,,1424.3411175420042,p,1.657536000246182,1426.0661505840253,,,,,,269107,A,2024-10-16_19h03.02.706,EPIDM,2023.1.2,59.875832387055624,
6800.jpg,9190.jpg,0 Points,0 Points,305 Points,PS1_L6.csv,,,,,,,,,,,,,,,,,,,,,,,,,,,,,0,5,5,5,0,3,3,3,,,,,,,,,,,,,,,,,,,1430.3098527498078,q,1.248800374334678,1431.6176544998307,,,,,,269107,A,2024-10-16_19h03.02.706,EPIDM,2023.1.2,59.875832387055624,
5600.jpg,9080.jpg,5 Points,5 Points,310 Points,PS1_L6.csv,,,,,,,,,,,,,,,,,,,,,,,,,,,,,0,5,5,5,0,4,4,4,,,,,,,,,,,,,,,,,,,1435.8705378749873,q,1.4798175832256675,1437.4200554168783,,,,,,269107,A,2024-10-16_19h03.02.706,EPIDM,2023.1.2,59.875832387055624,
P211.jpg,9041.jpg,4 Points,4 Points,314 Points,PS1_L6.csv,,,,,,,,,,,,,,,,,,,,,,,,,,,,,0,5,5,5,0,5,5,5,,,,,,,,,,,,,,,,,,,1441.6529018748552,p,0.9625738740433007,1442.7390026249923,,,,,,269107,A,2024-10-16_19h03.02.706,EPIDM,2023.1.2,59.875832387055624,
5200.jpg,5020.jpg,0 Points,0 Points,314 Points,PS1_L6.csv,,,,,,,,,,,,,,,,,,,,,,,,,,,,,0,5,5,5,0,6,6,6,,,,,,,,,,,,,,,,,,,1446.9339829168748,q,1.247655917191878,1448.2582952498924,,,,,,269107,A,2024-10-16_19h03.02.706,EPIDM,2023.1.2,59.875832387055624,
1850.jpg,5623.jpg,5 Points,5 Points,319 Points,PS1_L6.csv,,,,,,,,,,,,,,,,,,,,,,,,,,,,,0,5,5,5,0,7,7,7,,,,,,,,,,,,,,,,,,,1452.501104041934,p,1.8318388334009796,1454.4065655840095,,,,,,269107,A,2024-10-16_19h03.02.706,EPIDM,2023.1.2,59.875832387055624,
9440.jpg,6350.jpg,4 Points,4 Points,323 Points,PS1_L6.csv,,,,,,,,,,,,,,,,,,,,,,,,,,,,,0,5,5,5,0,8,8,8,,,,,,,,,,,,,,,,,,,1458.6377662499435,q,1.703286875039339,1460.4119921668898,,,,,,269107,A,2024-10-16_19h03.02.706,EPIDM,2023.1.2,59.875832387055624,
5990.jpg,5780.jpg,3 Points,3 Points,326 Points,PS1_L6.csv,,,,,,,,,,,,,,,,,,,,,,,,,,,,,0,5,5,5,0,9,9,9,,,,,,,,,,,,,,,,,,,1464.6500828748103,q,1.6106762080453336,1466.3284345418215,,,,,,269107,A,2024-10-16_19h03.02.706,EPIDM,2023.1.2,59.875832387055624,
6244.jpg,9265.jpg,0 Points,0 Points,326 Points,PS1_L6.csv,,,,,,,,,,,,,,,,,,,,,,,,,,,,,0,5,5,5,0,10,10,10,,,,,,,,,,,,,,,,,,,1470.5695753339678,q,1.2274699171539396,1471.8630962499883,,,,,,269107,A,2024-10-16_19h03.02.706,EPIDM,2023.1.2,59.875832387055624,
5000.jpg,8180.jpg,4 Points,4 Points,330 Points,PS1_L6.csv,,,,,,,,,,,,,,,,,,,,,,,,,,,,,0,5,5,5,0,11,11,11,,,,,,,,,,,,,,,,,,,1476.1152335000224,p,1.1531160832382739,1477.3398524587974,,,,,,269107,A,2024-10-16_19h03.02.706,EPIDM,2023.1.2,59.875832387055624,
5982.jpg,5260.jpg,5 Points,5 Points,335 Points,PS1_L6.csv,,,,,,,,,,,,,,,,,,,,,,,,,,,,,0,5,5,5,0,12,12,12,,,,,,,,,,,,,,,,,,,1481.575401666807,p,1.0449633332900703,1482.7008281669114,,,,,,269107,A,2024-10-16_19h03.02.706,EPIDM,2023.1.2,59.875832387055624,
1301.jpg,1070.jpg,2 Points,2 Points,337 Points,PS1_L6.csv,,,,,,,,,,,,,,,,,,,,,,,,,,,,,0,5,5,5,0,13,13,13,,,,,,,,,,,,,,,,,,,1486.9325794170145,p,1.4318694584071636,1488.4390482089948,2,1.1052727501373738,,,,269107,A,2024-10-16_19h03.02.706,EPIDM,2023.1.2,59.875832387055624,
7920.jpg,9102.jpg,3 Points,3 Points,340 Points,PS1_L6.csv,,,,,,,,,,,,,,,,,,,,,,,,,,,,,0,5,5,5,0,14,14,14,,,,,,,,,,,,,,,,,,,1493.8484530418646,q,1.9396937501151115,1495.8658401668072,,,,,,269107,A,2024-10-16_19h03.02.706,EPIDM,2023.1.2,59.875832387055624,
5455.jpg,5220.jpg,0 Points,0 Points,340 Points,PS1_L6.csv,,,,,,,,,,,,,,,,,,,,,,,,,,,,,0,5,5,5,0,15,15,15,,,,,,,,,,,,,,,,,,,1500.101864333963,p,1.174352124100551,1501.3473504588474,,,,,,269107,A,2024-10-16_19h03.02.706,EPIDM,2023.1.2,59.875832387055624,
3350.jpg,3210.jpg,1 Point,1 Point,341 Points,PS1_L6.csv,,,,,,,,,,,,,,,,,,,,,,,,,,,,,0,5,5,5,0,16,16,16,,,,,,,,,,,,,,,,,,,1505.591454874957,p,1.3561584583949298,1507.0019934168085,,,,,,269107,A,2024-10-16_19h03.02.706,EPIDM,2023.1.2,59.875832387055624,
2560.jpg,5270.jpg,4 Points,4 Points,345 Points,PS1_L6.csv,,,,,,,,,,,,,,,,,,,,,,,,,,,,,0,5,5,5,0,17,17,17,,,,,,,,,,,,,,,,,,,1511.2528059168253,p,1.7985924161039293,1513.1173942498863,,,,,,269107,A,2024-10-16_19h03.02.706,EPIDM,2023.1.2,59.875832387055624,
9584.jpg,3400.jpg,2 Points,2 Points,347 Points,PS1_L6.csv,,,,,,,,,,,,,,,,,,,,,,,,,,,,,0,5,5,5,0,18,18,18,,,,,,,,,,,,,,,,,,,1517.3652870838996,q,1.0699124580714852,1518.5194118339568,,,,,,269107,A,2024-10-16_19h03.02.706,EPIDM,2023.1.2,59.875832387055624,
5760.jpg,1602.jpg,1 Point,1 Point,348 Points,PS1_L6.csv,,,,,,,,,,,,,,,,,,,,,,,,,,,,,0,5,5,5,0,19,19,19,,,,,,,,,,,,,,,,,,,1522.7609594999813,p,1.3216476670932025,1524.1469985418953,,,,,,269107,A,2024-10-16_19h03.02.706,EPIDM,2023.1.2,59.875832387055624,
7230.jpg,7570.jpg,5 Points,5 Points,353 Points,PS1_L6.csv,,,,,,,,,,,,,,,,,,,,,,,,,,,,,0,5,5,5,0,20,20,20,,,,,,,,,,,,,,,,,,,1528.3966794169974,p,1.1744904580991715,1529.6438730419613,,,,,,269107,A,2024-10-16_19h03.02.706,EPIDM,2023.1.2,59.875832387055624,
1022.jpg,6930.jpg,1 Point,1 Point,354 Points,PS1_L6.csv,,,,,,,,,,,,,,,,,,,,,,,,,,,,,0,5,5,5,0,21,21,21,,,,,,,,,,,,,,,,,,,1533.8848669589497,p,1.5821837501134723,1535.5474403749686,,,,,,269107,A,2024-10-16_19h03.02.706,EPIDM,2023.1.2,59.875832387055624,
8340.jpg,7546.jpg,2 Points,2 Points,356 Points,PS1_L6.csv,,,,,,,,,,,,,,,,,,,,,,,,,,,,,0,5,5,5,0,22,22,22,,,,,,,,,,,,,,,,,,,1539.7816297498066,q,1.5740821671206504,1541.4172004589345,,,,,,269107,A,2024-10-16_19h03.02.706,EPIDM,2023.1.2,59.875832387055624,
6243.jpg,2752.jpg,2 Points,2 Points,358 Points,PS1_L6.csv,,,,,,,,,,,,,,,,,,,,,,,,,,,,,0,5,5,5,0,23,23,23,,,,,,,,,,,,,,,,,,,1545.658666208852,q,2.0565462082158774,1547.774068000028,,,1558.243623916991,space,9.431027458282188,269107,A,2024-10-16_19h03.02.706,EPIDM,2023.1.2,59.875832387055624,
7280.jpg,7160.jpg,0 Points,0 Points,358 Points,PS1_L7.csv,,,,,,,,,,,,,,,,,,,,,,,,,,,,,0,6,6,6,0,0,0,0,,,,,,,,,,,,,,,,,,,1570.9777595838532,q,1.4011677911039442,1572.4756955839694,,,,,,269107,A,2024-10-16_19h03.02.706,EPIDM,2023.1.2,59.875832387055624,
2580.jpg,8300.jpg,3 Points,3 Points,361 Points,PS1_L7.csv,,,,,,,,,,,,,,,,,,,,,,,,,,,,,0,6,6,6,0,1,1,1,,,,,,,,,,,,,,,,,,,1576.6961479168385,p,1.0338204992003739,1577.798457124969,3,1.572300750296563,,,,269107,A,2024-10-16_19h03.02.706,EPIDM,2023.1.2,59.875832387055624,
5972.jpg,6838.jpg,5 Points,5 Points,366 Points,PS1_L7.csv,,,,,,,,,,,,,,,,,,,,,,,,,,,,,0,6,6,6,0,2,2,2,,,,,,,,,,,,,,,,,,,1583.691240083892,q,1.6143511252012104,1585.3809323748574,,,,,,269107,A,2024-10-16_19h03.02.706,EPIDM,2023.1.2,59.875832387055624,
5621.jpg,5534.jpg,3 Points,3 Points,369 Points,PS1_L7.csv,,,,,,,,,,,,,,,,,,,,,,,,,,,,,0,6,6,6,0,3,3,3,,,,,,,,,,,,,,,,,,,1589.629382666899,q,1.1234466664027423,1590.8220781248529,,,,,,269107,A,2024-10-16_19h03.02.706,EPIDM,2023.1.2,59.875832387055624,
8480.jpg,6410.jpg,1 Point,1 Point,370 Points,PS1_L7.csv,,,,,,,,,,,,,,,,,,,,,,,,,,,,,0,6,6,6,0,4,4,4,,,,,,,,,,,,,,,,,,,1595.0607223338448,q,0.9000895412173122,1596.0308295839932,,,,,,269107,A,2024-10-16_19h03.02.706,EPIDM,2023.1.2,59.875832387055624,
2702.jpg,1590.jpg,5 Points,5 Points,375 Points,PS1_L7.csv,,,,,,,,,,,,,,,,,,,,,,,,,,,,,0,6,6,6,0,5,5,5,,,,,,,,,,,,,,,,,,,1600.2727429999504,q,2.17535062530078,1602.531449624803,,,,,,269107,A,2024-10-16_19h03.02.706,EPIDM,2023.1.2,59.875832387055624,
1275.jpg,3150.jpg,1 Point,1 Point,376 Points,PS1_L7.csv,,,,,,,,,,,,,,,,,,,,,,,,,,,,,0,6,6,6,0,6,6,6,,,,,,,,,,,,,,,,,,,1606.7786794998683,q,1.4456084992270917,1608.294395874953,,,,,,269107,A,2024-10-16_19h03.02.706,EPIDM,2023.1.2,59.875832387055624,
1910.jpg,2575.jpg,2 Points,2 Points,378 Points,PS1_L7.csv,,,,,,,,,,,,,,,,,,,,,,,,,,,,,0,6,6,6,0,7,7,7,,,,,,,,,,,,,,,,,,,1612.532336166827,q,1.7072204172145575,1614.3054554169066,,,,,,269107,A,2024-10-16_19h03.02.706,EPIDM,2023.1.2,59.875832387055624,
2518.jpg,2381.jpg,1 Point,1 Point,382 Points,PS1_L7.csv,,,,,,,,,,,,,,,,,,,,,,,,,,,,,0,6,6,6,0,8,8,8,,,,,,,,,,,,,,,,,,,1618.5566566667985,p,1.6538205412216485,1620.2725372919813,,,,,,269107,A,2024-10-16_19h03.02.706,EPIDM,2023.1.2,59.875832387055624,
6250.1.jpg,3301.jpg,0 Points,0 Points,382 Points,PS1_L7.csv,,,,,,,,,,,,,,,,,,,,,,,,,,,,,0,6,6,6,0,9,9,9,,,,,,,,,,,,,,,,,,,1624.5285677919164,q,1.1767633750569075,1625.773187499959,,,,,,269107,A,2024-10-16_19h03.02.706,EPIDM,2023.1.2,59.875832387055624,
7234.jpg,5533.jpg,3 Points,3 Points,385 Points,PS1_L7.csv,,,,,,,,,,,,,,,,,,,,,,,,,,,,,0,6,6,6,0,10,10,10,,,,,,,,,,,,,,,,,,,1630.0152823338285,p,1.2648839163593948,1631.3511625838,,,,,,269107,A,2024-10-16_19h03.02.706,EPIDM,2023.1.2,59.875832387055624,
9920.jpg,3068.jpg,5 Points,5 Points,390 Points,PS1_L7.csv,,,,,,,,,,,,,,,,,,,,,,,,,,,,,0,6,6,6,0,11,11,11,,,,,,,,,,,,,,,,,,,1635.5820913750213,q,1.0495419991202652,1636.6958736670204,,,,,,269107,A,2024-10-16_19h03.02.706,EPIDM,2023.1.2,59.875832387055624,
3022.jpg,2352.2.jpg,0 Points,0 Points,390 Points,PS1_L7.csv,,,,,,,,,,,,,,,,,,,,,,,,,,,,,0,6,6,6,0,12,12,12,,,,,,,,,,,,,,,,,,,1640.942119208863,q,1.5307167491409928,1642.5354697089642,,,,,,269107,A,2024-10-16_19h03.02.706,EPIDM,2023.1.2,59.875832387055624,
8250.jpg,1313.jpg,4 Points,4 Points,394 Points,PS1_L7.csv,,,,,,,,,,,,,,,,,,,,,,,,,,,,,0,6,6,6,0,13,13,13,,,,,,,,,,,,,,,,,,,1646.7847596670035,p,1.846466374117881,1648.7002605840098,4,1.4511548751033843,,,,269107,A,2024-10-16_19h03.02.706,EPIDM,2023.1.2,59.875832387055624,
2690.jpg,9360.jpg,1 Point,1 Point,395 Points,PS1_L7.csv,,,,,,,,,,,,,,,,,,,,,,,,,,,,,0,6,6,6,0,14,14,14,,,,,,,,,,,,,,,,,,,1654.4703069590032,p,1.569023541174829,1656.1137464998756,,,,,,269107,A,2024-10-16_19h03.02.706,EPIDM,2023.1.2,59.875832387055624,
9570.jpg,6610.jpg,0 Points,0 Points,395 Points,PS1_L7.csv,,,,,,,,,,,,,,,,,,,,,,,,,,,,,0,6,6,6,0,15,15,15,,,,,,,,,,,,,,,,,,,1660.3508535840083,p,0.6959315412677824,1661.109756999882,,,,,,269107,A,2024-10-16_19h03.02.706,EPIDM,2023.1.2,59.875832387055624,
3110.jpg,9000.jpg,4 Points,4 Points,399 Points,PS1_L7.csv,,,,,,,,,,,,,,,,,,,,,,,,,,,,,0,6,6,6,0,16,16,16,,,,,,,,,,,,,,,,,,,1665.361597375013,p,1.2526658331044018,1666.6803197090048,,,,,,269107,A,2024-10-16_19h03.02.706,EPIDM,2023.1.2,59.875832387055624,
8465.jpg,8400.jpg,1 Point,1 Point,400 Points,PS1_L7.csv,,,,,,,,,,,,,,,,,,,,,,,,,,,,,0,6,6,6,0,17,17,17,,,,,,,,,,,,,,,,,,,1670.9377547919285,p,1.109325250145048,1672.1195532500278,,,,,,269107,A,2024-10-16_19h03.02.706,EPIDM,2023.1.2,59.875832387055624,
1540.jpg,2600.jpg,1 Point,1 Point,401 Points,PS1_L7.csv,,,,,,,,,,,,,,,,,,,,,,,,,,,,,0,6,6,6,0,18,18,18,,,,,,,,,,,,,,,,,,,1676.364020666806,q,1.0184365001041442,1677.448354333872,,,,,,269107,A,2024-10-16_19h03.02.706,EPIDM,2023.1.2,59.875832387055624,
2276.jpg,6540.jpg,3 Points,3 Points,404 Points,PS1_L7.csv,,,,,,,,,,,,,,,,,,,,,,,,,,,,,0,6,6,6,0,19,19,19,,,,,,,,,,,,,,,,,,,1681.693938458804,p,1.5852740411646664,1683.3440077088308,,,,,,269107,A,2024-10-16_19h03.02.706,EPIDM,2023.1.2,59.875832387055624,
5030.jpg,1670.jpg,3 Points,3 Points,407 Points,PS1_L7.csv,,,,,,,,,,,,,,,,,,,,,,,,,,,,,0,6,6,6,0,20,20,20,,,,,,,,,,,,,,,,,,,1687.6020472499076,q,0.9569144581910223,1688.6153237498365,,,,,,269107,A,2024-10-16_19h03.02.706,EPIDM,2023.1.2,59.875832387055624,
9040.jpg,1120.jpg,3 Points,3 Points,410 Points,PS1_L7.csv,,,,,,,,,,,,,,,,,,,,,,,,,,,,,0,6,6,6,0,21,21,21,,,,,,,,,,,,,,,,,,,1692.8673072499223,p,1.0352883751038462,1693.9766711669508,,,,,,269107,A,2024-10-16_19h03.02.706,EPIDM,2023.1.2,59.875832387055624,
3220.jpg,3063.jpg,5 Points,5 Points,415 Points,PS1_L7.csv,,,,,,,,,,,,,,,,,,,,,,,,,,,,,0,6,6,6,0,22,22,22,,,,,,,,,,,,,,,,,,,1698.2270767500158,q,1.1718610003590584,1699.4709162500221,,,,,,269107,A,2024-10-16_19h03.02.706,EPIDM,2023.1.2,59.875832387055624,
8117.jpg,2880.jpg,5 Points,5 Points,420 Points,PS1_L7.csv,,,,,,,,,,,,,,,,,,,,,,,,,,,,,0,6,6,6,0,23,23,23,,,,,,,,,,,,,,,,,,,1703.7147475839593,q,1.5555378331337124,1705.336089124903,,,1715.8169724999461,space,23.69255333323963,269107,A,2024-10-16_19h03.02.706,EPIDM,2023.1.2,59.875832387055624,
4274.jpg,8160.jpg,2 Points,2 Points,422 Points,PS1_L8.csv,,,,,,,,,,,,,,,,,,,,,,,,,,,,,0,7,7,7,0,0,0,0,,,,,,,,,,,,,,,,,,,1742.8158490839414,p,1.084733250318095,1743.9784025419503,,,,,,269107,A,2024-10-16_19h03.02.706,EPIDM,2023.1.2,59.875832387055624,
6314.jpg,O022.jpg,2 Points,2 Points,424 Points,PS1_L8.csv,,,,,,,,,,,,,,,,,,,,,,,,,,,,,0,7,7,7,0,1,1,1,,,,,,,,,,,,,,,,,,,1748.2255503749475,q,1.7710765001829714,1750.099820583826,2,1.270115708000958,,,,269107,A,2024-10-16_19h03.02.706,EPIDM,2023.1.2,59.875832387055624,
1560.jpg,8185.jpg,0 Points,0 Points,424 Points,PS1_L8.csv,,,,,,,,,,,,,,,,,,,,,,,,,,,,,0,7,7,7,0,2,2,2,,,,,,,,,,,,,,,,,,,1755.6713847918436,q,1.1654410832561553,1756.9437662088312,,,,,,269107,A,2024-10-16_19h03.02.706,EPIDM,2023.1.2,59.875832387055624,
2850.jpg,4532.jpg,3 Points,3 Points,427 Points,PS1_L8.csv,,,,,,,,,,,,,,,,,,,,,,,,,,,,,0,7,7,7,0,3,3,3,,,,,,,,,,,,,,,,,,,1761.1498591250274,p,0.990753916092217,1762.196778499987,,,,,,269107,A,2024-10-16_19h03.02.706,EPIDM,2023.1.2,59.875832387055624,
1390.jpg,9421.jpg,2 Points,2 Points,429 Points,PS1_L8.csv,,,,,,,,,,,,,,,,,,,,,,,,,,,,,0,7,7,7,0,4,4,4,,,,,,,,,,,,,,,,,,,1766.4404932498,p,1.1551261241547763,1767.6629072919022,,,,,,269107,A,2024-10-16_19h03.02.706,EPIDM,2023.1.2,59.875832387055624,
9800.jpg,9433.jpg,1 Point,1 Point,430 Points,PS1_L8.csv,,,,,,,,,,,,,,,,,,,,,,,,,,,,,0,7,7,7,0,5,5,5,,,,,,,,,,,,,,,,,,,1771.9086487919558,q,1.8873365831095725,1773.8645847919397,,,,,,269107,A,2024-10-16_19h03.02.706,EPIDM,2023.1.2,59.875832387055624,
8161.jpg,1900.jpg,4 Points,4 Points,434 Points,PS1_L8.csv,,,,,,,,,,,,,,,,,,,,,,,,,,,,,0,7,7,7,0,6,6,6,,,,,,,,,,,,,,,,,,,1778.1153215419035,p,1.1203018331434578,1779.300947249867,,,,,,269107,A,2024-10-16_19h03.02.706,EPIDM,2023.1.2,59.875832387055624,
1112.jpg,6230.jpg,3 Points,3 Points,437 Points,PS1_L8.csv,,,,,,,,,,,,,,,,,,,,,,,,,,,,,0,7,7,7,0,7,7,7,,,,,,,,,,,,,,,,,,,1783.5478299998213,p,1.0805312502197921,1784.7022382088471,,,,,,269107,A,2024-10-16_19h03.02.706,EPIDM,2023.1.2,59.875832387055624,
1111.jpg,1040.jpg,0 Points,0 Points,437 Points,PS1_L8.csv,,,,,,,,,,,,,,,,,,,,,,,,,,,,,0,7,7,7,0,8,8,8,,,,,,,,,,,,,,,,,,,1788.941776999971,p,1.022497083293274,1790.0465085420292,,,,,,269107,A,2024-10-16_19h03.02.706,EPIDM,2023.1.2,59.875832387055624,
5622.jpg,9156.jpg,4 Points,4 Points,441 Points,PS1_L8.csv,,,,,,,,,,,,,,,,,,,,,,,,,,,,,0,7,7,7,0,9,9,9,,,,,,,,,,,,,,,,,,,1794.284380249912,q,1.2396947082597762,1795.6122721249703,,,,,,269107,A,2024-10-16_19h03.02.706,EPIDM,2023.1.2,59.875832387055624,
2681.jpg,7100.jpg,3 Points,3 Points,444 Points,PS1_L8.csv,,,,,,,,,,,,,,,,,,,,,,,,,,,,,0,7,7,7,0,10,10,10,,,,,,,,,,,,,,,,,,,1799.837875874946,q,1.277621292276308,1801.1944235838018,,,,,,269107,A,2024-10-16_19h03.02.706,EPIDM,2023.1.2,59.875832387055624,
6821.jpg,9622.jpg,2 Points,2 Points,446 Points,PS1_L8.csv,,,,,,,,,,,,,,,,,,,,,,,,,,,,,0,7,7,7,0,11,11,11,,,,,,,,,,,,,,,,,,,1805.4305946249515,p,1.0366716661956161,1806.5340206669644,,,,,,269107,A,2024-10-16_19h03.02.706,EPIDM,2023.1.2,59.875832387055624,
9490.jpg,9210.jpg,1 Point,1 Point,447 Points,PS1_L8.csv,,,,,,,,,,,,,,,,,,,,,,,,,,,,,0,7,7,7,0,12,12,12,,,,,,,,,,,,,,,,,,,1810.7850758749992,p,1.5618597501888871,1812.4100814589765,,,,,,269107,A,2024-10-16_19h03.02.706,EPIDM,2023.1.2,59.875832387055624,
4605.jpg,1510.jpg,4 Points,4 Points,451 Points,PS1_L8.csv,,,,,,,,,,,,,,,,,,,,,,,,,,,,,0,7,7,7,0,13,13,13,,,,,,,,,,,,,,,,,,,1816.666332416935,p,1.184312250232324,1817.9221327919513,4,1.4392385829705745,,,,269107,A,2024-10-16_19h03.02.706,EPIDM,2023.1.2,59.875832387055624,
2240.jpg,5010.jpg,5 Points,5 Points,456 Points,PS1_L8.csv,,,,,,,,,,,,,,,,,,,,,,,,,,,,,0,7,7,7,0,14,14,14,,,,,,,,,,,,,,,,,,,1823.6757561250124,p,0.8383123751264066,1824.5928062088788,,,,,,269107,A,2024-10-16_19h03.02.706,EPIDM,2023.1.2,59.875832387055624,
3102.jpg,F032.jpg,1 Point,1 Point,457 Points,PS1_L8.csv,,,,,,,,,,,,,,,,,,,,,,,,,,,,,0,7,7,7,0,15,15,15,,,,,,,,,,,,,,,,,,,1828.8304831669666,p,1.02039883332327,1829.9587769589853,,,,,,269107,A,2024-10-16_19h03.02.706,EPIDM,2023.1.2,59.875832387055624,
4100.jpg,6570.2.jpg,3 Points,3 Points,460 Points,PS1_L8.csv,,,,,,,,,,,,,,,,,,,,,,,,,,,,,0,7,7,7,0,16,16,16,,,,,,,,,,,,,,,,,,,1834.1497170838993,q,1.4840745411347598,1835.742818000028,,,,,,269107,A,2024-10-16_19h03.02.706,EPIDM,2023.1.2,59.875832387055624,
2650.jpg,4531.jpg,5 Points,5 Points,465 Points,PS1_L8.csv,,,,,,,,,,,,,,,,,,,,,,,,,,,,,0,7,7,7,0,17,17,17,,,,,,,,,,,,,,,,,,,1839.9464444168843,p,1.4565587083343416,1841.4849847499281,,,,,,269107,A,2024-10-16_19h03.02.706,EPIDM,2023.1.2,59.875832387055624,
9320.jpg,9007.jpg,0 Points,0 Points,465 Points,PS1_L8.csv,,,,,,,,,,,,,,,,,,,,,,,,,,,,,0,7,7,7,0,18,18,18,,,,,,,,,,,,,,,,,,,1845.723469458986,q,2.071084667230025,1847.8661407090258,,,,,,269107,A,2024-10-16_19h03.02.706,EPIDM,2023.1.2,59.875832387055624,
8460.jpg,8330.jpg,0 Points,0 Points,465 Points,PS1_L8.csv,,,,,,,,,,,,,,,,,,,,,,,,,,,,,0,7,7,7,0,19,19,19,,,,,,,,,,,,,,,,,,,1852.0976954170037,q,1.7364967491012067,1853.8946244169492,,,,,,269107,A,2024-10-16_19h03.02.706,EPIDM,2023.1.2,59.875832387055624,
2570.jpg,5500.jpg,3 Points,3 Points,468 Points,PS1_L8.csv,,,,,,,,,,,,,,,,,,,,,,,,,,,,,0,7,7,7,0,20,20,20,,,,,,,,,,,,,,,,,,,1858.1352787499782,q,1.369985833298415,1859.574190416839,,,,,,269107,A,2024-10-16_19h03.02.706,EPIDM,2023.1.2,59.875832387055624,
6190.jpg,3120.jpg,5 Points,5 Points,473 Points,PS1_L8.csv,,,,,,,,,,,,,,,,,,,,,,,,,,,,,0,7,7,7,0,21,21,21,,,,,,,,,,,,,,,,,,,1863.8120591249317,q,0.8454482911620289,1864.7385204168968,,,,,,269107,A,2024-10-16_19h03.02.706,EPIDM,2023.1.2,59.875832387055624,
2200.jpg,4598.jpg,1 Point,1 Point,474 Points,PS1_L8.csv,,,,,,,,,,,,,,,,,,,,,,,,,,,,,0,7,7,7,0,22,22,22,,,,,,,,,,,,,,,,,,,1868.976600291906,p,0.9044881660956889,1869.9602894999553,,,,,,269107,A,2024-10-16_19h03.02.706,EPIDM,2023.1.2,59.875832387055624,
1303.jpg,2000.jpg,0 Points,0 Points,474 Points,PS1_L8.csv,,,,,,,,,,,,,,,,,,,,,,,,,,,,,0,7,7,7,0,23,23,23,,,,,,,,,,,,,,,,,,,1874.19194266689,q,1.2327816241886467,1875.5008077919483,,,1886.021890749922,space,1.9630143330432475,269107,A,2024-10-16_19h03.02.706,EPIDM,2023.1.2,59.875832387055624,
9010.jpg,9253.jpg,0 Points,0 Points,474 Points,PS1_L9.csv,,,,,,,,,,,,,,,,,,,,,,,,,,,,,0,8,8,8,0,0,0,0,,,,,,,,,,,,,,,,,,,1891.291363874916,p,2.341716167051345,1893.6988804168068,,,,,,269107,A,2024-10-16_19h03.02.706,EPIDM,2023.1.2,59.875832387055624,
1302.jpg,2700.jpg,3 Points,3 Points,477 Points,PS1_L9.csv,,,,,,,,,,,,,,,,,,,,,,,,,,,,,0,8,8,8,0,1,1,1,,,,,,,,,,,,,,,,,,,1897.9476040420122,q,1.350301958154887,1899.373400916811,3,1.0881106252782047,,,,269107,A,2024-10-16_19h03.02.706,EPIDM,2023.1.2,59.875832387055624,
2030.jpg,2495.jpg,0 Points,0 Points,477 Points,PS1_L9.csv,,,,,,,,,,,,,,,,,,,,,,,,,,,,,0,8,8,8,0,2,2,2,,,,,,,,,,,,,,,,,,,1904.7653985000215,p,1.2110272080171853,1906.0439232918434,,,,,,269107,A,2024-10-16_19h03.02.706,EPIDM,2023.1.2,59.875832387055624,
2110.jpg,7260.jpg,5 Points,5 Points,482 Points,PS1_L9.csv,,,,,,,,,,,,,,,,,,,,,,,,,,,,,0,8,8,8,0,3,3,3,,,,,,,,,,,,,,,,,,,1910.2918864169624,q,1.3970259581692517,1911.7751465418842,,,,,,269107,A,2024-10-16_19h03.02.706,EPIDM,2023.1.2,59.875832387055624,
2053.jpg,9415.jpg,4 Points,4 Points,486 Points,PS1_L9.csv,,,,,,,,,,,,,,,,,,,,,,,,,,,,,0,8,8,8,0,4,4,4,,,,,,,,,,,,,,,,,,,1916.0118008339778,p,1.0836272083688527,1917.1620317089837,,,,,,269107,A,2024-10-16_19h03.02.706,EPIDM,2023.1.2,59.875832387055624,
6211.jpg,9611.jpg,3 Points,3 Points,489 Points,PS1_L9.csv,,,,,,,,,,,,,,,,,,,,,,,,,,,,,0,8,8,8,0,5,5,5,,,,,,,,,,,,,,,,,,,1921.398221249925,p,1.0579348332248628,1922.5221194999758,,,,,,269107,A,2024-10-16_19h03.02.706,EPIDM,2023.1.2,59.875832387055624,
8350.jpg,7190.jpg,5 Points,5 Points,494 Points,PS1_L9.csv,,,,,,,,,,,,,,,,,,,,,,,,,,,,,0,8,8,8,0,6,6,6,,,,,,,,,,,,,,,,,,,1926.7728684998583,q,1.3793152081780136,1928.2260732499417,,,,,,269107,A,2024-10-16_19h03.02.706,EPIDM,2023.1.2,59.875832387055624,
9340.jpg,6910.jpg,0 Points,0 Points,494 Points,PS1_L9.csv,,,,,,,,,,,,,,,,,,,,,,,,,,,,,0,8,8,8,0,7,7,7,,,,,,,,,,,,,,,,,,,1932.462550124852,p,1.0581410410813987,1933.6007255418226,,,,,,269107,A,2024-10-16_19h03.02.706,EPIDM,2023.1.2,59.875832387055624,
4533.jpg,2385.jpg,3 Points,3 Points,497 Points,PS1_L9.csv,,,,,,,,,,,,,,,,,,,,,,,,,,,,,0,8,8,8,0,8,8,8,,,,,,,,,,,,,,,,,,,1937.837577834027,q,1.0191236671525985,1938.9389316248707,,,,,,269107,A,2024-10-16_19h03.02.706,EPIDM,2023.1.2,59.875832387055624,
5940.jpg,9411.jpg,0 Points,0 Points,497 Points,PS1_L9.csv,,,,,,,,,,,,,,,,,,,,,,,,,,,,,0,8,8,8,0,9,9,9,,,,,,,,,,,,,,,,,,,1943.1766809169203,q,1.424535958096385,1944.6731666249689,,,,,,269107,A,2024-10-16_19h03.02.706,EPIDM,2023.1.2,59.875832387055624,
2220.jpg,2010.jpg,5 Points,5 Points,502 Points,PS1_L9.csv,,,,,,,,,,,,,,,,,,,,,,,,,,,,,0,8,8,8,0,10,10,10,,,,,,,,,,,,,,,,,,,1948.9104639168363,q,1.0805315831676126,1950.0774207089562,,,,,,269107,A,2024-10-16_19h03.02.706,EPIDM,2023.1.2,59.875832387055624,
9500.jpg,6360.jpg,1 Point,1 Point,503 Points,PS1_L9.csv,,,,,,,,,,,,,,,,,,,,,,,,,,,,,0,8,8,8,0,11,11,11,,,,,,,,,,,,,,,,,,,1954.3116993748117,p,1.505040000192821,1955.8950084589887,,,,,,269107,A,2024-10-16_19h03.02.706,EPIDM,2023.1.2,59.875832387055624,
2092.jpg,2210.jpg,0 Points,0 Points,503 Points,PS1_L9.csv,,,,,,,,,,,,,,,,,,,,,,,,,,,,,0,8,8,8,0,12,12,12,,,,,,,,,,,,,,,,,,,1960.1311057498679,q,1.6692699580453336,1961.8767617919948,,,,,,269107,A,2024-10-16_19h03.02.706,EPIDM,2023.1.2,59.875832387055624,
9530.jpg,9220.jpg,1 Point,1 Point,504 Points,PS1_L9.csv,,,,,,,,,,,,,,,,,,,,,,,,,,,,,0,8,8,8,0,13,13,13,,,,,,,,,,,,,,,,,,,1966.136016291799,q,2.054474125150591,1968.2549839999992,1,1.2015142082236707,,,,269107,A,2024-10-16_19h03.02.706,EPIDM,2023.1.2,59.875832387055624,
9254.jpg,9290.jpg,2 Points,2 Points,506 Points,PS1_L9.csv,,,,,,,,,,,,,,,,,,,,,,,,,,,,,0,8,8,8,0,14,14,14,,,,,,,,,,,,,,,,,,,1973.7756231250241,q,1.3830417082645,1975.2166527498048,,,,,,269107,A,2024-10-16_19h03.02.706,EPIDM,2023.1.2,59.875832387055624,
4608.jpg,8320.jpg,1 Point,1 Point,507 Points,PS1_L9.csv,,,,,,,,,,,,,,,,,,,,,,,,,,,,,0,8,8,8,0,15,15,15,,,,,,,,,,,,,,,,,,,1979.4692397499457,q,1.0405037503223866,1980.580391791882,,,,,,269107,A,2024-10-16_19h03.02.706,EPIDM,2023.1.2,59.875832387055624,
7237.jpg,8510.jpg,4 Points,4 Points,511 Points,PS1_L9.csv,,,,,,,,,,,,,,,,,,,,,,,,,,,,,0,8,8,8,0,16,16,16,,,,,,,,,,,,,,,,,,,1984.8175694169477,p,0.9568410001229495,1985.846402999945,,,,,,269107,A,2024-10-16_19h03.02.706,EPIDM,2023.1.2,59.875832387055624,
9417.jpg,6530.jpg,1 Point,1 Point,512 Points,PS1_L9.csv,,,,,,,,,,,,,,,,,,,,,,,,,,,,,0,8,8,8,0,17,17,17,,,,,,,,,,,,,,,,,,,1990.080628208816,p,1.4213886661455035,1991.595090250019,,,,,,269107,A,2024-10-16_19h03.02.706,EPIDM,2023.1.2,59.875832387055624,
6831.jpg,2141.jpg,5 Points,5 Points,517 Points,PS1_L9.csv,,,,,,,,,,,,,,,,,,,,,,,,,,,,,0,8,8,8,0,18,18,18,,,,,,,,,,,,,,,,,,,1995.8281643339433,p,1.5130011662840843,1997.4133425839245,,,,,,269107,A,2024-10-16_19h03.02.706,EPIDM,2023.1.2,59.875832387055624,
4689.jpg,7009.jpg,5 Points,5 Points,522 Points,PS1_L9.csv,,,,,,,,,,,,,,,,,,,,,,,,,,,,,0,8,8,8,0,19,19,19,,,,,,,,,,,,,,,,,,,2001.6465597089846,q,0.926894374191761,2002.6481691668741,,,,,,269107,A,2024-10-16_19h03.02.706,EPIDM,2023.1.2,59.875832387055624,
2751.jpg,6313.jpg,3 Points,3 Points,525 Points,PS1_L9.csv,,,,,,,,,,,,,,,,,,,,,,,,,,,,,0,8,8,8,0,20,20,20,,,,,,,,,,,,,,,,,,,2006.8918893339578,p,1.506593666272238,2008.478560958989,,,,,,269107,A,2024-10-16_19h03.02.706,EPIDM,2023.1.2,59.875832387055624,
4621.jpg,3550.jpg,2 Points,2 Points,527 Points,PS1_L9.csv,,,,,,,,,,,,,,,,,,,,,,,,,,,,,0,8,8,8,0,21,21,21,,,,,,,,,,,,,,,,,,,2012.7159723748919,p,1.5776981252711266,2014.3684648748022,,,,,,269107,A,2024-10-16_19h03.02.706,EPIDM,2023.1.2,59.875832387055624,
8220.jpg,2410.jpg,4 Points,4 Points,531 Points,PS1_L9.csv,,,,,,,,,,,,,,,,,,,,,,,,,,,,,0,8,8,8,0,22,22,22,,,,,,,,,,,,,,,,,,,2018.6076854588464,q,1.6857653332408518,2020.3537099999376,,,,,,269107,A,2024-10-16_19h03.02.706,EPIDM,2023.1.2,59.875832387055624,
1113.jpg,1240.jpg,3 Points,3 Points,534 Points,PS1_L9.csv,,,,,,,,,,,,,,,,,,,,,,,,,,,,,0,8,8,8,0,23,23,23,,,,,,,,,,,,,,,,,,,2024.6044805420097,q,1.1848440000321716,2025.8672475419007,,,2036.3378796668258,space,4.595186833059415,269107,A,2024-10-16_19h03.02.706,EPIDM,2023.1.2,59.875832387055624,
2750.jpg,9050.jpg,4 Points,4 Points,538 Points,PS1_L10.csv,,,,,,,,,,,,,,,,,,,,,,,,,,,,,0,9,9,9,0,0,0,0,,,,,,,,,,,,,,,,,,,2044.23763112491,p,1.4311668751761317,2045.733102625003,,,,,,269107,A,2024-10-16_19h03.02.706,EPIDM,2023.1.2,59.875832387055624,
2312.jpg,2722.jpg,1 Points,1 Points,539 Points,PS1_L10.csv,,,,,,,,,,,,,,,,,,,,,,,,,,,,,0,9,9,9,0,1,1,1,,,,,,,,,,,,,,,,,,,2049.979595541954,q,1.2569531660992652,2051.2994238338433,1,1.4814058332704008,,,,269107,A,2024-10-16_19h03.02.706,EPIDM,2023.1.2,59.875832387055624,
8232.jpg,4279.jpg,5 Points,5 Points,544 Points,PS1_L10.csv,,,,,,,,,,,,,,,,,,,,,,,,,,,,,0,9,9,9,0,2,2,2,,,,,,,,,,,,,,,,,,,2057.079616833944,p,1.0359041669871658,2058.197454374982,,,,,,269107,A,2024-10-16_19h03.02.706,EPIDM,2023.1.2,59.875832387055624,
6000.jpg,6836.jpg,4 Points,4 Points,548 Points,PS1_L10.csv,,,,,,,,,,,,,,,,,,,,,,,,,,,,,0,9,9,9,0,3,3,3,,,,,,,,,,,,,,,,,,,2062.43309291685,q,1.1880481662228703,2063.6969072918873,,,,,,269107,A,2024-10-16_19h03.02.706,EPIDM,2023.1.2,59.875832387055624,
4536.jpg,2280.jpg,4 Points,4 Points,552 Points,PS1_L10.csv,,,,,,,,,,,,,,,,,,,,,,,,,,,,,0,9,9,9,0,4,4,4,,,,,,,,,,,,,,,,,,,2067.9375211668666,p,1.018561917124316,2069.0290599998552,,,,,,269107,A,2024-10-16_19h03.02.706,EPIDM,2023.1.2,59.875832387055624,
6241.jpg,9561.jpg,3 Points,3 Points,555 Points,PS1_L10.csv,,,,,,,,,,,,,,,,,,,,,,,,,,,,,0,9,9,9,0,5,5,5,,,,,,,,,,,,,,,,,,,2073.2591746249236,q,1.7120216661132872,2075.052372999955,,,,,,269107,A,2024-10-16_19h03.02.706,EPIDM,2023.1.2,59.875832387055624,
1942.jpg,2890.jpg,1 Points,1 Points,556 Points,PS1_L10.csv,,,,,,,,,,,,,,,,,,,,,,,,,,,,,0,9,9,9,0,6,6,6,,,,,,,,,,,,,,,,,,,2079.281365166884,q,1.506330958334729,2080.8486762088723,,,,,,269107,A,2024-10-16_19h03.02.706,EPIDM,2023.1.2,59.875832387055624,
6020.jpg,6300.jpg,2 Points,2 Points,558 Points,PS1_L10.csv,,,,,,,,,,,,,,,,,,,,,,,,,,,,,0,9,9,9,0,7,7,7,,,,,,,,,,,,,,,,,,,2085.1001988339704,p,1.3343477081507444,2086.5046252920292,,,,,,269107,A,2024-10-16_19h03.02.706,EPIDM,2023.1.2,59.875832387055624,
7170.jpg,2170.jpg,2 Points,2 Points,560 Points,PS1_L10.csv,,,,,,,,,,,,,,,,,,,,,,,,,,,,,0,9,9,9,0,8,8,8,,,,,,,,,,,,,,,,,,,2090.7485699588433,p,1.4385804580524564,2092.252551459009,,,,,,269107,A,2024-10-16_19h03.02.706,EPIDM,2023.1.2,59.875832387055624,
5510.jpg,2514.jpg,5 Points,5 Points,565 Points,PS1_L10.csv,,,,,,,,,,,,,,,,,,,,,,,,,,,,,0,9,9,9,0,9,9,9,,,,,,,,,,,,,,,,,,,2096.4909578338265,q,1.4086705001536757,2097.9776919588912,,,,,,269107,A,2024-10-16_19h03.02.706,EPIDM,2023.1.2,59.875832387055624,
6840.jpg,3080.jpg,1 Points,1 Points,566 Points,PS1_L10.csv,,,,,,,,,,,,,,,,,,,,,,,,,,,,,0,9,9,9,0,10,10,10,,,,,,,,,,,,,,,,,,,2102.221730124904,q,1.0449990422930568,2103.3278641249053,,,,,,269107,A,2024-10-16_19h03.02.706,EPIDM,2023.1.2,59.875832387055624,
7195.jpg,2487.jpg,2 Points,2 Points,568 Points,PS1_L10.csv,,,,,,,,,,,,,,,,,,,,,,,,,,,,,0,9,9,9,0,11,11,11,,,,,,,,,,,,,,,,,,,2107.57274600002,q,1.525770208099857,2109.165818542009,,,,,,269107,A,2024-10-16_19h03.02.706,EPIDM,2023.1.2,59.875832387055624,
5971.jpg,9912.jpg,5 Points,5 Points,573 Points,PS1_L10.csv,,,,,,,,,,,,,,,,,,,,,,,,,,,,,0,9,9,9,0,12,12,12,,,,,,,,,,,,,,,,,,,2113.4063124589156,q,1.3092855832073838,2114.7750222089235,,,,,,269107,A,2024-10-16_19h03.02.706,EPIDM,2023.1.2,59.875832387055624,
2520.jpg,8503.jpg,2 Points,2 Points,575 Points,PS1_L10.csv,,,,,,,,,,,,,,,,,,,,,,,,,,,,,0,9,9,9,0,13,13,13,,,,,,,,,,,,,,,,,,,2119.024604041828,p,1.2097530420869589,2120.3046386667993,2,1.3168812922667712,,,,269107,A,2024-10-16_19h03.02.706,EPIDM,2023.1.2,59.875832387055624,
5480.jpg,8200.jpg,4 Points,4 Points,579 Points,PS1_L10.csv,,,,,,,,,,,,,,,,,,,,,,,,,,,,,0,9,9,9,0,14,14,14,,,,,,,,,,,,,,,,,,,2125.939578874968,p,1.3744494991842657,2127.3953906670213,,,,,,269107,A,2024-10-16_19h03.02.706,EPIDM,2023.1.2,59.875832387055624,
6370.jpg,1270.jpg,4 Points,4 Points,583 Points,PS1_L10.csv,,,,,,,,,,,,,,,,,,,,,,,,,,,,,0,9,9,9,0,15,15,15,,,,,,,,,,,,,,,,,,,2131.621091958834,q,1.0079736250918359,2132.709431666881,,,,,,269107,A,2024-10-16_19h03.02.706,EPIDM,2023.1.2,59.875832387055624,
5130.jpg,1810.jpg,3 Points,3 Points,586 Points,PS1_L10.csv,,,,,,,,,,,,,,,,,,,,,,,,,,,,,0,9,9,9,0,16,16,16,,,,,,,,,,,,,,,,,,,2136.943481874885,p,1.0509278331883252,2138.0783383748494,,,,,,269107,A,2024-10-16_19h03.02.706,EPIDM,2023.1.2,59.875832387055624,
4250.jpg,7060.jpg,5 Points,5 Points,591 Points,PS1_L10.csv,,,,,,,,,,,,,,,,,,,,,,,,,,,,,0,9,9,9,0,17,17,17,,,,,,,,,,,,,,,,,,,2142.308949874947,q,0.9009126252494752,2143.2897895418573,,,,,,269107,A,2024-10-16_19h03.02.706,EPIDM,2023.1.2,59.875832387055624,
9373.jpg,9410.jpg,0 Points,0 Points,591 Points,PS1_L10.csv,,,,,,,,,,,,,,,,,,,,,,,,,,,,,0,9,9,9,0,18,18,18,,,,,,,,,,,,,,,,,,,2147.5181410419755,p,1.3636247082613409,2148.959398166975,,,,,,269107,A,2024-10-16_19h03.02.706,EPIDM,2023.1.2,59.875832387055624,
2221.jpg,2270.jpg,2 Points,2 Points,593 Points,PS1_L10.csv,,,,,,,,,,,,,,,,,,,,,,,,,,,,,0,9,9,9,0,19,19,19,,,,,,,,,,,,,,,,,,,2153.1930823749863,q,0.9598546251654625,2154.2158717499115,,,,,,269107,A,2024-10-16_19h03.02.706,EPIDM,2023.1.2,59.875832387055624,
1650.jpg,2130.jpg,1 Points,1 Points,594 Points,PS1_L10.csv,,,,,,,,,,,,,,,,,,,,,,,,,,,,,0,9,9,9,0,20,20,20,,,,,,,,,,,,,,,,,,,2158.479886875022,p,1.4657808751799166,2160.0217751248274,,,,,,269107,A,2024-10-16_19h03.02.706,EPIDM,2023.1.2,59.875832387055624,
1280.jpg,9402.jpg,2 Points,2 Points,596 Points,PS1_L10.csv,,,,,,,,,,,,,,,,,,,,,,,,,,,,,0,9,9,9,0,21,21,21,,,,,,,,,,,,,,,,,,,2164.266023624921,p,1.6961794581729919,2166.030417166883,,,,,,269107,A,2024-10-16_19h03.02.706,EPIDM,2023.1.2,59.875832387055624,
2214.jpg,4500.jpg,3 Points,3 Points,599 Points,PS1_L10.csv,,,,,,,,,,,,,,,,,,,,,,,,,,,,,0,9,9,9,0,22,22,22,,,,,,,,,,,,,,,,,,,2170.2665818748064,p,1.2552175412420183,2171.5936543338466,,,,,,269107,A,2024-10-16_19h03.02.706,EPIDM,2023.1.2,59.875832387055624,
7284.jpg,8021.jpg,4 Points,4 Points,603 Points,PS1_L10.csv,,,,,,,,,,,,,,,,,,,,,,,,,,,,,0,9,9,9,0,23,23,23,,,,,,,,,,,,,,,,,,,2175.8334282918368,p,1.0864422912709415,2177.0009714588523,,,2187.512887291843,space,9.68070691707544,269107,A,2024-10-16_19h03.02.706,EPIDM,2023.1.2,59.875832387055624,
