L_Scene,R_Scene,Points_L,Points_R,PtTotal,blockFile,Instructions_Loop.thisRepN,Instructions_Loop.thisTrialN,Instructions_Loop.thisN,Instructions_Loop.thisIndex,Redo_Instructions_Loop.thisRepN,Redo_Instructions_Loop.thisTrialN,Redo_Instructions_Loop.thisN,Redo_Instructions_Loop.thisIndex,Practice_Encoding_Loop.thisRepN,Practice_Encoding_Loop.thisTrialN,Practice_Encoding_Loop.thisN,Practice_Encoding_Loop.thisIndex,Practice_Response_Fail_Loop.thisRepN,Practice_Response_Fail_Loop.thisTrialN,Practice_Response_Fail_Loop.thisN,Practice_Response_Fail_Loop.thisIndex,Practice_FB_Loop.thisRepN,Practice_FB_Loop.thisTrialN,Practice_FB_Loop.thisN,Practice_FB_Loop.thisIndex,Practice_Attention_Loop.thisRepN,Practice_Attention_Loop.thisTrialN,Practice_Attention_Loop.thisN,Practice_Attention_Loop.thisIndex,Practice_EncBrk_Loop.thisRepN,Practice_EncBrk_Loop.thisTrialN,Practice_EncBrk_Loop.thisN,Practice_EncBrk_Loop.thisIndex,Encoding_Loop.thisRepN,Encoding_Loop.thisTrialN,Encoding_Loop.thisN,Encoding_Loop.thisIndex,EncStim_Loop.thisRepN,EncStim_Loop.thisTrialN,EncStim_Loop.thisN,EncStim_Loop.thisIndex,Response_Fail_Loop.thisRepN,Response_Fail_Loop.thisTrialN,Response_Fail_Loop.thisN,Response_Fail_Loop.thisIndex,FB_Loop.thisRepN,FB_Loop.thisTrialN,FB_Loop.thisN,FB_Loop.thisIndex,Attention_Loop.thisRepN,Attention_Loop.thisTrialN,Attention_Loop.thisN,Attention_Loop.thisIndex,EncBrk_Loop.thisRepN,EncBrk_Loop.thisTrialN,EncBrk_Loop.thisN,EncBrk_Loop.thisIndex,Transition_Enc.keys,Transition_Enc.rt,Encoding_Resp.started,Encoding_Resp.keys,Encoding_Resp.rt,R_Point_FB_Stim.started,Attn_resp.keys,Attn_resp.rt,Progress_Tracker.started,EncBrk_Resp.keys,EncBrk_Resp.rt,participant,Group,date,expName,psychopyVersion,frameRate,
,,,,,,,,,,,,,,,,,,,,,,,,,,,,,,,,,,,,,,,,,,,,,,,,,,,,,,,,,,space,4.695056416999705,,,,,,,,,,253300,B,2024-10-26_14h09.58.390,EPIDM,2023.1.2,None,
A060.jpg,F041.jpg,5 Points,5 Points,5 Points,,,,,,,,,,0,0,0,0,,,,,,,,,,,,,,,,,,,,,,,,,,,,,,,,,,,,,,,,,,,915.2087087500001,p,1.1036335839999083,916.4620955830003,,,,,,253300,B,2024-10-26_14h09.58.390,EPIDM,2023.1.2,None,
O161.jpg,1812.jpg,2 Points,2 Points,7 Points,,,,,,,,,,0,1,1,1,,,,,,,,,,,,,,,,,,,,,,,,,,,,,,,,,,,,,,,,,,,920.6367595419999,q,1.331495249999989,922.0970378750001,,,,,,253300,B,2024-10-26_14h09.58.390,EPIDM,2023.1.2,None,
O013.jpg,A001.jpg,3 Points,3 Points,10 Points,,,,,,,,,,0,2,2,2,,,,,,,,,,,,,,,,,,,,,,,,,,,,,,,,,,,,,,,,,,,926.274915708,q,1.5971082089999982,928.010677083,,,,,,253300,B,2024-10-26_14h09.58.390,EPIDM,2023.1.2,None,
P036.jpg,F273.jpg,5 Points,5 Points,15 Points,,,,,,,,,,0,3,3,3,,,,,,,,,,,,,,,,,,,,,,,,,,,,,,,,,,,,,,,,,,,932.190226333,p,1.3141552919996684,933.6804777079999,,,,,,253300,B,2024-10-26_14h09.58.390,EPIDM,2023.1.2,None,
L130.jpg,2393.jpg,0 Points,0 Points,15 Points,,,,,,,,,,0,4,4,4,,,,,,,,,,,,,,,,,,,,,,,,,,,,,,,,,,,,,,,,,,,937.828864417,q,1.7159456250001313,939.6912059170002,0,3.9126671249996434,,,,253300,B,2024-10-26_14h09.58.390,EPIDM,2023.1.2,None,
F279.jpg,P033.jpg,3 Points,3 Points,18 Points,,,,,,,,,,0,5,5,5,,,,,,,,,,,,,,,,,,,,,,,,,,,,,,,,,,,,,,,,,,,947.8919257079999,q,1.6755719999996472,949.7060977920003,,,,,,253300,B,2024-10-26_14h09.58.390,EPIDM,2023.1.2,None,
A104.jpg,2593.jpg,2 Points,2 Points,20 Points,,,,,,,,,,0,6,6,6,,,,,,,,,,,,,,,,,,,,,,,,,,,,,,,,,,,,,,,,,,,953.8813358330001,p,1.5270514169997114,955.5388896249999,,,,,,253300,B,2024-10-26_14h09.58.390,EPIDM,2023.1.2,None,
2598.jpg,2605.jpg,0 Points,0 Points,20 Points,,,,,,,,,,0,7,7,7,,,,,,,,,,,,,,,,,,,,,,,,,,,,,,,,,,,,,,,,,,,959.7292519999999,q,1.726365875999818,961.5201264170003,,,,,,253300,B,2024-10-26_14h09.58.390,EPIDM,2023.1.2,None,
L005.jpg,O011.jpg,1 Points,1 Points,21 Points,,,,,,,,,,0,8,8,8,,,,,,,,,,,,,,,,,,,,,,,,,,,,,,,,,,,,,,,,,,,965.795000458,p,1.492470124999727,967.42379525,,,,,,253300,B,2024-10-26_14h09.58.390,EPIDM,2023.1.2,None,
8186.jpg,F078.jpg,2 Points,2 Points,23 Points,,,,,,,,,,0,9,9,9,,,,,,,,,,,,,,,,,,,,,,,,,,,,,,,,,,,,,,,,,,,971.6063368749999,q,1.217182166999919,972.964233083,2,2.0412482500000806,985.211922792,space,25.531891791999897,253300,B,2024-10-26_14h09.58.390,EPIDM,2023.1.2,None,
,,,,,,,,,,,,,,,,,,,,,,,,,,,,,,,,,,,,,,,,,,,,,,,,,,,,,,,,,,space,1.2945160829999622,,,,,,,,,,253300,B,2024-10-26_14h09.58.390,EPIDM,2023.1.2,None,
7284.jpg,8021.jpg,4 Points,4 Points,4 Points,PS2_L1.csv,,,,,,,,,,,,,,,,,,,,,,,,,,,,,0,0,0,0,0,0,0,0,,,,,,,,,,,,,,,,,,,1023.229933458,q,1.3531558760000735,1024.693213542,,,,,,253300,B,2024-10-26_14h09.58.390,EPIDM,2023.1.2,None,
2214.jpg,4500.jpg,3 Points,3 Points,7 points,PS2_L1.csv,,,,,,,,,,,,,,,,,,,,,,,,,,,,,0,0,0,0,0,1,1,1,,,,,,,,,,,,,,,,,,,1028.8900256670001,q,1.6128478339996946,1030.5853077080003,3,1.8159681249999267,,,,253300,B,2024-10-26_14h09.58.390,EPIDM,2023.1.2,None,
1280.jpg,9402.jpg,2 Points,2 Points,9 points,PS2_L1.csv,,,,,,,,,,,,,,,,,,,,,,,,,,,,,0,0,0,0,0,2,2,2,,,,,,,,,,,,,,,,,,,1036.7131737500001,p,1.3890927499996906,1038.1777690830002,,,,,,253300,B,2024-10-26_14h09.58.390,EPIDM,2023.1.2,None,
1650.jpg,2130.jpg,1 Points,1 Points,10 points,PS2_L1.csv,,,,,,,,,,,,,,,,,,,,,,,,,,,,,0,0,0,0,0,3,3,3,,,,,,,,,,,,,,,,,,,1042.4261347080003,p,1.6121024589997432,1044.101668167,,,,,,253300,B,2024-10-26_14h09.58.390,EPIDM,2023.1.2,None,
2221.jpg,2270.jpg,2 Points,2 Points,12 points,PS2_L1.csv,,,,,,,,,,,,,,,,,,,,,,,,,,,,,0,0,0,0,0,4,4,4,,,,,,,,,,,,,,,,,,,1048.3593384170001,q,2.470630541999981,1050.8891744170003,,,,,,253300,B,2024-10-26_14h09.58.390,EPIDM,2023.1.2,None,
9373.jpg,9410.jpg,0 Points,0 Points,12 points,PS2_L1.csv,,,,,,,,,,,,,,,,,,,,,,,,,,,,,0,0,0,0,0,5,5,5,,,,,,,,,,,,,,,,,,,1055.151819375,p,1.5104671250001047,1056.7302940000002,,,,,,253300,B,2024-10-26_14h09.58.390,EPIDM,2023.1.2,None,
4250.jpg,7060.jpg,5 Points,5 Points,17 points,PS2_L1.csv,,,,,,,,,,,,,,,,,,,,,,,,,,,,,0,0,0,0,0,6,6,6,,,,,,,,,,,,,,,,,,,1060.982722292,q,0.6633831260000989,1061.713524292,,,,,,253300,B,2024-10-26_14h09.58.390,EPIDM,2023.1.2,None,
5130.jpg,1810.jpg,3 Points,3 Points,20 points,PS2_L1.csv,,,,,,,,,,,,,,,,,,,,,,,,,,,,,0,0,0,0,0,7,7,7,,,,,,,,,,,,,,,,,,,1065.958767625,p,1.8653300839996518,1067.908054625,,,,,,253300,B,2024-10-26_14h09.58.390,EPIDM,2023.1.2,None,
6370.jpg,1270.jpg,4 Points,4 Points,24 points,PS2_L1.csv,,,,,,,,,,,,,,,,,,,,,,,,,,,,,0,0,0,0,0,8,8,8,,,,,,,,,,,,,,,,,,,1072.151247208,q,2.047371333999763,1074.273738042,,,,,,253300,B,2024-10-26_14h09.58.390,EPIDM,2023.1.2,None,
5480.jpg,8200.jpg,4 Points,4 Points,28 points,PS2_L1.csv,,,,,,,,,,,,,,,,,,,,,,,,,,,,,0,0,0,0,0,9,9,9,,,,,,,,,,,,,,,,,,,1078.516080958,p,1.785778000999926,1080.371907333,,,,,,253300,B,2024-10-26_14h09.58.390,EPIDM,2023.1.2,None,
2520.jpg,8503.jpg,2 Points,2 Points,30 points,PS2_L1.csv,,,,,,,,,,,,,,,,,,,,,,,,,,,,,0,0,0,0,0,10,10,10,,,,,,,,,,,,,,,,,,,1084.608897417,q,1.5642543339999975,1086.252978708,,,,,,253300,B,2024-10-26_14h09.58.390,EPIDM,2023.1.2,None,
5971.jpg,9912.jpg,5 Points,5 Points,35 points,PS2_L1.csv,,,,,,,,,,,,,,,,,,,,,,,,,,,,,0,0,0,0,0,11,11,11,,,,,,,,,,,,,,,,,,,1090.508609792,q,1.752830959000221,1092.3337831669999,,,,,,253300,B,2024-10-26_14h09.58.390,EPIDM,2023.1.2,None,
7195.jpg,2487.jpg,2 Points,2 Points,37 points,PS2_L1.csv,,,,,,,,,,,,,,,,,,,,,,,,,,,,,0,0,0,0,0,12,12,12,,,,,,,,,,,,,,,,,,,1096.583255375,q,1.0619046249998974,1097.7189418750002,,,,,,253300,B,2024-10-26_14h09.58.390,EPIDM,2023.1.2,None,
6840.jpg,3080.jpg,1 Points,1 Points,38 points,PS2_L1.csv,,,,,,,,,,,,,,,,,,,,,,,,,,,,,0,0,0,0,0,13,13,13,,,,,,,,,,,,,,,,,,,1101.967011083,p,2.021695292000004,1104.0548283750002,1,0.9822848339999837,,,,253300,B,2024-10-26_14h09.58.390,EPIDM,2023.1.2,None,
5510.jpg,2514.jpg,5 Points,5 Points,43 points,PS2_L1.csv,,,,,,,,,,,,,,,,,,,,,,,,,,,,,0,0,0,0,0,14,14,14,,,,,,,,,,,,,,,,,,,1109.358183042,p,1.6870004590000462,1111.1081550830002,,,,,,253300,B,2024-10-26_14h09.58.390,EPIDM,2023.1.2,None,
7170.jpg,2170.jpg,2 Points,2 Points,45 points,PS2_L1.csv,,,,,,,,,,,,,,,,,,,,,,,,,,,,,0,0,0,0,0,15,15,15,,,,,,,,,,,,,,,,,,,1115.3542397500003,q,0.9867334589998791,1116.410174208,,,,,,253300,B,2024-10-26_14h09.58.390,EPIDM,2023.1.2,None,
6020.jpg,6300.jpg,2 Points,2 Points,47 points,PS2_L1.csv,,,,,,,,,,,,,,,,,,,,,,,,,,,,,0,0,0,0,0,16,16,16,,,,,,,,,,,,,,,,,,,1120.656044125,p,0.8696766670000216,1121.587891375,,,,,,253300,B,2024-10-26_14h09.58.390,EPIDM,2023.1.2,None,
1942.jpg,2890.jpg,1 Points,1 Points,48 points,PS2_L1.csv,,,,,,,,,,,,,,,,,,,,,,,,,,,,,0,0,0,0,0,17,17,17,,,,,,,,,,,,,,,,,,,1125.837189042,q,1.3361032919997342,1127.2438247080001,,,,,,253300,B,2024-10-26_14h09.58.390,EPIDM,2023.1.2,None,
6241.jpg,9561.jpg,3 Points,3 Points,51 points,PS2_L1.csv,,,,,,,,,,,,,,,,,,,,,,,,,,,,,0,0,0,0,0,18,18,18,,,,,,,,,,,,,,,,,,,1131.5001565,q,1.641378000000259,1133.207506083,,,,,,253300,B,2024-10-26_14h09.58.390,EPIDM,2023.1.2,None,
4536.jpg,2280.jpg,4 Points,4 Points,55 points,PS2_L1.csv,,,,,,,,,,,,,,,,,,,,,,,,,,,,,0,0,0,0,0,19,19,19,,,,,,,,,,,,,,,,,,,1137.4548835420003,q,0.951461124999696,1138.4723349580001,,,,,,253300,B,2024-10-26_14h09.58.390,EPIDM,2023.1.2,None,
6000.jpg,6836.jpg,4 Points,4 Points,59 points,PS2_L1.csv,,,,,,,,,,,,,,,,,,,,,,,,,,,,,0,0,0,0,0,20,20,20,,,,,,,,,,,,,,,,,,,1142.7241324580002,p,0.8325661669996407,1143.6235265000003,,,,,,253300,B,2024-10-26_14h09.58.390,EPIDM,2023.1.2,None,
8232.jpg,4279.jpg,5 Points,5 Points,64 points,PS2_L1.csv,,,,,,,,,,,,,,,,,,,,,,,,,,,,,0,0,0,0,0,21,21,21,,,,,,,,,,,,,,,,,,,1147.877527667,p,1.2624638749998667,1149.2225109170001,,,,,,253300,B,2024-10-26_14h09.58.390,EPIDM,2023.1.2,None,
2312.jpg,2722.jpg,1 Points,1 Points,65 points,PS2_L1.csv,,,,,,,,,,,,,,,,,,,,,,,,,,,,,0,0,0,0,0,22,22,22,,,,,,,,,,,,,,,,,,,1153.464042417,q,1.2850602500002424,1154.8284232500002,,,,,,253300,B,2024-10-26_14h09.58.390,EPIDM,2023.1.2,None,
2750.jpg,9050.jpg,4 Points,4 Points,69 points,PS2_L1.csv,,,,,,,,,,,,,,,,,,,,,,,,,,,,,0,0,0,0,0,23,23,23,,,,,,,,,,,,,,,,,,,1159.074628917,p,1.224875124999926,1160.369818417,,,1170.82681475,space,2.761186374999852,253300,B,2024-10-26_14h09.58.390,EPIDM,2023.1.2,None,
1113.jpg,1240.jpg,3 Points,3 Points,72 points,PS2_L2.csv,,,,,,,,,,,,,,,,,,,,,,,,,,,,,0,1,1,1,0,0,0,0,,,,,,,,,,,,,,,,,,,1176.903379917,p,1.3176254169998174,1178.294733125,,,,,,253300,B,2024-10-26_14h09.58.390,EPIDM,2023.1.2,None,
8220.jpg,2410.jpg,4 Points,4 Points,76 points,PS2_L2.csv,,,,,,,,,,,,,,,,,,,,,,,,,,,,,0,1,1,1,0,1,1,1,,,,,,,,,,,,,,,,,,,1182.5549856670002,q,1.392963624999993,1184.0199892080002,4,1.6271214590001364,,,,253300,B,2024-10-26_14h09.58.390,EPIDM,2023.1.2,None,
4621.jpg,3550.jpg,2 Points,2 Points,78 points,PS2_L2.csv,,,,,,,,,,,,,,,,,,,,,,,,,,,,,0,1,1,1,0,2,2,2,,,,,,,,,,,,,,,,,,,1189.9567720830003,q,2.3984375,1192.4179753330002,,,,,,253300,B,2024-10-26_14h09.58.390,EPIDM,2023.1.2,None,
2751.jpg,6313.jpg,3 Points,3 Points,81 points,PS2_L2.csv,,,,,,,,,,,,,,,,,,,,,,,,,,,,,0,1,1,1,0,3,3,3,,,,,,,,,,,,,,,,,,,1196.6712151250001,p,1.6925840009998865,1198.428553208,,,,,,253300,B,2024-10-26_14h09.58.390,EPIDM,2023.1.2,None,
4689.jpg,7009.jpg,5 Points,5 Points,86 points,PS2_L2.csv,,,,,,,,,,,,,,,,,,,,,,,,,,,,,0,1,1,1,0,4,4,4,,,,,,,,,,,,,,,,,,,1202.6736603330003,q,0.6971162499999082,1203.4406095000002,,,,,,253300,B,2024-10-26_14h09.58.390,EPIDM,2023.1.2,None,
6831.jpg,2141.jpg,5 Points,5 Points,91 points,PS2_L2.csv,,,,,,,,,,,,,,,,,,,,,,,,,,,,,0,1,1,1,0,5,5,5,,,,,,,,,,,,,,,,,,,1207.69023,q,1.9607333330000074,1209.7167120420002,,,,,,253300,B,2024-10-26_14h09.58.390,EPIDM,2023.1.2,None,
9417.jpg,6530.jpg,1 Point,1 Point,92 points,PS2_L2.csv,,,,,,,,,,,,,,,,,,,,,,,,,,,,,0,1,1,1,0,6,6,6,,,,,,,,,,,,,,,,,,,1213.9633577920001,p,1.248098334000133,1215.29651,,,,,,253300,B,2024-10-26_14h09.58.390,EPIDM,2023.1.2,None,
7237.jpg,8510.jpg,4 Points,4 Points,96 points,PS2_L2.csv,,,,,,,,,,,,,,,,,,,,,,,,,,,,,0,1,1,1,0,7,7,7,,,,,,,,,,,,,,,,,,,1219.5567482080003,q,1.5491159169996536,1221.185742333,,,,,,253300,B,2024-10-26_14h09.58.390,EPIDM,2023.1.2,None,
4608.jpg,8320.jpg,1 Point,1 Point,97 points,PS2_L2.csv,,,,,,,,,,,,,,,,,,,,,,,,,,,,,0,1,1,1,0,8,8,8,,,,,,,,,,,,,,,,,,,1225.431281125,q,0.667613708999852,1226.1597427500003,,,,,,253300,B,2024-10-26_14h09.58.390,EPIDM,2023.1.2,None,
9254.jpg,9290.jpg,2 Points,2 Points,99 points,PS2_L2.csv,,,,,,,,,,,,,,,,,,,,,,,,,,,,,0,1,1,1,0,9,9,9,,,,,,,,,,,,,,,,,,,1230.4071134170001,q,1.6108956669995678,1232.0779863750001,,,,,,253300,B,2024-10-26_14h09.58.390,EPIDM,2023.1.2,None,
9530.jpg,9220.jpg,1 Point,1 Point,100 points,PS2_L2.csv,,,,,,,,,,,,,,,,,,,,,,,,,,,,,0,1,1,1,0,10,10,10,,,,,,,,,,,,,,,,,,,1236.3362102920003,p,1.1137067919999026,1237.5096085420003,,,,,,253300,B,2024-10-26_14h09.58.390,EPIDM,2023.1.2,None,
2092.jpg,2210.jpg,0 Points,0 Points,100 points,PS2_L2.csv,,,,,,,,,,,,,,,,,,,,,,,,,,,,,0,1,1,1,0,11,11,11,,,,,,,,,,,,,,,,,,,1241.7650807080001,q,1.5253345839996655,1243.364294625,,,,,,253300,B,2024-10-26_14h09.58.390,EPIDM,2023.1.2,None,
9500.jpg,6360.jpg,1 Point,1 Point,101 points,PS2_L2.csv,,,,,,,,,,,,,,,,,,,,,,,,,,,,,0,1,1,1,0,12,12,12,,,,,,,,,,,,,,,,,,,1247.6257600000001,q,1.4406345419997706,1249.1320050000002,,,,,,253300,B,2024-10-26_14h09.58.390,EPIDM,2023.1.2,None,
2220.jpg,2010.jpg,5 Points,5 Points,106 points,PS2_L2.csv,,,,,,,,,,,,,,,,,,,,,,,,,,,,,0,1,1,1,0,13,13,13,,,,,,,,,,,,,,,,,,,1253.379013292,p,2.2474788340000487,1255.6933661250002,5,1.3807884999996531,,,,253300,B,2024-10-26_14h09.58.390,EPIDM,2023.1.2,None,
5940.jpg,9411.jpg,0 Points,0 Points,106 points,PS2_L2.csv,,,,,,,,,,,,,,,,,,,,,,,,,,,,,0,1,1,1,0,14,14,14,,,,,,,,,,,,,,,,,,,1261.402024833,p,1.5441142919999038,1263.0255409170002,,,,,,253300,B,2024-10-26_14h09.58.390,EPIDM,2023.1.2,None,
4533.jpg,2385.jpg,3 Points,3 Points,109 points,PS2_L2.csv,,,,,,,,,,,,,,,,,,,,,,,,,,,,,0,1,1,1,0,15,15,15,,,,,,,,,,,,,,,,,,,1267.2678937920002,q,1.2546677499999532,1268.5944675829999,,,,,,253300,B,2024-10-26_14h09.58.390,EPIDM,2023.1.2,None,
9340.jpg,6910.jpg,0 Points,0 Points,109 points,PS2_L2.csv,,,,,,,,,,,,,,,,,,,,,,,,,,,,,0,1,1,1,0,16,16,16,,,,,,,,,,,,,,,,,,,1272.8347782920002,p,1.41560787599974,1274.3239258330002,,,,,,253300,B,2024-10-26_14h09.58.390,EPIDM,2023.1.2,None,
8350.jpg,7190.jpg,5 Points,5 Points,114 points,PS2_L2.csv,,,,,,,,,,,,,,,,,,,,,,,,,,,,,0,1,1,1,0,17,17,17,,,,,,,,,,,,,,,,,,,1278.5694230000001,q,1.0398191669996777,1279.6893762920001,,,,,,253300,B,2024-10-26_14h09.58.390,EPIDM,2023.1.2,None,
6211.jpg,9611.jpg,3 Points,3 Points,117 points ,PS2_L2.csv,,,,,,,,,,,,,,,,,,,,,,,,,,,,,0,1,1,1,0,18,18,18,,,,,,,,,,,,,,,,,,,1283.9324896670003,q,1.6701752499998292,1285.672350917,,,,,,253300,B,2024-10-26_14h09.58.390,EPIDM,2023.1.2,None,
2053.jpg,9415.jpg,4 Points,4 Points,121 points,PS2_L2.csv,,,,,,,,,,,,,,,,,,,,,,,,,,,,,0,1,1,1,0,19,19,19,,,,,,,,,,,,,,,,,,,1289.9180520000002,p,1.5311578340001688,1291.503655583,,,,,,253300,B,2024-10-26_14h09.58.390,EPIDM,2023.1.2,None,
2110.jpg,7260.jpg,5 Points,5 Points,126 points,PS2_L2.csv,,,,,,,,,,,,,,,,,,,,,,,,,,,,,0,1,1,1,0,20,20,20,,,,,,,,,,,,,,,,,,,1295.767943917,q,2.0169907919998877,1297.85615825,,,,,,253300,B,2024-10-26_14h09.58.390,EPIDM,2023.1.2,None,
2030.jpg,2495.jpg,0 Points,0 Points,126 points,PS2_L2.csv,,,,,,,,,,,,,,,,,,,,,,,,,,,,,0,1,1,1,0,21,21,21,,,,,,,,,,,,,,,,,,,1302.09683625,q,1.2241324169999643,1303.4007645,,,,,,253300,B,2024-10-26_14h09.58.390,EPIDM,2023.1.2,None,
1302.jpg,2700.jpg,3 Points,3 Points,129 points,PS2_L2.csv,,,,,,,,,,,,,,,,,,,,,,,,,,,,,0,1,1,1,0,22,22,22,,,,,,,,,,,,,,,,,,,1307.6466374580002,p,1.0106835839997075,1308.7322216670002,,,,,,253300,B,2024-10-26_14h09.58.390,EPIDM,2023.1.2,None,
9010.jpg,9253.jpg,0 Points,0 Points,129 points,PS2_L2.csv,,,,,,,,,,,,,,,,,,,,,,,,,,,,,0,1,1,1,0,23,23,23,,,,,,,,,,,,,,,,,,,1312.982437667,p,1.5464103749995957,1314.603398375,,,1325.0645148330002,space,1.7290972920000058,253300,B,2024-10-26_14h09.58.390,EPIDM,2023.1.2,None,
1303.jpg,2000.jpg,0 Points,0 Points,129 points,PS2_L3.csv,,,,,,,,,,,,,,,,,,,,,,,,,,,,,0,2,2,2,0,0,0,0,,,,,,,,,,,,,,,,,,,1330.1166487080002,p,1.0358197499999733,1331.2180567920002,,,,,,253300,B,2024-10-26_14h09.58.390,EPIDM,2023.1.2,None,
2200.jpg,4598.jpg,1 Point,1 Point,130 points,PS2_L3.csv,,,,,,,,,,,,,,,,,,,,,,,,,,,,,0,2,2,2,0,1,1,1,,,,,,,,,,,,,,,,,,,1335.469815667,p,1.8996115009999812,1337.4424191670003,1,1.6132385840001007,,,,253300,B,2024-10-26_14h09.58.390,EPIDM,2023.1.2,None,
6190.jpg,3120.jpg,5 Points,5 Points,135 points,PS2_L3.csv,,,,,,,,,,,,,,,,,,,,,,,,,,,,,0,2,2,2,0,2,2,2,,,,,,,,,,,,,,,,,,,1343.3873405830002,q,0.9568575419998524,1344.4288442079999,,,,,,253300,B,2024-10-26_14h09.58.390,EPIDM,2023.1.2,None,
2570.jpg,5500.jpg,3 Points,3 Points,138 points,PS2_L3.csv,,,,,,,,,,,,,,,,,,,,,,,,,,,,,0,2,2,2,0,3,3,3,,,,,,,,,,,,,,,,,,,1348.6604896669999,q,1.1479729169996062,1349.881023625,,,,,,253300,B,2024-10-26_14h09.58.390,EPIDM,2023.1.2,None,
8460.jpg,8330.jpg,0 Points,0 Points,138 points,PS2_L3.csv,,,,,,,,,,,,,,,,,,,,,,,,,,,,,0,2,2,2,0,4,4,4,,,,,,,,,,,,,,,,,,,1354.1342615830001,p,0.8663285419997919,1355.0634767500003,,,,,,253300,B,2024-10-26_14h09.58.390,EPIDM,2023.1.2,None,
9320.jpg,9007.jpg,0 Points,0 Points,138 points,PS2_L3.csv,,,,,,,,,,,,,,,,,,,,,,,,,,,,,0,2,2,2,0,5,5,5,,,,,,,,,,,,,,,,,,,1359.318936542,q,1.153343749999749,1360.5467622500003,,,,,,253300,B,2024-10-26_14h09.58.390,EPIDM,2023.1.2,None,
2650.jpg,4531.jpg,5 Points,5 Points,143 points,PS2_L3.csv,,,,,,,,,,,,,,,,,,,,,,,,,,,,,0,2,2,2,0,6,6,6,,,,,,,,,,,,,,,,,,,1364.7935314170002,p,1.2785647919999974,1366.1537592920001,,,,,,253300,B,2024-10-26_14h09.58.390,EPIDM,2023.1.2,None,
4100.jpg,6570.2.jpg,3 Points,3 Points,146 points,PS2_L3.csv,,,,,,,,,,,,,,,,,,,,,,,,,,,,,0,2,2,2,0,7,7,7,,,,,,,,,,,,,,,,,,,1370.395375708,p,1.14007116699986,1371.612156,,,,,,253300,B,2024-10-26_14h09.58.390,EPIDM,2023.1.2,None,
3102.jpg,F032.jpg,1 Point,1 Point,147 points,PS2_L3.csv,,,,,,,,,,,,,,,,,,,,,,,,,,,,,0,2,2,2,0,8,8,8,,,,,,,,,,,,,,,,,,,1375.8560140000002,p,1.3836698760001127,1377.353071333,,,,,,253300,B,2024-10-26_14h09.58.390,EPIDM,2023.1.2,None,
2240.jpg,5010.jpg,5 Points,5 Points,152 points,PS2_L3.csv,,,,,,,,,,,,,,,,,,,,,,,,,,,,,0,2,2,2,0,9,9,9,,,,,,,,,,,,,,,,,,,1381.5624315000002,q,1.2851018329997714,1382.9546268330002,,,,,,253300,B,2024-10-26_14h09.58.390,EPIDM,2023.1.2,None,
4605.jpg,1510.jpg,4 Points,4 Points,156 points,PS2_L3.csv,,,,,,,,,,,,,,,,,,,,,,,,,,,,,0,2,2,2,0,10,10,10,,,,,,,,,,,,,,,,,,,1387.161368833,p,1.4621099579999282,1388.705569292,,,,,,253300,B,2024-10-26_14h09.58.390,EPIDM,2023.1.2,None,
9490.jpg,9210.jpg,1 Point,1 Point,157 points,PS2_L3.csv,,,,,,,,,,,,,,,,,,,,,,,,,,,,,0,2,2,2,0,11,11,11,,,,,,,,,,,,,,,,,,,1392.944967792,p,1.790045500999895,1394.7963013330002,,,,,,253300,B,2024-10-26_14h09.58.390,EPIDM,2023.1.2,None,
6821.jpg,9622.jpg,2 Points,2 Points,159 points,PS2_L3.csv,,,,,,,,,,,,,,,,,,,,,,,,,,,,,0,2,2,2,0,12,12,12,,,,,,,,,,,,,,,,,,,1399.0563905830002,q,1.2860137090001444,1400.4041921250002,,,,,,253300,B,2024-10-26_14h09.58.390,EPIDM,2023.1.2,None,
2681.jpg,7100.jpg,3 Points,3 Points,162 points,PS2_L3.csv,,,,,,,,,,,,,,,,,,,,,,,,,,,,,0,2,2,2,0,13,13,13,,,,,,,,,,,,,,,,,,,1404.66131075,q,1.3535082090002106,1406.079616625,3,1.4965490839999802,,,,253300,B,2024-10-26_14h09.58.390,EPIDM,2023.1.2,None,
5622.jpg,9156.jpg,4 Points,4 Points,166 points,PS2_L3.csv,,,,,,,,,,,,,,,,,,,,,,,,,,,,,0,2,2,2,0,14,14,14,,,,,,,,,,,,,,,,,,,1411.8880888330002,p,1.0786580419999154,1413.0392253329999,,,,,,253300,B,2024-10-26_14h09.58.390,EPIDM,2023.1.2,None,
1111.jpg,1040.jpg,0 Points,0 Points,166 points,PS2_L3.csv,,,,,,,,,,,,,,,,,,,,,,,,,,,,,0,2,2,2,0,15,15,15,,,,,,,,,,,,,,,,,,,1417.276569208,q,0.897781582999869,1418.253486625,,,,,,253300,B,2024-10-26_14h09.58.390,EPIDM,2023.1.2,None,
1112.jpg,6230.jpg,3 Points,3 Points,169 points,PS2_L3.csv,,,,,,,,,,,,,,,,,,,,,,,,,,,,,0,2,2,2,0,16,16,16,,,,,,,,,,,,,,,,,,,1422.5031017920003,p,2.4070173749996684,1424.977558792,,,,,,253300,B,2024-10-26_14h09.58.390,EPIDM,2023.1.2,None,
8161.jpg,1900.jpg,4 Points,4 Points,173 points,PS2_L3.csv,,,,,,,,,,,,,,,,,,,,,,,,,,,,,0,2,2,2,0,17,17,17,,,,,,,,,,,,,,,,,,,1429.2330020830002,q,1.55809333399975,1430.854249833,,,,,,253300,B,2024-10-26_14h09.58.390,EPIDM,2023.1.2,None,
9800.jpg,9433.jpg,1 Point,1 Point,174 points,PS2_L3.csv,,,,,,,,,,,,,,,,,,,,,,,,,,,,,0,2,2,2,0,18,18,18,,,,,,,,,,,,,,,,,,,1435.1086753750003,q,0.8912912509999842,1436.0582831250001,,,,,,253300,B,2024-10-26_14h09.58.390,EPIDM,2023.1.2,None,
1390.jpg,9421.jpg,2 Points,2 Points,176 points,PS2_L3.csv,,,,,,,,,,,,,,,,,,,,,,,,,,,,,0,2,2,2,0,19,19,19,,,,,,,,,,,,,,,,,,,1440.3138698750001,p,1.4601283749998402,1441.8470005420002,,,,,,253300,B,2024-10-26_14h09.58.390,EPIDM,2023.1.2,None,
2850.jpg,4532.jpg,3 Points,3 Points,179 points,PS2_L3.csv,,,,,,,,,,,,,,,,,,,,,,,,,,,,,0,2,2,2,0,20,20,20,,,,,,,,,,,,,,,,,,,1446.096716708,p,1.2057337920000464,1447.3790258330002,,,,,,253300,B,2024-10-26_14h09.58.390,EPIDM,2023.1.2,None,
1560.jpg,8185.jpg,0 Points,0 Points,179 points,PS2_L3.csv,,,,,,,,,,,,,,,,,,,,,,,,,,,,,0,2,2,2,0,21,21,21,,,,,,,,,,,,,,,,,,,1451.626435042,p,1.5001191669998661,1453.200429875,,,,,,253300,B,2024-10-26_14h09.58.390,EPIDM,2023.1.2,None,
6314.jpg,O022.jpg,2 Points,2 Points,181 points,PS2_L3.csv,,,,,,,,,,,,,,,,,,,,,,,,,,,,,0,2,2,2,0,22,22,22,,,,,,,,,,,,,,,,,,,1457.459186792,p,2.8903109589996347,1460.469199125,,,,,,253300,B,2024-10-26_14h09.58.390,EPIDM,2023.1.2,None,
4274.jpg,8160.jpg,2 Points,2 Points,183 points,PS2_L3.csv,,,,,,,,,,,,,,,,,,,,,,,,,,,,,0,2,2,2,0,23,23,23,,,,,,,,,,,,,,,,,,,1464.674261625,q,1.2831271669997477,1466.0688320830002,,,1476.4958155420002,space,1.4054509170000529,253300,B,2024-10-26_14h09.58.390,EPIDM,2023.1.2,None,
8117.jpg,2880.jpg,5 Points,5 Points,188 points,PS2_L4.csv,,,,,,,,,,,,,,,,,,,,,,,,,,,,,0,3,3,3,0,0,0,0,,,,,,,,,,,,,,,,,,,1481.217627708,q,0.9713165419998404,1482.269342292,,,,,,253300,B,2024-10-26_14h09.58.390,EPIDM,2023.1.2,None,
3220.jpg,3063.jpg,5 Points,5 Points,193 points,PS2_L4.csv,,,,,,,,,,,,,,,,,,,,,,,,,,,,,0,3,3,3,0,1,1,1,,,,,,,,,,,,,,,,,,,1486.534216625,q,1.9109707499997057,1488.5090822079999,5,1.5805922079998709,,,,253300,B,2024-10-26_14h09.58.390,EPIDM,2023.1.2,None,
9040.jpg,1120.jpg,3 Points,3 Points,196 points,PS2_L4.csv,,,,,,,,,,,,,,,,,,,,,,,,,,,,,0,3,3,3,0,2,2,2,,,,,,,,,,,,,,,,,,,1494.407572708,p,2.213531542000055,1496.6851073750001,,,,,,253300,B,2024-10-26_14h09.58.390,EPIDM,2023.1.2,None,
5030.jpg,1670.jpg,3 Points,3 Points,199 points,PS2_L4.csv,,,,,,,,,,,,,,,,,,,,,,,,,,,,,0,3,3,3,0,3,3,3,,,,,,,,,,,,,,,,,,,1500.9403837500001,p,1.674930624999888,1502.69209225,,,,,,253300,B,2024-10-26_14h09.58.390,EPIDM,2023.1.2,None,
2276.jpg,6540.jpg,3 Points,3 Points,202 points,PS2_L4.csv,,,,,,,,,,,,,,,,,,,,,,,,,,,,,0,3,3,3,0,4,4,4,,,,,,,,,,,,,,,,,,,1506.9517590420003,q,1.8631827919998614,1508.8659865000002,,,,,,253300,B,2024-10-26_14h09.58.390,EPIDM,2023.1.2,None,
1540.jpg,2600.jpg,1 Point,1 Point,203 points,PS2_L4.csv,,,,,,,,,,,,,,,,,,,,,,,,,,,,,0,3,3,3,0,5,5,5,,,,,,,,,,,,,,,,,,,1513.131626958,p,1.2165252509998936,1514.410266042,,,,,,253300,B,2024-10-26_14h09.58.390,EPIDM,2023.1.2,None,
8465.jpg,8400.jpg,1 Point,1 Point,204 points,PS2_L4.csv,,,,,,,,,,,,,,,,,,,,,,,,,,,,,0,3,3,3,0,6,6,6,,,,,,,,,,,,,,,,,,,1518.6564325420002,q,0.9884088750000046,1519.7186575829999,,,,,,253300,B,2024-10-26_14h09.58.390,EPIDM,2023.1.2,None,
3110.jpg,9000.jpg,4 Points,4 Points,208 points,PS2_L4.csv,,,,,,,,,,,,,,,,,,,,,,,,,,,,,0,3,3,3,0,7,7,7,,,,,,,,,,,,,,,,,,,1523.9728349580002,p,1.1830492919998505,1525.216986958,,,,,,253300,B,2024-10-26_14h09.58.390,EPIDM,2023.1.2,None,
9570.jpg,6610.jpg,0 Points,0 Points,208 points,PS2_L4.csv,,,,,,,,,,,,,,,,,,,,,,,,,,,,,0,3,3,3,0,8,8,8,,,,,,,,,,,,,,,,,,,1529.4727935829999,p,1.4108712089996516,1530.9548873750002,,,,,,253300,B,2024-10-26_14h09.58.390,EPIDM,2023.1.2,None,
2690.jpg,9360.jpg,1 Point,1 Point,209 points,PS2_L4.csv,,,,,,,,,,,,,,,,,,,,,,,,,,,,,0,3,3,3,0,9,9,9,,,,,,,,,,,,,,,,,,,1535.2011748749999,q,1.4185814590000518,1536.6897569999999,,,,,,253300,B,2024-10-26_14h09.58.390,EPIDM,2023.1.2,None,
8250.jpg,1313.jpg,4 Points,4 Points,213 points,PS2_L4.csv,,,,,,,,,,,,,,,,,,,,,,,,,,,,,0,3,3,3,0,10,10,10,,,,,,,,,,,,,,,,,,,1540.941881167,q,1.8049827509998977,1542.828144667,,,,,,253300,B,2024-10-26_14h09.58.390,EPIDM,2023.1.2,None,
3022.jpg,2352.2.jpg,0 Points,0 Points,213 points,PS2_L4.csv,,,,,,,,,,,,,,,,,,,,,,,,,,,,,0,3,3,3,0,11,11,11,,,,,,,,,,,,,,,,,,,1547.0653946670002,q,1.7484010839998518,1548.881455042,,,,,,253300,B,2024-10-26_14h09.58.390,EPIDM,2023.1.2,None,
9920.jpg,3068.jpg,5 Points,5 Points,218 points,PS2_L4.csv,,,,,,,,,,,,,,,,,,,,,,,,,,,,,0,3,3,3,0,12,12,12,,,,,,,,,,,,,,,,,,,1553.133488542,p,1.413578583999879,1554.6050507500001,,,,,,253300,B,2024-10-26_14h09.58.390,EPIDM,2023.1.2,None,
7234.jpg,5533.jpg,3 Points,3 Points,221 points,PS2_L4.csv,,,,,,,,,,,,,,,,,,,,,,,,,,,,,0,3,3,3,0,13,13,13,,,,,,,,,,,,,,,,,,,1558.8714749580001,q,1.4682709589997103,1560.4129378750001,3,1.2457265009998082,,,,253300,B,2024-10-26_14h09.58.390,EPIDM,2023.1.2,None,
6250.1.jpg,3301.jpg,0 Points,0 Points,221 points,PS2_L4.csv,,,,,,,,,,,,,,,,,,,,,,,,,,,,,0,3,3,3,0,14,14,14,,,,,,,,,,,,,,,,,,,1565.9816090830002,q,0.8619790829998237,1566.913325792,,,,,,253300,B,2024-10-26_14h09.58.390,EPIDM,2023.1.2,None,
2518.jpg,2381.jpg,1 Point,1 Point,222 points,PS2_L4.csv,,,,,,,,,,,,,,,,,,,,,,,,,,,,,0,3,3,3,0,15,15,15,,,,,,,,,,,,,,,,,,,1571.1647989169999,p,0.9815734170001633,1572.217842333,,,,,,253300,B,2024-10-26_14h09.58.390,EPIDM,2023.1.2,None,
1910.jpg,2575.jpg,2 Points,2 Points,224 points,PS2_L4.csv,,,,,,,,,,,,,,,,,,,,,,,,,,,,,0,3,3,3,0,16,16,16,,,,,,,,,,,,,,,,,,,1576.4813282500002,p,0.8262618750000001,1577.372581625,,,,,,253300,B,2024-10-26_14h09.58.390,EPIDM,2023.1.2,None,
1275.jpg,3150.jpg,1 Point,1 Point,225 points,PS2_L4.csv,,,,,,,,,,,,,,,,,,,,,,,,,,,,,0,3,3,3,0,17,17,17,,,,,,,,,,,,,,,,,,,1581.640836708,p,1.866366208999807,1583.5728267920001,,,,,,253300,B,2024-10-26_14h09.58.390,EPIDM,2023.1.2,None,
2702.jpg,1590.jpg,5 Points,5 Points,230 points,PS2_L4.csv,,,,,,,,,,,,,,,,,,,,,,,,,,,,,0,3,3,3,0,18,18,18,,,,,,,,,,,,,,,,,,,1587.817501792,q,0.42487608300007196,1588.310918042,,,,,,253300,B,2024-10-26_14h09.58.390,EPIDM,2023.1.2,None,
8480.jpg,6410.jpg,1 Point,1 Point,231 points,PS2_L4.csv,,,,,,,,,,,,,,,,,,,,,,,,,,,,,0,3,3,3,0,19,19,19,,,,,,,,,,,,,,,,,,,1592.5602206250003,p,0.7948004169998057,1593.4239421670002,,,,,,253300,B,2024-10-26_14h09.58.390,EPIDM,2023.1.2,None,
5621.jpg,5534.jpg,3 Points,3 Points,234 points,PS2_L4.csv,,,,,,,,,,,,,,,,,,,,,,,,,,,,,0,3,3,3,0,20,20,20,,,,,,,,,,,,,,,,,,,1597.6713967920002,q,0.8598942089997763,1598.608575,,,,,,253300,B,2024-10-26_14h09.58.390,EPIDM,2023.1.2,None,
5972.jpg,6838.jpg,5 Points,5 Points,239 points,PS2_L4.csv,,,,,,,,,,,,,,,,,,,,,,,,,,,,,0,3,3,3,0,21,21,21,,,,,,,,,,,,,,,,,,,1602.855318708,p,1.7152840009998727,1604.6390200420003,,,,,,253300,B,2024-10-26_14h09.58.390,EPIDM,2023.1.2,None,
2580.jpg,8300.jpg,3 Points,3 Points,242 points,PS2_L4.csv,,,,,,,,,,,,,,,,,,,,,,,,,,,,,0,3,3,3,0,22,22,22,,,,,,,,,,,,,,,,,,,1608.887625,q,1.2739054589997068,1610.231332,,,,,,253300,B,2024-10-26_14h09.58.390,EPIDM,2023.1.2,None,
7280.jpg,7160.jpg,0 Points,0 Points,242 points,PS2_L4.csv,,,,,,,,,,,,,,,,,,,,,,,,,,,,,0,3,3,3,0,23,23,23,,,,,,,,,,,,,,,,,,,1614.480619875,p,1.0014258759997574,1615.557233375,,,1626.015297958,space,1.3544764999996914,253300,B,2024-10-26_14h09.58.390,EPIDM,2023.1.2,None,
6243.jpg,2752.jpg,2 Points,2 Points,244 points,PS2_L5.csv,,,,,,,,,,,,,,,,,,,,,,,,,,,,,0,4,4,4,0,0,0,0,,,,,,,,,,,,,,,,,,,1630.676668292,q,0.7658892499998728,1631.519546708,,,,,,253300,B,2024-10-26_14h09.58.390,EPIDM,2023.1.2,None,
8340.jpg,7546.jpg,2 Points,2 Points,246 points,PS2_L5.csv,,,,,,,,,,,,,,,,,,,,,,,,,,,,,0,4,4,4,0,1,1,1,,,,,,,,,,,,,,,,,,,1635.7806791670002,p,0.7651212089999717,1636.6113497500003,2,1.3890853749999224,,,,253300,B,2024-10-26_14h09.58.390,EPIDM,2023.1.2,None,
1022.jpg,6930.jpg,1 Point,1 Point,247 points,PS2_L5.csv,,,,,,,,,,,,,,,,,,,,,,,,,,,,,0,4,4,4,0,2,2,2,,,,,,,,,,,,,,,,,,,1642.338929333,q,0.3583331259997067,1642.7715021249999,,,,,,253300,B,2024-10-26_14h09.58.390,EPIDM,2023.1.2,None,
7230.jpg,7570.jpg,5 Points,5 Points,252 points,PS2_L5.csv,,,,,,,,,,,,,,,,,,,,,,,,,,,,,0,4,4,4,0,3,3,3,,,,,,,,,,,,,,,,,,,1647.0234994170003,p,0.5058832089998759,1647.610349875,,,,,,253300,B,2024-10-26_14h09.58.390,EPIDM,2023.1.2,None,
5760.jpg,1602.jpg,1 Point,1 Point,253 points,PS2_L5.csv,,,,,,,,,,,,,,,,,,,,,,,,,,,,,0,4,4,4,0,4,4,4,,,,,,,,,,,,,,,,,,,1651.848444167,q,0.7046945420001975,1652.623778333,,,,,,253300,B,2024-10-26_14h09.58.390,EPIDM,2023.1.2,None,
9584.jpg,3400.jpg,2 Points,2 Points,255 points,PS2_L5.csv,,,,,,,,,,,,,,,,,,,,,,,,,,,,,0,4,4,4,0,5,5,5,,,,,,,,,,,,,,,,,,,1656.873633458,q,1.0230698340001254,1657.9679858330003,,,,,,253300,B,2024-10-26_14h09.58.390,EPIDM,2023.1.2,None,
2560.jpg,5270.jpg,4 Points,4 Points,259 points,PS2_L5.csv,,,,,,,,,,,,,,,,,,,,,,,,,,,,,0,4,4,4,0,6,6,6,,,,,,,,,,,,,,,,,,,1662.2246082500003,q,1.6803937089998726,1663.971884542,,,,,,253300,B,2024-10-26_14h09.58.390,EPIDM,2023.1.2,None,
3350.jpg,3210.jpg,1 Point,1 Point,260 points,PS2_L5.csv,,,,,,,,,,,,,,,,,,,,,,,,,,,,,0,4,4,4,0,7,7,7,,,,,,,,,,,,,,,,,,,1668.221564875,p,2.2033765010000934,1670.4871424579999,,,,,,253300,B,2024-10-26_14h09.58.390,EPIDM,2023.1.2,None,
5455.jpg,5220.jpg,0 Points,0 Points,260 points,PS2_L5.csv,,,,,,,,,,,,,,,,,,,,,,,,,,,,,0,4,4,4,0,8,8,8,,,,,,,,,,,,,,,,,,,1674.7492009580003,q,0.29989775100011684,1675.102008,,,,,,253300,B,2024-10-26_14h09.58.390,EPIDM,2023.1.2,None,
7920.jpg,9102.jpg,3 Points,3 Points,263 points,PS2_L5.csv,,,,,,,,,,,,,,,,,,,,,,,,,,,,,0,4,4,4,0,9,9,9,,,,,,,,,,,,,,,,,,,1679.362560625,q,1.1742193750001206,1680.609316292,,,,,,253300,B,2024-10-26_14h09.58.390,EPIDM,2023.1.2,None,
1301.jpg,1070.jpg,2 Points,2 Points,265 points,PS2_L5.csv,,,,,,,,,,,,,,,,,,,,,,,,,,,,,0,4,4,4,0,10,10,10,,,,,,,,,,,,,,,,,,,1684.8491206670003,p,0.5917694169997958,1685.5243485419999,,,,,,253300,B,2024-10-26_14h09.58.390,EPIDM,2023.1.2,None,
5982.jpg,5260.jpg,5 Points,5 Points,270 points,PS2_L5.csv,,,,,,,,,,,,,,,,,,,,,,,,,,,,,0,4,4,4,0,11,11,11,,,,,,,,,,,,,,,,,,,1689.7715769580002,q,0.24407633299961162,1690.09930275,,,,,,253300,B,2024-10-26_14h09.58.390,EPIDM,2023.1.2,None,
5000.jpg,8180.jpg,4 Points,4 Points,274 points,PS2_L5.csv,,,,,,,,,,,,,,,,,,,,,,,,,,,,,0,4,4,4,0,12,12,12,,,,,,,,,,,,,,,,,,,1694.337656083,p,0.8227832500001568,1695.2352599580001,,,,,,253300,B,2024-10-26_14h09.58.390,EPIDM,2023.1.2,None,
6244.jpg,9265.jpg,0 Points,0 Points,274 points,PS2_L5.csv,,,,,,,,,,,,,,,,,,,,,,,,,,,,,0,4,4,4,0,13,13,13,,,,,,,,,,,,,,,,,,,1699.478784625,q,1.681521832999806,1701.2260038750003,0,1.9082611669996368,,,,253300,B,2024-10-26_14h09.58.390,EPIDM,2023.1.2,None,
5990.jpg,5780.jpg,3 Points,3 Points,277 points,PS2_L5.csv,,,,,,,,,,,,,,,,,,,,,,,,,,,,,0,4,4,4,0,14,14,14,,,,,,,,,,,,,,,,,,,1707.4381571249999,q,0.39350658300008945,1707.8966029169999,,,,,,253300,B,2024-10-26_14h09.58.390,EPIDM,2023.1.2,None,
9440.jpg,6350.jpg,4 Points,4 Points,281 points,PS2_L5.csv,,,,,,,,,,,,,,,,,,,,,,,,,,,,,0,4,4,4,0,15,15,15,,,,,,,,,,,,,,,,,,,1712.148041917,p,1.9242593339995437,1714.132535292,,,,,,253300,B,2024-10-26_14h09.58.390,EPIDM,2023.1.2,None,
1850.jpg,5623.jpg,5 Points,5 Points,286 points,PS2_L5.csv,,,,,,,,,,,,,,,,,,,,,,,,,,,,,0,4,4,4,0,16,16,16,,,,,,,,,,,,,,,,,,,1718.384433458,q,0.8709363329999178,1719.327568083,,,,,,253300,B,2024-10-26_14h09.58.390,EPIDM,2023.1.2,None,
5200.jpg,5020.jpg,0 Points,0 Points,286 points,PS2_L5.csv,,,,,,,,,,,,,,,,,,,,,,,,,,,,,0,4,4,4,0,17,17,17,,,,,,,,,,,,,,,,,,,1723.595033292,p,1.4525659589999123,1725.1237631669999,,,,,,253300,B,2024-10-26_14h09.58.390,EPIDM,2023.1.2,None,
P211.jpg,9041.jpg,4 Points,4 Points,290 points,PS2_L5.csv,,,,,,,,,,,,,,,,,,,,,,,,,,,,,0,4,4,4,0,18,18,18,,,,,,,,,,,,,,,,,,,1729.3724357500002,p,2.283720832999734,1731.7670019170002,,,,,,253300,B,2024-10-26_14h09.58.390,EPIDM,2023.1.2,None,
5600.jpg,9080.jpg,5 Points,5 Points,295 points,PS2_L5.csv,,,,,,,,,,,,,,,,,,,,,,,,,,,,,0,4,4,4,0,19,19,19,,,,,,,,,,,,,,,,,,,1735.979329125,q,1.1560743759996512,1737.2122148330002,,,,,,253300,B,2024-10-26_14h09.58.390,EPIDM,2023.1.2,None,
6800.jpg,9190.jpg,0 Points,0 Points,295 points,PS2_L5.csv,,,,,,,,,,,,,,,,,,,,,,,,,,,,,0,4,4,4,0,20,20,20,,,,,,,,,,,,,,,,,,,1741.4539136670003,p,1.7134456260000661,1743.236668667,,,,,,253300,B,2024-10-26_14h09.58.390,EPIDM,2023.1.2,None,
3280.jpg,9270.jpg,0 Points,0 Points,295 points,PS2_L5.csv,,,,,,,,,,,,,,,,,,,,,,,,,,,,,0,4,4,4,0,21,21,21,,,,,,,,,,,,,,,,,,,1747.494508042,p,1.2558503330001258,1748.819338167,,,,,,253300,B,2024-10-26_14h09.58.390,EPIDM,2023.1.2,None,
4613.jpg,2720.jpg,4 Points,4 Points,299 points,PS2_L5.csv,,,,,,,,,,,,,,,,,,,,,,,,,,,,,0,4,4,4,0,22,22,22,,,,,,,,,,,,,,,,,,,1753.080590458,q,1.527298707999762,1754.6781387080002,,,,,,253300,B,2024-10-26_14h09.58.390,EPIDM,2023.1.2,None,
1930.jpg,9008.jpg,1 Point,1 Point,300 points,PS2_L5.csv,,,,,,,,,,,,,,,,,,,,,,,,,,,,,0,4,4,4,0,23,23,23,,,,,,,,,,,,,,,,,,,1758.929980958,p,1.7095094999999674,1760.716193,,,1771.179301042,space,2.171604083999682,253300,B,2024-10-26_14h09.58.390,EPIDM,2023.1.2,None,
2190.jpg,7503.jpg,2 Points,2 Points,302 points,PS2_L6.csv,,,,,,,,,,,,,,,,,,,,,,,,,,,,,0,5,5,5,0,0,0,0,,,,,,,,,,,,,,,,,,,1776.6667852080002,p,1.1076042079998842,1777.8470182080002,,,,,,253300,B,2024-10-26_14h09.58.390,EPIDM,2023.1.2,None,
2490.jpg,2590.jpg,4 Points,4 Points,306 points,PS2_L6.csv,,,,,,,,,,,,,,,,,,,,,,,,,,,,,0,5,5,5,0,1,1,1,,,,,,,,,,,,,,,,,,,1782.0858865420003,q,1.6493465839998862,1783.8090222500002,4,1.3772092919998613,,,,253300,B,2024-10-26_14h09.58.390,EPIDM,2023.1.2,None,
9592.jpg,1300.jpg,2 Points,2 Points,308 points,PS2_L6.csv,,,,,,,,,,,,,,,,,,,,,,,,,,,,,0,5,5,5,0,2,2,2,,,,,,,,,,,,,,,,,,,1789.504532875,p,0.9581756249999671,1790.528087417,,,,,,253300,B,2024-10-26_14h09.58.390,EPIDM,2023.1.2,None,
8230.jpg,2682.jpg,5 Points,5 Points,313 points,PS2_L6.csv,,,,,,,,,,,,,,,,,,,,,,,,,,,,,0,5,5,5,0,3,3,3,,,,,,,,,,,,,,,,,,,1794.796058625,q,0.9133644590001495,1795.7781352079999,,,,,,253300,B,2024-10-26_14h09.58.390,EPIDM,2023.1.2,None,
9090.jpg,7580.jpg,3 Points,3 Points,316 points,PS2_L6.csv,,,,,,,,,,,,,,,,,,,,,,,,,,,,,0,5,5,5,0,4,4,4,,,,,,,,,,,,,,,,,,,1800.0351094170003,p,0.554988584000057,1800.6608317920002,,,,,,253300,B,2024-10-26_14h09.58.390,EPIDM,2023.1.2,None,
3530.jpg,6213.jpg,1 Point,1 Point,317 points,PS2_L6.csv,,,,,,,,,,,,,,,,,,,,,,,,,,,,,0,5,5,5,0,5,5,5,,,,,,,,,,,,,,,,,,,1804.9165970000001,q,0.7915370000000621,1805.7864362080002,,,,,,253300,B,2024-10-26_14h09.58.390,EPIDM,2023.1.2,None,
1640.jpg,5531.jpg,3 Points,3 Points,320 points,PS2_L6.csv,,,,,,,,,,,,,,,,,,,,,,,,,,,,,0,5,5,5,0,6,6,6,,,,,,,,,,,,,,,,,,,1810.0252415830003,p,0.4118327080000199,1810.527846542,,,,,,253300,B,2024-10-26_14h09.58.390,EPIDM,2023.1.2,None,
3064.jpg,3168.jpg,4 Points,4 Points,324 points,PS2_L6.csv,,,,,,,,,,,,,,,,,,,,,,,,,,,,,0,5,5,5,0,7,7,7,,,,,,,,,,,,,,,,,,,1814.7676993329999,q,0.7808763329999238,1815.6215857079999,,,,,,253300,B,2024-10-26_14h09.58.390,EPIDM,2023.1.2,None,
2710.jpg,9252.jpg,1 Point,1 Point,325 points,PS2_L6.csv,,,,,,,,,,,,,,,,,,,,,,,,,,,,,0,5,5,5,0,8,8,8,,,,,,,,,,,,,,,,,,,1819.875483208,p,0.3220822500002214,1820.271060833,,,,,,253300,B,2024-10-26_14h09.58.390,EPIDM,2023.1.2,None,
2260.jpg,2830.jpg,5 Points,5 Points,330 points,PS2_L6.csv,,,,,,,,,,,,,,,,,,,,,,,,,,,,,0,5,5,5,0,9,9,9,,,,,,,,,,,,,,,,,,,1824.518139958,q,0.5031751669998812,1825.090337125,,,,,,253300,B,2024-10-26_14h09.58.390,EPIDM,2023.1.2,None,
6510.jpg,A074.jpg,2 Points,2 Points,332 points,PS2_L6.csv,,,,,,,,,,,,,,,,,,,,,,,,,,,,,0,5,5,5,0,10,10,10,,,,,,,,,,,,,,,,,,,1829.345883542,p,1.0827964999998585,1830.5398631670002,,,,,,253300,B,2024-10-26_14h09.58.390,EPIDM,2023.1.2,None,
5300.jpg,2372.jpg,1 Point,1 Point,333 points,PS2_L6.csv,,,,,,,,,,,,,,,,,,,,,,,,,,,,,0,5,5,5,0,11,11,11,,,,,,,,,,,,,,,,,,,1834.758233542,q,0.4381631669998569,1835.306137375,,,,,,253300,B,2024-10-26_14h09.58.390,EPIDM,2023.1.2,None,
2749.jpg,7282.jpg,3 Points,3 Points,336 points,PS2_L6.csv,,,,,,,,,,,,,,,,,,,,,,,,,,,,,0,5,5,5,0,12,12,12,,,,,,,,,,,,,,,,,,,1839.5173443750002,p,1.5185844169996017,1841.1143291670003,,,,,,253300,B,2024-10-26_14h09.58.390,EPIDM,2023.1.2,None,
3130.jpg,3500.jpg,4 Points,4 Points,340 points,PS2_L6.csv,,,,,,,,,,,,,,,,,,,,,,,,,,,,,0,5,5,5,0,13,13,13,,,,,,,,,,,,,,,,,,,1845.349799542,p,1.4394337089997862,1846.859387708,4,1.1265026670002953,,,,253300,B,2024-10-26_14h09.58.390,EPIDM,2023.1.2,None,
6312.jpg,3230.jpg,2 Points,2 Points,342 points,PS2_L6.csv,,,,,,,,,,,,,,,,,,,,,,,,,,,,,0,5,5,5,0,14,14,14,,,,,,,,,,,,,,,,,,,1852.308401125,q,1.0318359170000804,1853.409821042,,,,,,253300,B,2024-10-26_14h09.58.390,EPIDM,2023.1.2,None,
2597.jpg,5870.jpg,5 Points,5 Points,347 points,PS2_L6.csv,,,,,,,,,,,,,,,,,,,,,,,,,,,,,0,5,5,5,0,15,15,15,,,,,,,,,,,,,,,,,,,1857.6694948330003,q,1.5181278750001184,1859.259835958,,,,,,253300,B,2024-10-26_14h09.58.390,EPIDM,2023.1.2,None,
8033.jpg,7270.jpg,3 Points,3 Points,350 points,PS2_L6.csv,,,,,,,,,,,,,,,,,,,,,,,,,,,,,0,5,5,5,0,16,16,16,,,,,,,,,,,,,,,,,,,1863.5244221670002,p,1.5345212919996811,1865.1299971670003,,,,,,253300,B,2024-10-26_14h09.58.390,EPIDM,2023.1.2,None,
3170.jpg,6560.jpg,2 Points,2 Points,352 points,PS2_L6.csv,,,,,,,,,,,,,,,,,,,,,,,,,,,,,0,5,5,5,0,17,17,17,,,,,,,,,,,,,,,,,,,1869.3812958750002,p,2.127107624999553,1871.5713475,,,,,,253300,B,2024-10-26_14h09.58.390,EPIDM,2023.1.2,None,
6242.jpg,F034.jpg,4 Points,4 Points,356 points,PS2_L6.csv,,,,,,,,,,,,,,,,,,,,,,,,,,,,,0,5,5,5,0,18,18,18,,,,,,,,,,,,,,,,,,,1875.8337802080002,q,1.4017892090000714,1877.348155333,,,,,,253300,B,2024-10-26_14h09.58.390,EPIDM,2023.1.2,None,
2485.jpg,7350.jpg,0 Points,0 Points,356 points,PS2_L6.csv,,,,,,,,,,,,,,,,,,,,,,,,,,,,,0,5,5,5,0,19,19,19,,,,,,,,,,,,,,,,,,,1881.5638662920003,p,1.0415412919996925,1882.6760756670003,,,,,,253300,B,2024-10-26_14h09.58.390,EPIDM,2023.1.2,None,
2900.jpg,1101.jpg,3 Points,3 Points,359 points,PS2_L6.csv,,,,,,,,,,,,,,,,,,,,,,,,,,,,,0,5,5,5,0,20,20,20,,,,,,,,,,,,,,,,,,,1886.9232950830003,q,1.2000541249999515,1888.2082496250002,,,,,,253300,B,2024-10-26_14h09.58.390,EPIDM,2023.1.2,None,
7002.jpg,4660.jpg,4 Points,4 Points,363 points,PS2_L6.csv,,,,,,,,,,,,,,,,,,,,,,,,,,,,,0,5,5,5,0,21,21,21,,,,,,,,,,,,,,,,,,,1892.447256583,p,0.5411030420000316,1893.0721027920001,,,,,,253300,B,2024-10-26_14h09.58.390,EPIDM,2023.1.2,None,
A025.jpg,1051.jpg,0 Points,0 Points,363 points,PS2_L6.csv,,,,,,,,,,,,,,,,,,,,,,,,,,,,,0,5,5,5,0,22,22,22,,,,,,,,,,,,,,,,,,,1897.3135733330002,q,1.6181156259999625,1899.0554265829999,,,,,,253300,B,2024-10-26_14h09.58.390,EPIDM,2023.1.2,None,
4510.jpg,2230.jpg,5 Points,5 Points,368 points,PS2_L6.csv,,,,,,,,,,,,,,,,,,,,,,,,,,,,,0,5,5,5,0,23,23,23,,,,,,,,,,,,,,,,,,,1903.2595641250002,p,2.0637001670002064,1905.441145125,,,1915.87577025,space,1.7662416250000206,253300,B,2024-10-26_14h09.58.390,EPIDM,2023.1.2,None,
2383.jpg,1616.jpg,2 Points,2 Points,370 points,PS2_L7.csv,,,,,,,,,,,,,,,,,,,,,,,,,,,,,0,6,6,6,0,0,0,0,,,,,,,,,,,,,,,,,,,1920.954086167,p,1.3842936249998274,1922.426221333,,,,,,253300,B,2024-10-26_14h09.58.390,EPIDM,2023.1.2,None,
1310.jpg,3181.jpg,4 Points,4 Points,374 points,PS2_L7.csv,,,,,,,,,,,,,,,,,,,,,,,,,,,,,0,6,6,6,0,1,1,1,,,,,,,,,,,,,,,,,,,1926.676996375,q,2.3499602500000947,1929.095396375,4,1.71307729199998,,,,253300,B,2024-10-26_14h09.58.390,EPIDM,2023.1.2,None,
7289.jpg,4534.jpg,0 Points,0 Points,374 points,PS2_L7.csv,,,,,,,,,,,,,,,,,,,,,,,,,,,,,0,6,6,6,0,2,2,2,,,,,,,,,,,,,,,,,,,1935.1300692080001,q,0.7448335419999239,1935.9437437500003,,,,,,253300,B,2024-10-26_14h09.58.390,EPIDM,2023.1.2,None,
6010.jpg,7361.jpg,2 Points,2 Points,376 points,PS2_L7.csv,,,,,,,,,,,,,,,,,,,,,,,,,,,,,0,6,6,6,0,3,3,3,,,,,,,,,,,,,,,,,,,1940.183193083,None,,,,,,,,253300,B,2024-10-26_14h09.58.390,EPIDM,2023.1.2,None,
2661.jpg,2870.jpg,5 Points,5 Points,381 points,PS2_L7.csv,,,,,,,,,,,,,,,,,,,,,,,,,,,,,0,6,6,6,0,4,4,4,,,,,,,,,,,,,,,,,,,1947.6922916670003,p,0.9666403340002034,1948.730626625,,,,,,253300,B,2024-10-26_14h09.58.390,EPIDM,2023.1.2,None,
7220.jpg,8090.jpg,2 Points,2 Points,383 points,PS2_L7.csv,,,,,,,,,,,,,,,,,,,,,,,,,,,,,0,6,6,6,0,5,5,5,,,,,,,,,,,,,,,,,,,1952.9788958330003,q,0.47153562499988766,1953.5186618750001,,,,,,253300,B,2024-10-26_14h09.58.390,EPIDM,2023.1.2,None,
9140.jpg,2810.jpg,3 Points,3 Points,386 points,PS2_L7.csv,,,,,,,,,,,,,,,,,,,,,,,,,,,,,0,6,6,6,0,6,6,6,,,,,,,,,,,,,,,,,,,1957.767326458,p,0.7070067919999019,1958.542881792,,,,,,253300,B,2024-10-26_14h09.58.390,EPIDM,2023.1.2,None,
2516.jpg,8500.jpg,4 Points,4 Points,390 points,PS2_L7.csv,,,,,,,,,,,,,,,,,,,,,,,,,,,,,0,6,6,6,0,7,7,7,,,,,,,,,,,,,,,,,,,1962.797441292,p,0.6847265419996802,1963.532456667,,,,,,253300,B,2024-10-26_14h09.58.390,EPIDM,2023.1.2,None,
9070.jpg,9420.jpg,2 Points,2 Points,392 points,PS2_L7.csv,,,,,,,,,,,,,,,,,,,,,,,,,,,,,0,6,6,6,0,8,8,8,,,,,,,,,,,,,,,,,,,1967.8052196250003,q,0.9849954589994923,1968.8478874580003,,,,,,253300,B,2024-10-26_14h09.58.390,EPIDM,2023.1.2,None,
6561.jpg,1525.jpg,2 Points,2 Points,394 points,PS2_L7.csv,,,,,,,,,,,,,,,,,,,,,,,,,,,,,0,6,6,6,0,9,9,9,,,,,,,,,,,,,,,,,,,1973.1127369580001,q,0.9044174589998875,1974.0569803330002,,,,,,253300,B,2024-10-26_14h09.58.390,EPIDM,2023.1.2,None,
7175.jpg,7490.jpg,2 Points,2 Points,396 points,PS2_L7.csv,,,,,,,,,,,,,,,,,,,,,,,,,,,,,0,6,6,6,0,10,10,10,,,,,,,,,,,,,,,,,,,1978.3381540420003,p,0.5108219589997134,1978.8940634580001,,,,,,253300,B,2024-10-26_14h09.58.390,EPIDM,2023.1.2,None,
8010.jpg,2630.jpg,0 Points,0 Points,396 points,PS2_L7.csv,,,,,,,,,,,,,,,,,,,,,,,,,,,,,0,6,6,6,0,11,11,11,,,,,,,,,,,,,,,,,,,1983.1654557499999,q,0.3553632509997442,1983.5739839170003,,,,,,253300,B,2024-10-26_14h09.58.390,EPIDM,2023.1.2,None,
F174.jpg,9404.jpg,5 Points,5 Points,401 points,PS2_L7.csv,,,,,,,,,,,,,,,,,,,,,,,,,,,,,0,6,6,6,0,12,12,12,,,,,,,,,,,,,,,,,,,1987.845062,p,0.9720239589996709,1988.890135667,,,,,,253300,B,2024-10-26_14h09.58.390,EPIDM,2023.1.2,None,
2692.jpg,8231.jpg,4 Points,4 Points,405 points,PS2_L7.csv,,,,,,,,,,,,,,,,,,,,,,,,,,,,,0,6,6,6,0,13,13,13,,,,,,,,,,,,,,,,,,,1993.129080208,q,0.591471791999993,1993.781807042,4,1.2016658749998896,,,,253300,B,2024-10-26_14h09.58.390,EPIDM,2023.1.2,None,
5994.jpg,5390.jpg,0 Points,0 Points,405 points,PS2_L7.csv,,,,,,,,,,,,,,,,,,,,,,,,,,,,,0,6,6,6,0,14,14,14,,,,,,,,,,,,,,,,,,,1999.297482667,q,0.8156211260002237,2000.1777882920003,,,,,,253300,B,2024-10-26_14h09.58.390,EPIDM,2023.1.2,None,
9560.jpg,3071.jpg,1 Point,1 Point,406 points,PS2_L7.csv,,,,,,,,,,,,,,,,,,,,,,,,,,,,,0,6,6,6,0,15,15,15,,,,,,,,,,,,,,,,,,,2004.445418292,p,0.9781287499995415,2005.4905367500003,,,,,,253300,B,2024-10-26_14h09.58.390,EPIDM,2023.1.2,None,
9330.jpg,3015.jpg,5 Points,5 Points,411 points,PS2_L7.csv,,,,,,,,,,,,,,,,,,,,,,,,,,,,,0,6,6,6,0,16,16,16,,,,,,,,,,,,,,,,,,,2009.746073958,q,1.2145075420003195,2011.023144042,,,,,,253300,B,2024-10-26_14h09.58.390,EPIDM,2023.1.2,None,
2389.jpg,7320.jpg,0 Points,0 Points,411 points,PS2_L7.csv,,,,,,,,,,,,,,,,,,,,,,,,,,,,,0,6,6,6,0,17,17,17,,,,,,,,,,,,,,,,,,,2015.2778878750003,q,0.8824149170000055,2016.233506375,,,,,,253300,B,2024-10-26_14h09.58.390,EPIDM,2023.1.2,None,
6570.1.jpg,9432.jpg,5 Points,5 Points,416 points,PS2_L7.csv,,,,,,,,,,,,,,,,,,,,,,,,,,,,,0,6,6,6,0,18,18,18,,,,,,,,,,,,,,,,,,,2020.4878047079999,p,0.7515681249997215,2021.3104540000002,,,,,,253300,B,2024-10-26_14h09.58.390,EPIDM,2023.1.2,None,
9452.jpg,7184.jpg,4 Points,4 Points,420 points,PS2_L7.csv,,,,,,,,,,,,,,,,,,,,,,,,,,,,,0,6,6,6,0,19,19,19,,,,,,,,,,,,,,,,,,,2025.561985083,q,1.509062042000096,2027.142614917,,,,,,253300,B,2024-10-26_14h09.58.390,EPIDM,2023.1.2,None,
5120.jpg,5520.jpg,2 Points,2 Points,422 points,PS2_L7.csv,,,,,,,,,,,,,,,,,,,,,,,,,,,,,0,6,6,6,0,20,20,20,,,,,,,,,,,,,,,,,,,2031.3938743330002,p,1.3983544590000747,2032.8840131250001,,,,,,253300,B,2024-10-26_14h09.58.390,EPIDM,2023.1.2,None,
5970.jpg,3300.jpg,0 Points,0 Points,422 points,PS2_L7.csv,,,,,,,,,,,,,,,,,,,,,,,,,,,,,0,6,6,6,0,21,21,21,,,,,,,,,,,,,,,,,,,2037.1179340830001,q,0.7016558749996875,2037.895574042,,,,,,253300,B,2024-10-26_14h09.58.390,EPIDM,2023.1.2,None,
7620.jpg,5395.jpg,1 Point,1 Point,423 points,PS2_L7.csv,,,,,,,,,,,,,,,,,,,,,,,,,,,,,0,6,6,6,0,22,22,22,,,,,,,,,,,,,,,,,,,2042.140903542,q,1.137719959000151,2043.339661875,,,,,,253300,B,2024-10-26_14h09.58.390,EPIDM,2023.1.2,None,
P019.jpg,F158.jpg,3 Points,3 Points,426 points,PS2_L7.csv,,,,,,,,,,,,,,,,,,,,,,,,,,,,,0,6,6,6,0,23,23,23,,,,,,,,,,,,,,,,,,,2047.5954117500003,p,0.7727219589999095,2048.5302530420004,,,2058.9405572080004,space,1.8613367079999534,253300,B,2024-10-26_14h09.58.390,EPIDM,2023.1.2,None,
2620.jpg,2594.jpg,0 Points,0 Points,426 points,PS2_L8.csv,,,,,,,,,,,,,,,,,,,,,,,,,,,,,0,7,7,7,0,0,0,0,,,,,,,,,,,,,,,,,,,2064.1291928749997,p,1.1168933339997693,2065.372365917,,,,,,253300,B,2024-10-26_14h09.58.390,EPIDM,2023.1.2,None,
F369.jpg,3100.jpg,2 Points,2 Points,428 points,PS2_L8.csv,,,,,,,,,,,,,,,,,,,,,,,,,,,,,0,7,7,7,0,1,1,1,,,,,,,,,,,,,,,,,,,2069.5666755,p,1.0083250000004682,2070.668161458,2,1.8351142499998332,,,,253300,B,2024-10-26_14h09.58.390,EPIDM,2023.1.2,None,
1052.jpg,1201.jpg,3 Points,3 Points,431 points,PS2_L8.csv,,,,,,,,,,,,,,,,,,,,,,,,,,,,,0,7,7,7,0,2,2,2,,,,,,,,,,,,,,,,,,,2076.8184972500003,q,0.5147282499999619,2077.4062587079998,,,,,,253300,B,2024-10-26_14h09.58.390,EPIDM,2023.1.2,None,
2606.jpg,2480.jpg,1 Point,1 Point,432 points,PS2_L8.csv,,,,,,,,,,,,,,,,,,,,,,,,,,,,,0,7,7,7,0,3,3,3,,,,,,,,,,,,,,,,,,,2081.650918542,p,0.7496107499998743,2082.466102083,,,,,,253300,B,2024-10-26_14h09.58.390,EPIDM,2023.1.2,None,
9594.jpg,1080.jpg,4 Points,4 Points,436 points,PS2_L8.csv,,,,,,,,,,,,,,,,,,,,,,,,,,,,,0,7,7,7,0,4,4,4,,,,,,,,,,,,,,,,,,,2086.7218465000005,q,0.2509557500000028,2087.0516862920003,,,,,,253300,B,2024-10-26_14h09.58.390,EPIDM,2023.1.2,None,
4770.jpg,4275.jpg,3 Points,3 Points,439 points,PS2_L8.csv,,,,,,,,,,,,,,,,,,,,,,,,,,,,,0,7,7,7,0,5,5,5,,,,,,,,,,,,,,,,,,,2091.2923079580005,p,0.4575399589996323,2091.835017083,,,,,,253300,B,2024-10-26_14h09.58.390,EPIDM,2023.1.2,None,
P077.jpg,A041.jpg,1 Point,1 Point,440 points,PS2_L8.csv,,,,,,,,,,,,,,,,,,,,,,,,,,,,,0,7,7,7,0,6,6,6,,,,,,,,,,,,,,,,,,,2096.0848332920004,q,1.2656053339994742,2097.5093117080005,,,,,,253300,B,2024-10-26_14h09.58.390,EPIDM,2023.1.2,None,
6550.jpg,9582.jpg,5 Points,5 Points,445 points,PS2_L8.csv,,,,,,,,,,,,,,,,,,,,,,,,,,,,,0,7,7,7,0,7,7,7,,,,,,,,,,,,,,,,,,,2101.6779550829997,q,1.159440209000195,2102.9502498330003,,,,,,253300,B,2024-10-26_14h09.58.390,EPIDM,2023.1.2,None,
8040.jpg,7185.jpg,1 Point,1 Point,446 points,PS2_L8.csv,,,,,,,,,,,,,,,,,,,,,,,,,,,,,0,7,7,7,0,8,8,8,,,,,,,,,,,,,,,,,,,2107.161245542,q,0.7240350419999686,2107.959448333,,,,,,253300,B,2024-10-26_14h09.58.390,EPIDM,2023.1.2,None,
P233.jpg,3060.jpg,1 Point,1 Point,447 points,PS2_L8.csv,,,,,,,,,,,,,,,,,,,,,,,,,,,,,0,7,7,7,0,9,9,9,,,,,,,,,,,,,,,,,,,2112.1977977920005,p,1.990684500999805,2114.2980001670003,,,,,,253300,B,2024-10-26_14h09.58.390,EPIDM,2023.1.2,None,
1090.jpg,P217.jpg,5 Points,5 Points,452 points,PS2_L8.csv,,,,,,,,,,,,,,,,,,,,,,,,,,,,,0,7,7,7,0,10,10,10,,,,,,,,,,,,,,,,,,,2118.5006227080003,q,0.9928707500000655,2119.602576958,,,,,,253300,B,2024-10-26_14h09.58.390,EPIDM,2023.1.2,None,
9405.jpg,6250.2.jpg,3 Points,3 Points,455 points,PS2_L8.csv,,,,,,,,,,,,,,,,,,,,,,,,,,,,,0,7,7,7,0,11,11,11,,,,,,,,,,,,,,,,,,,2123.8043233750004,p,0.4084392920001392,2124.2956667500002,,,,,,253300,B,2024-10-26_14h09.58.390,EPIDM,2023.1.2,None,
1610.jpg,F203.jpg,0 Points,0 Points,455 points,PS2_L8.csv,,,,,,,,,,,,,,,,,,,,,,,,,,,,,0,7,7,7,0,12,12,12,,,,,,,,,,,,,,,,,,,2128.5300987500004,q,0.7706292089994804,2129.4143286670005,,,,,,253300,B,2024-10-26_14h09.58.390,EPIDM,2023.1.2,None,
P222.jpg,9401.jpg,2 Points,2 Points,457 points,PS2_L8.csv,,,,,,,,,,,,,,,,,,,,,,,,,,,,,0,7,7,7,0,13,13,13,,,,,,,,,,,,,,,,,,,2133.6344122500004,p,2.0098281669995686,2135.7572228750005,2,1.7276976260002357,,,,253300,B,2024-10-26_14h09.58.390,EPIDM,2023.1.2,None,
5471.jpg,7352.jpg,2 Points,2 Points,459 points,PS2_L8.csv,,,,,,,,,,,,,,,,,,,,,,,,,,,,,0,7,7,7,0,14,14,14,,,,,,,,,,,,,,,,,,,2141.8169625,q,0.4840804170000865,2142.369324333,,,,,,253300,B,2024-10-26_14h09.58.390,EPIDM,2023.1.2,None,
9042.jpg,2753.jpg,0 Points,0 Points,459 points,PS2_L8.csv,,,,,,,,,,,,,,,,,,,,,,,,,,,,,0,7,7,7,0,15,15,15,,,,,,,,,,,,,,,,,,,2146.614795708,p,0.34979499999940344,2147.029714833,,,,,,253300,B,2024-10-26_14h09.58.390,EPIDM,2023.1.2,None,
8311.jpg,4609.jpg,2 Points,2 Points,461 points,PS2_L8.csv,,,,,,,,,,,,,,,,,,,,,,,,,,,,,0,7,7,7,0,16,16,16,,,,,,,,,,,,,,,,,,,2151.286518125,q,0.21428662499988604,2151.5662026669997,,,,,,253300,B,2024-10-26_14h09.58.390,EPIDM,2023.1.2,None,
2320.jpg,2791.jpg,4 Points,4 Points,465 points,PS2_L8.csv,,,,,,,,,,,,,,,,,,,,,,,,,,,,,0,7,7,7,0,17,17,17,,,,,,,,,,,,,,,,,,,2155.816779625,q,1.0438577919996987,2156.9212534999997,,,,,,253300,B,2024-10-26_14h09.58.390,EPIDM,2023.1.2,None,
F365.jpg,3180.jpg,5 Points,5 Points,470 points,PS2_L8.csv,,,,,,,,,,,,,,,,,,,,,,,,,,,,,0,7,7,7,0,18,18,18,,,,,,,,,,,,,,,,,,,2161.1695291670003,p,1.4110303750001094,2162.683156583,,,,,,253300,B,2024-10-26_14h09.58.390,EPIDM,2023.1.2,None,
9300.jpg,1050.jpg,4 Points,4 Points,474 points,PS2_L8.csv,,,,,,,,,,,,,,,,,,,,,,,,,,,,,0,7,7,7,0,19,19,19,,,,,,,,,,,,,,,,,,,2166.8996214999997,p,0.8322977920004178,2167.8202143750004,,,,,,253300,B,2024-10-26_14h09.58.390,EPIDM,2023.1.2,None,
6150.jpg,2206.jpg,0 Points,0 Points,474 points,PS2_L8.csv,,,,,,,,,,,,,,,,,,,,,,,,,,,,,0,7,7,7,0,20,20,20,,,,,,,,,,,,,,,,,,,2172.049812708,q,0.41811670799984313,2172.545148583,,,,,,253300,B,2024-10-26_14h09.58.390,EPIDM,2023.1.2,None,
6260.jpg,3062.jpg,3 Points,3 Points,477 points,PS2_L8.csv,,,,,,,,,,,,,,,,,,,,,,,,,,,,,0,7,7,7,0,21,21,21,,,,,,,,,,,,,,,,,,,2176.786597042,q,0.6814387919996534,2177.54464,,,,,,253300,B,2024-10-26_14h09.58.390,EPIDM,2023.1.2,None,
6571.jpg,P237.jpg,2 Points,2 Points,479 points,PS2_L8.csv,,,,,,,,,,,,,,,,,,,,,,,,,,,,,0,7,7,7,0,22,22,22,,,,,,,,,,,,,,,,,,,2181.7962924169997,q,1.7188614170001983,2183.6316387919996,,,,,,253300,B,2024-10-26_14h09.58.390,EPIDM,2023.1.2,None,
7283.jpg,1720.jpg,4 Points,4 Points,483 points,PS2_L8.csv,,,,,,,,,,,,,,,,,,,,,,,,,,,,,0,7,7,7,0,23,23,23,,,,,,,,,,,,,,,,,,,2187.839297208,p,0.5967726249998577,2188.5162647079997,,,2199.0058705829997,space,2.2698195419995955,253300,B,2024-10-26_14h09.58.390,EPIDM,2023.1.2,None,
3160.jpg,6210.jpg,1 Point,1 Point,484 points,PS2_L9.csv,,,,,,,,,,,,,,,,,,,,,,,,,,,,,0,8,8,8,0,0,0,0,,,,,,,,,,,,,,,,,,,2204.6025296670005,p,0.58403149999981,2205.262695792,,,,,,253300,B,2024-10-26_14h09.58.390,EPIDM,2023.1.2,None,
2100.jpg,7205.jpg,5 Points,5 Points,489 points,PS2_L9.csv,,,,,,,,,,,,,,,,,,,,,,,,,,,,,0,8,8,8,0,1,1,1,,,,,,,,,,,,,,,,,,,2209.5115095,q,0.40353454199953376,2209.9937967920005,5,1.8085152509995623,,,,253300,B,2024-10-26_14h09.58.390,EPIDM,2023.1.2,None,
9110.jpg,3051.jpg,1 Point,1 Point,490 points,PS2_L9.csv,,,,,,,,,,,,,,,,,,,,,,,,,,,,,0,8,8,8,0,2,2,2,,,,,,,,,,,,,,,,,,,2216.111577208,q,1.1788757500000884,2217.3712598330003,,,,,,253300,B,2024-10-26_14h09.58.390,EPIDM,2023.1.2,None,
9101.jpg,9571.jpg,2 Points,2 Points,492 points,PS2_L9.csv,,,,,,,,,,,,,,,,,,,,,,,,,,,,,0,8,8,8,0,3,3,3,,,,,,,,,,,,,,,,,,,2221.6062154170004,q,0.876017291999915,2222.559466167,,,,,,253300,B,2024-10-26_14h09.58.390,EPIDM,2023.1.2,None,
5410.jpg,1450.jpg,5 Points,5 Points,497 points,PS2_L9.csv,,,,,,,,,,,,,,,,,,,,,,,,,,,,,0,8,8,8,0,4,4,4,,,,,,,,,,,,,,,,,,,2226.802267375,q,0.6000796249998075,2227.4525980830003,,,,,,253300,B,2024-10-26_14h09.58.390,EPIDM,2023.1.2,None,
F149.jpg,3030.jpg,0 Points,0 Points,497 points,PS2_L9.csv,,,,,,,,,,,,,,,,,,,,,,,,,,,,,0,8,8,8,0,5,5,5,,,,,,,,,,,,,,,,,,,2231.718412333,p,1.1879372089999833,2233.016270542,,,,,,253300,B,2024-10-26_14h09.58.390,EPIDM,2023.1.2,None,
3266.jpg,7360.jpg,1 Point,1 Point,498 points,PS2_L9.csv,,,,,,,,,,,,,,,,,,,,,,,,,,,,,0,8,8,8,0,6,6,6,,,,,,,,,,,,,,,,,,,2237.240195083,p,0.8657994589996179,2238.2195554580003,,,,,,253300,B,2024-10-26_14h09.58.390,EPIDM,2023.1.2,None,
5660.jpg,5201.jpg,0 Points,0 Points,498 points,PS2_L9.csv,,,,,,,,,,,,,,,,,,,,,,,,,,,,,0,8,8,8,0,7,7,7,,,,,,,,,,,,,,,,,,,2242.426349458,q,0.39901829200039174,2242.901012833,,,,,,253300,B,2024-10-26_14h09.58.390,EPIDM,2023.1.2,None,
1945.jpg,2800.jpg,4 Points,4 Points,502 points,PS2_L9.csv,,,,,,,,,,,,,,,,,,,,,,,,,,,,,0,8,8,8,0,8,8,8,,,,,,,,,,,,,,,,,,,2247.1397902500003,q,1.7983675839993793,2248.9994750000005,,,,,,253300,B,2024-10-26_14h09.58.390,EPIDM,2023.1.2,None,
3000.jpg,6200.jpg,5 Points,5 Points,507 points,PS2_L9.csv,,,,,,,,,,,,,,,,,,,,,,,,,,,,,0,8,8,8,0,9,9,9,,,,,,,,,,,,,,,,,,,2253.2541495000005,p,0.5878931249997095,2253.9134713330004,,,,,,253300,B,2024-10-26_14h09.58.390,EPIDM,2023.1.2,None,
2215.jpg,2512.jpg,1 Point,1 Point,508 points,PS2_L9.csv,,,,,,,,,,,,,,,,,,,,,,,,,,,,,0,8,8,8,0,10,10,10,,,,,,,,,,,,,,,,,,,2258.1563572920004,q,0.5975593339996976,2258.8330707920004,,,,,,253300,B,2024-10-26_14h09.58.390,EPIDM,2023.1.2,None,
5460.jpg,5800.jpg,0 Points,0 Points,508 points,PS2_L9.csv,,,,,,,,,,,,,,,,,,,,,,,,,,,,,0,8,8,8,0,11,11,11,,,,,,,,,,,,,,,,,,,2263.082024417,q,0.9830732089997127,2264.1454137500004,,,,,,253300,B,2024-10-26_14h09.58.390,EPIDM,2023.1.2,None,
3061.jpg,2717.jpg,4 Points,4 Points,512 points,PS2_L9.csv,,,,,,,,,,,,,,,,,,,,,,,,,,,,,0,8,8,8,0,12,12,12,,,,,,,,,,,,,,,,,,,2268.38915,q,1.5798531249995449,2270.03906825,,,,,,253300,B,2024-10-26_14h09.58.390,EPIDM,2023.1.2,None,
7380.jpg,1220.jpg,1 Point,1 Point,513 points,PS2_L9.csv,,,,,,,,,,,,,,,,,,,,,,,,,,,,,0,8,8,8,0,13,13,13,,,,,,,,,,,,,,,,,,,2274.2846556249997,p,0.9238552089998393,2275.2663228330002,1,1.2631216669999503,,,,253300,B,2024-10-26_14h09.58.390,EPIDM,2023.1.2,None,
1740.jpg,7480.jpg,0 Points,0 Points,513 points,PS2_L9.csv,,,,,,,,,,,,,,,,,,,,,,,,,,,,,0,8,8,8,0,14,14,14,,,,,,,,,,,,,,,,,,,2280.853675083,p,1.0513304999997217,2281.9678128329997,,,,,,253300,B,2024-10-26_14h09.58.390,EPIDM,2023.1.2,None,
7285.jpg,4233.jpg,5 Points,5 Points,518 points,PS2_L9.csv,,,,,,,,,,,,,,,,,,,,,,,,,,,,,0,8,8,8,0,15,15,15,,,,,,,,,,,,,,,,,,,2286.220405125,p,1.188314584000409,2287.479653542,,,,,,253300,B,2024-10-26_14h09.58.390,EPIDM,2023.1.2,None,
6830.jpg,6212.jpg,4 Points,4 Points,522 points,PS2_L9.csv,,,,,,,,,,,,,,,,,,,,,,,,,,,,,0,8,8,8,0,16,16,16,,,,,,,,,,,,,,,,,,,2291.725814042,q,0.6420915009996406,2292.4384821250005,,,,,,253300,B,2024-10-26_14h09.58.390,EPIDM,2023.1.2,None,
7830.jpg,2499.jpg,3 Points,3 Points,525 points,PS2_L9.csv,,,,,,,,,,,,,,,,,,,,,,,,,,,,,0,8,8,8,0,17,17,17,,,,,,,,,,,,,,,,,,,2296.6885152920004,p,0.5522225839993098,2297.3046932079997,,,,,,253300,B,2024-10-26_14h09.58.390,EPIDM,2023.1.2,None,
9520.jpg,1931.jpg,3 Points,3 Points,528 points,PS2_L9.csv,,,,,,,,,,,,,,,,,,,,,,,,,,,,,0,8,8,8,0,18,18,18,,,,,,,,,,,,,,,,,,,2301.5542185000004,q,0.35041483400004836,2301.966196333,,,,,,253300,B,2024-10-26_14h09.58.390,EPIDM,2023.1.2,None,
9160.jpg,1200.jpg,4 Points,4 Points,532 points,PS2_L9.csv,,,,,,,,,,,,,,,,,,,,,,,,,,,,,0,8,8,8,0,19,19,19,,,,,,,,,,,,,,,,,,,2306.2327587500004,q,0.8069716259999495,2307.113838208,,,,,,253300,B,2024-10-26_14h09.58.390,EPIDM,2023.1.2,None,
2020.jpg,1947.jpg,5 Points,5 Points,537 points,PS2_L9.csv,,,,,,,,,,,,,,,,,,,,,,,,,,,,,0,8,8,8,0,20,20,20,,,,,,,,,,,,,,,,,,,2311.3526757500003,q,0.8313751249995676,2312.2609799580005,,,,,,253300,B,2024-10-26_14h09.58.390,EPIDM,2023.1.2,None,
4535.jpg,1811.jpg,1 Point,1 Point,538 points,PS2_L9.csv,,,,,,,,,,,,,,,,,,,,,,,,,,,,,0,8,8,8,0,21,21,21,,,,,,,,,,,,,,,,,,,2316.504729167,q,0.7995384169996669,2317.3814817499997,,,,,,253300,B,2024-10-26_14h09.58.390,EPIDM,2023.1.2,None,
9910.jpg,6940.jpg,2 Points,2 Points,540 points,PS2_L9.csv,,,,,,,,,,,,,,,,,,,,,,,,,,,,,0,8,8,8,0,22,22,22,,,,,,,,,,,,,,,,,,,2321.633182417,p,0.39802358299971274,2322.1038749580002,,,,,,253300,B,2024-10-26_14h09.58.390,EPIDM,2023.1.2,None,
9480.jpg,9250.jpg,0 Points,0 Points,540 points,PS2_L9.csv,,,,,,,,,,,,,,,,,,,,,,,,,,,,,0,8,8,8,0,23,23,23,,,,,,,,,,,,,,,,,,,2326.347311458,q,1.1411459590001414,2327.5532315830005,,,2338.0695084999998,space,1.7703087499996855,253300,B,2024-10-26_14h09.58.390,EPIDM,2023.1.2,None,
1660.jpg,2840.jpg,2 Points,2 Points,542 points,PS2_L10.csv,,,,,,,,,,,,,,,,,,,,,,,,,,,,,0,9,9,9,0,0,0,0,,,,,,,,,,,,,,,,,,,2343.151816333,q,0.8477578339995944,2344.070623417,,,,,,253300,B,2024-10-26_14h09.58.390,EPIDM,2023.1.2,None,
2691.jpg,7640.jpg,0 Points,0 Points,542 points,PS2_L10.csv,,,,,,,,,,,,,,,,,,,,,,,,,,,,,0,9,9,9,0,1,1,1,,,,,,,,,,,,,,,,,,,2348.325960125,p,0.6670557499999177,2349.068755958,0,1.6419757079995634,,,,253300,B,2024-10-26_14h09.58.390,EPIDM,2023.1.2,None,
9180.jpg,9046.jpg,3 Points,3 Points,545 points,PS2_L10.csv,,,,,,,,,,,,,,,,,,,,,,,,,,,,,0,9,9,9,0,2,2,2,,,,,,,,,,,,,,,,,,,2355.0276771669996,q,0.4514799169999151,2355.546376917,,,,,,253300,B,2024-10-26_14h09.58.390,EPIDM,2023.1.2,None,
8041.jpg,2271.jpg,2 Points,2 Points,547 points,PS2_L10.csv,,,,,,,,,,,,,,,,,,,,,,,,,,,,,0,9,9,9,0,3,3,3,,,,,,,,,,,,,,,,,,,2359.795143042,p,0.4188573339999948,2360.2818737079997,,,,,,253300,B,2024-10-26_14h09.58.390,EPIDM,2023.1.2,None,
1661.jpg,1321.jpg,3 Points,3 Points,550 points,PS2_L10.csv,,,,,,,,,,,,,,,,,,,,,,,,,,,,,0,9,9,9,0,4,4,4,,,,,,,,,,,,,,,,,,,2364.5355922500003,q,0.4311503329993229,2365.038260792,,,,,,253300,B,2024-10-26_14h09.58.390,EPIDM,2023.1.2,None,
9430.jpg,3010.jpg,5 Points,5 Points,555 points,PS2_L10.csv,,,,,,,,,,,,,,,,,,,,,,,,,,,,,0,9,9,9,0,5,5,5,,,,,,,,,,,,,,,,,,,2369.291909083,p,0.7008885839998129,2370.044469208,,,,,,253300,B,2024-10-26_14h09.58.390,EPIDM,2023.1.2,None,
2616.jpg,7238.jpg,4 Points,4 Points,559 points,PS2_L10.csv,,,,,,,,,,,,,,,,,,,,,,,,,,,,,0,9,9,9,0,6,6,6,,,,,,,,,,,,,,,,,,,2374.3041143749997,q,0.5346209589999944,2374.9009942499997,,,,,,253300,B,2024-10-26_14h09.58.390,EPIDM,2023.1.2,None,
9470.jpg,9400.jpg,3 Points,3 Points,562 points,PS2_L10.csv,,,,,,,,,,,,,,,,,,,,,,,,,,,,,0,9,9,9,0,7,7,7,,,,,,,,,,,,,,,,,,,2379.155356917,p,0.6743815000002087,2379.8994548749997,,,,,,253300,B,2024-10-26_14h09.58.390,EPIDM,2023.1.2,None,
8260.jpg,8280.jpg,3 Points,3 Points,565 points,PS2_L10.csv,,,,,,,,,,,,,,,,,,,,,,,,,,,,,0,9,9,9,0,8,8,8,,,,,,,,,,,,,,,,,,,2384.158174917,p,1.1439232499999434,2385.3673234999997,,,,,,253300,B,2024-10-26_14h09.58.390,EPIDM,2023.1.2,None,
9230.jpg,9181.jpg,0 Points,0 Points,565 points,PS2_L10.csv,,,,,,,,,,,,,,,,,,,,,,,,,,,,,0,9,9,9,0,9,9,9,,,,,,,,,,,,,,,,,,,2389.6314785000004,q,1.2466025000001082,2390.9403438750005,,,,,,253300,B,2024-10-26_14h09.58.390,EPIDM,2023.1.2,None,
6834.jpg,9120.jpg,5 Points,5 Points,570 points,PS2_L10.csv,,,,,,,,,,,,,,,,,,,,,,,,,,,,,0,9,9,9,0,10,10,10,,,,,,,,,,,,,,,,,,,2395.191818208,q,2.221802042000263,2397.4722498749998,,,,,,253300,B,2024-10-26_14h09.58.390,EPIDM,2023.1.2,None,
2440.jpg,7351.jpg,4 Points,4 Points,574 points,PS2_L10.csv,,,,,,,,,,,,,,,,,,,,,,,,,,,,,0,9,9,9,0,11,11,11,,,,,,,,,,,,,,,,,,,2401.731737833,q,1.1217565000004015,2402.9292171669995,,,,,,253300,B,2024-10-26_14h09.58.390,EPIDM,2023.1.2,None,
9280.jpg,9390.jpg,1 Point,1 Point,575 points,PS2_L10.csv,,,,,,,,,,,,,,,,,,,,,,,,,,,,,0,9,9,9,0,12,12,12,,,,,,,,,,,,,,,,,,,2407.1771809169995,p,2.2369190010001603,2409.4891477499996,,,,,,253300,B,2024-10-26_14h09.58.390,EPIDM,2023.1.2,None,
7186.jpg,9182.jpg,2 Points,2 Points,577 points,PS2_L10.csv,,,,,,,,,,,,,,,,,,,,,,,,,,,,,0,9,9,9,0,13,13,13,,,,,,,,,,,,,,,,,,,2413.7393563329997,q,0.994038333999697,2414.817640208,2,1.2343509590007216,,,,253300,B,2024-10-26_14h09.58.390,EPIDM,2023.1.2,None,
7820.jpg,1121.jpg,0 Points,0 Points,577 points,PS2_L10.csv,,,,,,,,,,,,,,,,,,,,,,,,,,,,,0,9,9,9,0,14,14,14,,,,,,,,,,,,,,,,,,,2420.3577979579995,q,0.3919847499998923,2420.82584375,,,,,,253300,B,2024-10-26_14h09.58.390,EPIDM,2023.1.2,None,
1110.jpg,9331.jpg,2 Points,2 Points,579 points,PS2_L10.csv,,,,,,,,,,,,,,,,,,,,,,,,,,,,,0,9,9,9,0,15,15,15,,,,,,,,,,,,,,,,,,,2425.073108167,p,0.7647268759999406,2425.916846375,,,,,,253300,B,2024-10-26_14h09.58.390,EPIDM,2023.1.2,None,
9001.jpg,9620.jpg,1 Point,1 Point,580 points,PS2_L10.csv,,,,,,,,,,,,,,,,,,,,,,,,,,,,,0,9,9,9,0,16,16,16,,,,,,,,,,,,,,,,,,,2430.156202458,q,0.561180249999552,2430.7934437080003,,,,,,253300,B,2024-10-26_14h09.58.390,EPIDM,2023.1.2,None,
5535.jpg,8210.jpg,3 Points,3 Points,583 points,PS2_L10.csv,,,,,,,,,,,,,,,,,,,,,,,,,,,,,0,9,9,9,0,17,17,17,,,,,,,,,,,,,,,,,,,2435.0352726250003,p,0.9291933330002848,2436.0425189999996,,,,,,253300,B,2024-10-26_14h09.58.390,EPIDM,2023.1.2,None,
7950.jpg,7187.jpg,1 Point,1 Point,584 points,PS2_L10.csv,,,,,,,,,,,,,,,,,,,,,,,,,,,,,0,9,9,9,0,18,18,18,,,,,,,,,,,,,,,,,,,2440.2824859579996,p,0.9220536250002169,2441.273978458,,,,,,253300,B,2024-10-26_14h09.58.390,EPIDM,2023.1.2,None,
3250.jpg,A053.jpg,3 Points,3 Points,587 points,PS2_L10.csv,,,,,,,,,,,,,,,,,,,,,,,,,,,,,0,9,9,9,0,19,19,19,,,,,,,,,,,,,,,,,,,2445.5253184169997,q,1.8952250010004263,2447.5345119579997,,,,,,253300,B,2024-10-26_14h09.58.390,EPIDM,2023.1.2,None,
2205.jpg,3053.jpg,4 Points,4 Points,591 points,PS2_L10.csv,,,,,,,,,,,,,,,,,,,,,,,,,,,,,0,9,9,9,0,20,20,20,,,,,,,,,,,,,,,,,,,2451.753055458,q,0.8196975420003128,2452.6746607919995,,,,,,253300,B,2024-10-26_14h09.58.390,EPIDM,2023.1.2,None,
5594.jpg,5750.jpg,5 Points,5 Points,596 points,PS2_L10.csv,,,,,,,,,,,,,,,,,,,,,,,,,,,,,0,9,9,9,0,21,21,21,,,,,,,,,,,,,,,,,,,2456.8916662499996,p,0.4494124999998803,2457.4216195829995,,,,,,253300,B,2024-10-26_14h09.58.390,EPIDM,2023.1.2,None,
6900.jpg,8531.jpg,4 Points,4 Points,600 points,PS2_L10.csv,,,,,,,,,,,,,,,,,,,,,,,,,,,,,0,9,9,9,0,22,22,22,,,,,,,,,,,,,,,,,,,2461.6628424169994,q,1.333641583000599,2463.078311708,,,,,,253300,B,2024-10-26_14h09.58.390,EPIDM,2023.1.2,None,
1019.jpg,2120.jpg,0 Points,0 Points,600 points,PS2_L10.csv,,,,,,,,,,,,,,,,,,,,,,,,,,,,,0,9,9,9,0,23,23,23,,,,,,,,,,,,,,,,,,,2467.3190897079994,p,0.7810260840003593,2468.167945417,,,2478.6528545419997,space,3.0714101670007494,253300,B,2024-10-26_14h09.58.390,EPIDM,2023.1.2,None,
