L_Scene,R_Scene,Points_L,Points_R,PtTotal,blockFile,Instructions_Loop.thisRepN,Instructions_Loop.thisTrialN,Instructions_Loop.thisN,Instructions_Loop.thisIndex,Redo_Instructions_Loop.thisRepN,Redo_Instructions_Loop.thisTrialN,Redo_Instructions_Loop.thisN,Redo_Instructions_Loop.thisIndex,Practice_Encoding_Loop.thisRepN,Practice_Encoding_Loop.thisTrialN,Practice_Encoding_Loop.thisN,Practice_Encoding_Loop.thisIndex,Practice_Response_Fail_Loop.thisRepN,Practice_Response_Fail_Loop.thisTrialN,Practice_Response_Fail_Loop.thisN,Practice_Response_Fail_Loop.thisIndex,Practice_FB_Loop.thisRepN,Practice_FB_Loop.thisTrialN,Practice_FB_Loop.thisN,Practice_FB_Loop.thisIndex,Practice_Attention_Loop.thisRepN,Practice_Attention_Loop.thisTrialN,Practice_Attention_Loop.thisN,Practice_Attention_Loop.thisIndex,Practice_EncBrk_Loop.thisRepN,Practice_EncBrk_Loop.thisTrialN,Practice_EncBrk_Loop.thisN,Practice_EncBrk_Loop.thisIndex,Encoding_Loop.thisRepN,Encoding_Loop.thisTrialN,Encoding_Loop.thisN,Encoding_Loop.thisIndex,EncStim_Loop.thisRepN,EncStim_Loop.thisTrialN,EncStim_Loop.thisN,EncStim_Loop.thisIndex,Response_Fail_Loop.thisRepN,Response_Fail_Loop.thisTrialN,Response_Fail_Loop.thisN,Response_Fail_Loop.thisIndex,FB_Loop.thisRepN,FB_Loop.thisTrialN,FB_Loop.thisN,FB_Loop.thisIndex,Attention_Loop.thisRepN,Attention_Loop.thisTrialN,Attention_Loop.thisN,Attention_Loop.thisIndex,EncBrk_Loop.thisRepN,EncBrk_Loop.thisTrialN,EncBrk_Loop.thisN,EncBrk_Loop.thisIndex,Transition_Enc.keys,Transition_Enc.rt,Encoding_Resp.started,Encoding_Resp.keys,Encoding_Resp.rt,R_Point_FB_Stim.started,Encoding_Resp.stopped,Attn_resp.keys,Attn_resp.rt,Progress_Tracker.started,EncBrk_Resp.keys,EncBrk_Resp.rt,participant,Group,date,expName,psychopyVersion,frameRate,
,,,,,,,,,,,,,,,,,,,,,,,,,,,,,,,,,,,,,,,,,,,,,,,,,,,,,,,,,,space,5.308113125000091,,,,,,,,,,,272446,A,2024-10-26_15h18.21.982,EPIDM,2023.1.2,None,
A060.jpg,F041.jpg,5 Points,5 Points,5 Points,,,,,,,,,,0,0,0,0,,,,,,,,,,,,,,,,,,,,,,,,,,,,,,,,,,,,,,,,,,,1000.8726676250008,p,3.5141869999997652,1004.5375735000007,,,,,,,272446,A,2024-10-26_15h18.21.982,EPIDM,2023.1.2,None,
O161.jpg,1812.jpg,2 Points,2 Points,7 Points,,,,,,,,,,0,1,1,1,,,,,,,,,,,,,,,,,,,,,,,,,,,,,,,,,,,,,,,,,,,1008.7055416250005,p,2.000922916999116,1010.8540547080001,,,,,,,272446,A,2024-10-26_15h18.21.982,EPIDM,2023.1.2,None,
O013.jpg,A001.jpg,3 Points,3 Points,10 Points,,,,,,,,,,0,2,2,2,,,,,,,,,,,,,,,,,,,,,,,,,,,,,,,,,,,,,,,,,,,1015.0194826250008,None,,,1018.7240749160001,,,,,,272446,A,2024-10-26_15h18.21.982,EPIDM,2023.1.2,None,
P036.jpg,F273.jpg,5 Points,5 Points,15 Points,,,,,,,,,,0,3,3,3,,,,,,,,,,,,,,,,,,,,,,,,,,,,,,,,,,,,,,,,,,,1022.5260955410004,q,1.3792364589999124,1024.0554670410002,,,,,,,272446,A,2024-10-26_15h18.21.982,EPIDM,2023.1.2,None,
L130.jpg,2393.jpg,0 Points,0 Points,15 Points,,,,,,,,,,0,4,4,4,,,,,,,,,,,,,,,,,,,,,,,,,,,,,,,,,,,,,,,,,,,1028.2214727500004,p,1.252321082999515,1029.616149333,,0,4.854427458999453,,,,272446,A,2024-10-26_15h18.21.982,EPIDM,2023.1.2,None,
F279.jpg,P033.jpg,3 Points,3 Points,18 Points,,,,,,,,,,0,5,5,5,,,,,,,,,,,,,,,,,,,,,,,,,,,,,,,,,,,,,,,,,,,1038.7564737500006,q,2.9247771669997746,1041.8235308330004,,,,,,,272446,A,2024-10-26_15h18.21.982,EPIDM,2023.1.2,None,
A104.jpg,2593.jpg,2 Points,2 Points,20 Points,,,,,,,,,,0,6,6,6,,,,,,,,,,,,,,,,,,,,,,,,,,,,,,,,,,,,,,,,,,,1045.9915828750009,q,1.7375045829994633,1047.8642520410003,,,,,,,272446,A,2024-10-26_15h18.21.982,EPIDM,2023.1.2,None,
2598.jpg,2605.jpg,0 Points,0 Points,20 Points,,,,,,,,,,0,7,7,7,,,,,,,,,,,,,,,,,,,,,,,,,,,,,,,,,,,,,,,,,,,1052.0391101250007,p,1.9949209999995219,1054.1415811660008,,,,,,,272446,A,2024-10-26_15h18.21.982,EPIDM,2023.1.2,None,
L005.jpg,O011.jpg,1 Points,1 Points,21 Points,,,,,,,,,,0,8,8,8,,,,,,,,,,,,,,,,,,,,,,,,,,,,,,,,,,,,,,,,,,,1058.3513797080004,p,2.0577014169994072,1060.5418925830008,,,,,,,272446,A,2024-10-26_15h18.21.982,EPIDM,2023.1.2,None,
8186.jpg,F078.jpg,2 Points,2 Points,23 Points,,,,,,,,,,0,9,9,9,,,,,,,,,,,,,,,,,,,,,,,,,,,,,,,,,,,,,,,,,,,1064.7152862910007,q,1.4135857080000278,1066.2631850830003,,2,2.76998545799961,1079.2272970830008,space,19.33797370799948,272446,A,2024-10-26_15h18.21.982,EPIDM,2023.1.2,None,
,,,,,,,,,,,,,,,,,,,,,,,,,,,,,,,,,,,,,,,,,,,,,,,,,,,,,,,,,,space,5.541132374999506,,,,,,,,,,,272446,A,2024-10-26_15h18.21.982,EPIDM,2023.1.2,None,
1019.jpg,2120.jpg,0 Points,0 Points,0 Points,PS1_L1.csv,,,,,,,,,,,,,,,,,,,,,,,,,,,,,0,0,0,0,0,0,0,0,,,,,,,,,,,,,,,,,,,1116.7872857500006,p,1.4210460419999436,1118.2865943330007,,,,,,,272446,A,2024-10-26_15h18.21.982,EPIDM,2023.1.2,None,
6900.jpg,8531.jpg,4 Points,4 Points,4 Points,PS1_L1.csv,,,,,,,,,,,,,,,,,,,,,,,,,,,,,0,0,0,0,0,1,1,1,,,,,,,,,,,,,,,,,,,1122.5113570830008,q,1.593380457999956,1124.1666823750002,,4,1.8582100419998824,,,,272446,A,2024-10-26_15h18.21.982,EPIDM,2023.1.2,None,
5594.jpg,5750.jpg,5 Points,5 Points,9 Points,PS1_L1.csv,,,,,,,,,,,,,,,,,,,,,,,,,,,,,0,0,0,0,0,2,2,2,,,,,,,,,,,,,,,,,,,1130.3374640000002,p,1.534931916999085,1131.955833375,,,,,,,272446,A,2024-10-26_15h18.21.982,EPIDM,2023.1.2,None,
2205.jpg,3053.jpg,4 Points,4 Points,13 Points,PS1_L1.csv,,,,,,,,,,,,,,,,,,,,,,,,,,,,,0,0,0,0,0,3,3,3,,,,,,,,,,,,,,,,,,,1136.1944539160004,p,2.117462708999483,1138.3838028750006,,,,,,,272446,A,2024-10-26_15h18.21.982,EPIDM,2023.1.2,None,
3250.jpg,A053.jpg,3 Points,3 Points,16 Points,PS1_L1.csv,,,,,,,,,,,,,,,,,,,,,,,,,,,,,0,0,0,0,0,4,4,4,,,,,,,,,,,,,,,,,,,1142.6380617080004,p,2.8092808749997857,1145.5488996660006,,,,,,,272446,A,2024-10-26_15h18.21.982,EPIDM,2023.1.2,None,
7950.jpg,7187.jpg,1 Point,1 Point,17 Points,PS1_L1.csv,,,,,,,,,,,,,,,,,,,,,,,,,,,,,0,0,0,0,0,5,5,5,,,,,,,,,,,,,,,,,,,1149.7606295410005,q,1.7983752919990366,1151.6661725830008,,,,,,,272446,A,2024-10-26_15h18.21.982,EPIDM,2023.1.2,None,
5535.jpg,8210.jpg,3 Points,3 Points,20 Points,PS1_L1.csv,,,,,,,,,,,,,,,,,,,,,,,,,,,,,0,0,0,0,0,6,6,6,,,,,,,,,,,,,,,,,,,1155.8736424580002,p,3.2859103749997303,1159.2218617910003,,,,,,,272446,A,2024-10-26_15h18.21.982,EPIDM,2023.1.2,None,
9001.jpg,9620.jpg,1 Point,1 Point,21 Points,PS1_L1.csv,,,,,,,,,,,,,,,,,,,,,,,,,,,,,0,0,0,0,0,7,7,7,,,,,,,,,,,,,,,,,,,1163.4707317080001,q,1.656904124999528,1165.213328541,,,,,,,272446,A,2024-10-26_15h18.21.982,EPIDM,2023.1.2,None,
1110.jpg,9331.jpg,2 Points,2 Points,23 Points,PS1_L1.csv,,,,,,,,,,,,,,,,,,,,,,,,,,,,,0,0,0,0,0,8,8,8,,,,,,,,,,,,,,,,,,,1169.4397212500007,p,2.5837687919993186,1172.0972427080005,,,,,,,272446,A,2024-10-26_15h18.21.982,EPIDM,2023.1.2,None,
7820.jpg,1121.jpg,0 Points,0 Points,23 Points,PS1_L1.csv,,,,,,,,,,,,,,,,,,,,,,,,,,,,,0,0,0,0,0,9,9,9,,,,,,,,,,,,,,,,,,,1176.327445541,q,1.8235808749996067,1178.2117711250003,,,,,,,272446,A,2024-10-26_15h18.21.982,EPIDM,2023.1.2,None,
7186.jpg,9182.jpg,2 Points,2 Points,25 Points,PS1_L1.csv,,,,,,,,,,,,,,,,,,,,,,,,,,,,,0,0,0,0,0,10,10,10,,,,,,,,,,,,,,,,,,,1182.4493347910002,p,2.5728532499997527,1185.1047819580008,,,,,,,272446,A,2024-10-26_15h18.21.982,EPIDM,2023.1.2,None,
9280.jpg,9390.jpg,1 Point,1 Point,26 Points,PS1_L1.csv,,,,,,,,,,,,,,,,,,,,,,,,,,,,,0,0,0,0,0,11,11,11,,,,,,,,,,,,,,,,,,,1189.3319483330006,q,1.6117287499992017,1191.0251341250005,,,,,,,272446,A,2024-10-26_15h18.21.982,EPIDM,2023.1.2,None,
2440.jpg,7351.jpg,4 Points,4 Points,30 Points,PS1_L1.csv,,,,,,,,,,,,,,,,,,,,,,,,,,,,,0,0,0,0,0,12,12,12,,,,,,,,,,,,,,,,,,,1195.2625310000003,p,2.103909458999624,1197.4382462080002,,,,,,,272446,A,2024-10-26_15h18.21.982,EPIDM,2023.1.2,None,
6834.jpg,9120.jpg,5 Points,5 Points,35 Points,PS1_L1.csv,,,,,,,,,,,,,,,,,,,,,,,,,,,,,0,0,0,0,0,13,13,13,,,,,,,,,,,,,,,,,,,1201.6791938330007,q,2.246645374999389,1203.9973016250005,,5,2.683034332999341,,,,272446,A,2024-10-26_15h18.21.982,EPIDM,2023.1.2,None,
9230.jpg,9181.jpg,0 Points,0 Points,35 Points,PS1_L1.csv,,,,,,,,,,,,,,,,,,,,,,,,,,,,,0,0,0,0,0,14,14,14,,,,,,,,,,,,,,,,,,,1210.9709039580002,None,,,1214.676161708,,,,,,272446,A,2024-10-26_15h18.21.982,EPIDM,2023.1.2,None,
8260.jpg,8280.jpg,3 Points,3 Points,38 Points,PS1_L1.csv,,,,,,,,,,,,,,,,,,,,,,,,,,,,,0,0,0,0,0,15,15,15,,,,,,,,,,,,,,,,,,,1218.4725043750004,p,0.7111742500001128,1219.2550996660002,,,,,,,272446,A,2024-10-26_15h18.21.982,EPIDM,2023.1.2,None,
9470.jpg,9400.jpg,3 Points,3 Points,41 Points,PS1_L1.csv,,,,,,,,,,,,,,,,,,,,,,,,,,,,,0,0,0,0,0,16,16,16,,,,,,,,,,,,,,,,,,,1223.4991045000006,p,1.2673699580000175,1224.8302371250002,,,,,,,272446,A,2024-10-26_15h18.21.982,EPIDM,2023.1.2,None,
2616.jpg,7238.jpg,4 Points,4 Points,45 Points,PS1_L1.csv,,,,,,,,,,,,,,,,,,,,,,,,,,,,,0,0,0,0,0,17,17,17,,,,,,,,,,,,,,,,,,,1229.0759802500006,q,1.3781812089991945,1230.5200516250006,,,,,,,272446,A,2024-10-26_15h18.21.982,EPIDM,2023.1.2,None,
9430.jpg,3010.jpg,5 Points,5 Points,50 Points,PS1_L1.csv,,,,,,,,,,,,,,,,,,,,,,,,,,,,,0,0,0,0,0,18,18,18,,,,,,,,,,,,,,,,,,,1234.770874666,p,2.5152800419991763,1237.3412349160008,,,,,,,272446,A,2024-10-26_15h18.21.982,EPIDM,2023.1.2,None,
1661.jpg,1321.jpg,3 Points,3 Points,53 Points,PS1_L1.csv,,,,,,,,,,,,,,,,,,,,,,,,,,,,,0,0,0,0,0,19,19,19,,,,,,,,,,,,,,,,,,,1241.5894257080008,p,2.703518958999666,1244.3554470000008,,,,,,,272446,A,2024-10-26_15h18.21.982,EPIDM,2023.1.2,None,
8041.jpg,2271.jpg,2 Points,2 Points,55 Points,PS1_L1.csv,,,,,,,,,,,,,,,,,,,,,,,,,,,,,0,0,0,0,0,20,20,20,,,,,,,,,,,,,,,,,,,1248.6129808330006,q,2.9531520840000667,1251.6353872080008,,,,,,,272446,A,2024-10-26_15h18.21.982,EPIDM,2023.1.2,None,
9180.jpg,9046.jpg,3 Points,3 Points,58 Points,PS1_L1.csv,,,,,,,,,,,,,,,,,,,,,,,,,,,,,0,0,0,0,0,21,21,21,,,,,,,,,,,,,,,,,,,1255.8755368330003,q,1.969112041999324,1257.919683,,,,,,,272446,A,2024-10-26_15h18.21.982,EPIDM,2023.1.2,None,
2691.jpg,7640.jpg,0 Points,0 Points,58 Points,PS1_L1.csv,,,,,,,,,,,,,,,,,,,,,,,,,,,,,0,0,0,0,0,22,22,22,,,,,,,,,,,,,,,,,,,1262.1559482910006,q,1.5532072919995699,1263.7815555410007,,,,,,,272446,A,2024-10-26_15h18.21.982,EPIDM,2023.1.2,None,
1660.jpg,2840.jpg,2 Points,2 Points,60 Points,PS1_L1.csv,,,,,,,,,,,,,,,,,,,,,,,,,,,,,0,0,0,0,0,23,23,23,,,,,,,,,,,,,,,,,,,1268.0183042080007,q,1.938852291999865,1270.0321974160006,,,,1280.499747666,space,9.06619845899968,272446,A,2024-10-26_15h18.21.982,EPIDM,2023.1.2,None,
9480.jpg,9250.jpg,0 Points,0 Points,60 Points,PS1_L2.csv,,,,,,,,,,,,,,,,,,,,,,,,,,,,,0,1,1,1,0,0,0,0,,,,,,,,,,,,,,,,,,,1292.8824584160002,p,1.1940157919998455,1294.1438613750006,,,,,,,272446,A,2024-10-26_15h18.21.982,EPIDM,2023.1.2,None,
9910.jpg,6940.jpg,2 Points,2 Points,62 Points,PS1_L2.csv,,,,,,,,,,,,,,,,,,,,,,,,,,,,,0,1,1,1,0,1,1,1,,,,,,,,,,,,,,,,,,,1298.385159458,q,1.6274647919990457,1300.0729998750003,,2,2.1644161669992172,,,,272446,A,2024-10-26_15h18.21.982,EPIDM,2023.1.2,None,
4535.jpg,1811.jpg,1 Point,1 Point,63 Points,PS1_L2.csv,,,,,,,,,,,,,,,,,,,,,,,,,,,,,0,1,1,1,0,2,2,2,,,,,,,,,,,,,,,,,,,1306.5575616250007,p,1.366877917000238,1308.0053025410007,,,,,,,272446,A,2024-10-26_15h18.21.982,EPIDM,2023.1.2,None,
2020.jpg,1947.jpg,5 Points,5 Points,68 Points,PS1_L2.csv,,,,,,,,,,,,,,,,,,,,,,,,,,,,,0,1,1,1,0,3,3,3,,,,,,,,,,,,,,,,,,,1312.2403372500003,q,1.4924117079990538,1313.8019820000009,,,,,,,272446,A,2024-10-26_15h18.21.982,EPIDM,2023.1.2,None,
9160.jpg,1200.jpg,4 Points,4 Points,72 Points,PS1_L2.csv,,,,,,,,,,,,,,,,,,,,,,,,,,,,,0,1,1,1,0,4,4,4,,,,,,,,,,,,,,,,,,,1318.0409253750004,q,2.4190641669993056,1320.5353195410007,,,,,,,272446,A,2024-10-26_15h18.21.982,EPIDM,2023.1.2,None,
9520.jpg,1931.jpg,3 Points,3 Points,75 Points,PS1_L2.csv,,,,,,,,,,,,,,,,,,,,,,,,,,,,,0,1,1,1,0,5,5,5,,,,,,,,,,,,,,,,,,,1324.767743333,q,2.2202717499994833,1327.0533057910006,,,,,,,272446,A,2024-10-26_15h18.21.982,EPIDM,2023.1.2,None,
7830.jpg,2499.jpg,3 Points,3 Points,78 Points,PS1_L2.csv,,,,,,,,,,,,,,,,,,,,,,,,,,,,,0,1,1,1,0,6,6,6,,,,,,,,,,,,,,,,,,,1331.2972716660006,p,2.0751545419998365,1333.4354991660002,,,,,,,272446,A,2024-10-26_15h18.21.982,EPIDM,2023.1.2,None,
6830.jpg,6212.jpg,4 Points,4 Points,82 Points,PS1_L2.csv,,,,,,,,,,,,,,,,,,,,,,,,,,,,,0,1,1,1,0,7,7,7,,,,,,,,,,,,,,,,,,,1337.6870935410006,q,2.172777041999325,1339.919901708,,,,,,,272446,A,2024-10-26_15h18.21.982,EPIDM,2023.1.2,None,
7285.jpg,4233.jpg,5 Points,5 Points,87 Points,PS1_L2.csv,,,,,,,,,,,,,,,,,,,,,,,,,,,,,0,1,1,1,0,8,8,8,,,,,,,,,,,,,,,,,,,1344.1658243330003,p,2.6458282920002603,1346.8833360000008,,,,,,,272446,A,2024-10-26_15h18.21.982,EPIDM,2023.1.2,None,
1740.jpg,7480.jpg,0 Points,0 Points,87 Points,PS1_L2.csv,,,,,,,,,,,,,,,,,,,,,,,,,,,,,0,1,1,1,0,9,9,9,,,,,,,,,,,,,,,,,,,1351.1252664580006,p,1.8229919590003192,1353.0279497910005,,,,,,,272446,A,2024-10-26_15h18.21.982,EPIDM,2023.1.2,None,
7380.jpg,1220.jpg,1 Point,1 Point,88 Points,PS1_L2.csv,,,,,,,,,,,,,,,,,,,,,,,,,,,,,0,1,1,1,0,10,10,10,,,,,,,,,,,,,,,,,,,1357.269829541,q,1.6303018750004412,1358.9664532080005,,,,,,,272446,A,2024-10-26_15h18.21.982,EPIDM,2023.1.2,None,
3061.jpg,2717.jpg,4 Points,4 Points,92 Points,PS1_L2.csv,,,,,,,,,,,,,,,,,,,,,,,,,,,,,0,1,1,1,0,11,11,11,,,,,,,,,,,,,,,,,,,1363.2142744580005,q,1.285317208999004,1364.5549439160004,,,,,,,272446,A,2024-10-26_15h18.21.982,EPIDM,2023.1.2,None,
5460.jpg,5800.jpg,0 Points,0 Points,92 Points,PS1_L2.csv,,,,,,,,,,,,,,,,,,,,,,,,,,,,,0,1,1,1,0,12,12,12,,,,,,,,,,,,,,,,,,,1368.8004242910001,q,1.5869087089995446,1370.4635592500008,,,,,,,272446,A,2024-10-26_15h18.21.982,EPIDM,2023.1.2,None,
2215.jpg,2512.jpg,1 Point,1 Point,93 Points,PS1_L2.csv,,,,,,,,,,,,,,,,,,,,,,,,,,,,,0,1,1,1,0,13,13,13,,,,,,,,,,,,,,,,,,,1374.6930373750001,q,2.0709000839997316,1376.8319966660001,,1,1.6348463759995866,,,,272446,A,2024-10-26_15h18.21.982,EPIDM,2023.1.2,None,
3000.jpg,6200.jpg,5 Points,5 Points,98 Points,PS1_L2.csv,,,,,,,,,,,,,,,,,,,,,,,,,,,,,0,1,1,1,0,14,14,14,,,,,,,,,,,,,,,,,,,1382.7806988750008,q,1.7022717509998984,1384.549016041,,,,,,,272446,A,2024-10-26_15h18.21.982,EPIDM,2023.1.2,None,
1945.jpg,2800.jpg,4 Points,4 Points,102 Points,PS1_L2.csv,,,,,,,,,,,,,,,,,,,,,,,,,,,,,0,1,1,1,0,15,15,15,,,,,,,,,,,,,,,,,,,1388.7892728330007,p,1.4699164589992506,1390.3276111250007,,,,,,,272446,A,2024-10-26_15h18.21.982,EPIDM,2023.1.2,None,
5660.jpg,5201.jpg,0 Points,0 Points,102 Points,PS1_L2.csv,,,,,,,,,,,,,,,,,,,,,,,,,,,,,0,1,1,1,0,16,16,16,,,,,,,,,,,,,,,,,,,1394.5619850830008,q,2.9532628339993607,1397.5843682080003,,,,,,,272446,A,2024-10-26_15h18.21.982,EPIDM,2023.1.2,None,
3266.jpg,7360.jpg,1 Point,1 Point,103 Points,PS1_L2.csv,,,,,,,,,,,,,,,,,,,,,,,,,,,,,0,1,1,1,0,17,17,17,,,,,,,,,,,,,,,,,,,1401.8244840830002,q,0.8023638749991733,1402.6931403750004,,,,,,,272446,A,2024-10-26_15h18.21.982,EPIDM,2023.1.2,None,
F149.jpg,3030.jpg,0 Points,0 Points,103 Points,PS1_L2.csv,,,,,,,,,,,,,,,,,,,,,,,,,,,,,0,1,1,1,0,18,18,18,,,,,,,,,,,,,,,,,,,1406.936990958,p,1.5134134169993558,1408.5699641660003,,,,,,,272446,A,2024-10-26_15h18.21.982,EPIDM,2023.1.2,None,
5410.jpg,1450.jpg,5 Points,5 Points,108 Points,PS1_L2.csv,,,,,,,,,,,,,,,,,,,,,,,,,,,,,0,1,1,1,0,19,19,19,,,,,,,,,,,,,,,,,,,1412.7645440410006,q,1.0696273749990723,1413.9032541660008,,,,,,,272446,A,2024-10-26_15h18.21.982,EPIDM,2023.1.2,None,
9101.jpg,9571.jpg,2 Points,2 Points,110 Points,PS1_L2.csv,,,,,,,,,,,,,,,,,,,,,,,,,,,,,0,1,1,1,0,20,20,20,,,,,,,,,,,,,,,,,,,1418.1549798750002,p,1.599763458999405,1419.8272126250004,,,,,,,272446,A,2024-10-26_15h18.21.982,EPIDM,2023.1.2,None,
9110.jpg,3051.jpg,1 Point,1 Point,111 Points,PS1_L2.csv,,,,,,,,,,,,,,,,,,,,,,,,,,,,,0,1,1,1,0,21,21,21,,,,,,,,,,,,,,,,,,,1424.0646322910006,p,0.9452736249995723,1425.0910475,,,,,,,272446,A,2024-10-26_15h18.21.982,EPIDM,2023.1.2,None,
2100.jpg,7205.jpg,5 Points,5 Points,116 Points,PS1_L2.csv,,,,,,,,,,,,,,,,,,,,,,,,,,,,,0,1,1,1,0,22,22,22,,,,,,,,,,,,,,,,,,,1429.3153073330004,q,1.406501458999628,1430.8049215,,,,,,,272446,A,2024-10-26_15h18.21.982,EPIDM,2023.1.2,None,
3160.jpg,6210.jpg,1 Point,1 Point,117 Points,PS1_L2.csv,,,,,,,,,,,,,,,,,,,,,,,,,,,,,0,1,1,1,0,23,23,23,,,,,,,,,,,,,,,,,,,1435.0352714580004,p,1.414816124999561,1436.5196162910006,,,,1447.0330787080002,space,6.024511042000086,272446,A,2024-10-26_15h18.21.982,EPIDM,2023.1.2,None,
7283.jpg,1720.jpg,4 Points,4 Points,121 Points,PS1_L3.csv,,,,,,,,,,,,,,,,,,,,,,,,,,,,,0,2,2,2,0,0,0,0,,,,,,,,,,,,,,,,,,,1456.3639818750007,p,1.0688237089998438,1457.5060272910005,,,,,,,272446,A,2024-10-26_15h18.21.982,EPIDM,2023.1.2,None,
6571.jpg,P237.jpg,2 Points,2 Points,123 Points,PS1_L3.csv,,,,,,,,,,,,,,,,,,,,,,,,,,,,,0,2,2,2,0,1,1,1,,,,,,,,,,,,,,,,,,,1461.7355992080002,p,1.6342552499991143,1463.4861760830008,,2,1.54736237599991,,,,272446,A,2024-10-26_15h18.21.982,EPIDM,2023.1.2,None,
6260.jpg,3062.jpg,3 Points,3 Points,126 Points,PS1_L3.csv,,,,,,,,,,,,,,,,,,,,,,,,,,,,,0,2,2,2,0,2,2,2,,,,,,,,,,,,,,,,,,,1469.3271906660002,p,1.2512217919993418,1470.6509348750005,,,,,,,272446,A,2024-10-26_15h18.21.982,EPIDM,2023.1.2,None,
6150.jpg,2206.jpg,0 Points,0 Points,126 Points,PS1_L3.csv,,,,,,,,,,,,,,,,,,,,,,,,,,,,,0,2,2,2,0,3,3,3,,,,,,,,,,,,,,,,,,,1474.8924755830003,p,2.724634291998882,1477.6965436660003,,,,,,,272446,A,2024-10-26_15h18.21.982,EPIDM,2023.1.2,None,
9300.jpg,1050.jpg,4 Points,4 Points,130 Points,PS1_L3.csv,,,,,,,,,,,,,,,,,,,,,,,,,,,,,0,2,2,2,0,4,4,4,,,,,,,,,,,,,,,,,,,1481.9341276250007,q,1.8270151669994448,1483.8353934160004,,,,,,,272446,A,2024-10-26_15h18.21.982,EPIDM,2023.1.2,None,
F365.jpg,3180.jpg,5 Points,5 Points,135 Points,PS1_L3.csv,,,,,,,,,,,,,,,,,,,,,,,,,,,,,0,2,2,2,0,5,5,5,,,,,,,,,,,,,,,,,,,1488.0729397910009,q,1.9518713339994065,1490.1184687080004,,,,,,,272446,A,2024-10-26_15h18.21.982,EPIDM,2023.1.2,None,
2320.jpg,2791.jpg,4 Points,4 Points,139 Points,PS1_L3.csv,,,,,,,,,,,,,,,,,,,,,,,,,,,,,0,2,2,2,0,6,6,6,,,,,,,,,,,,,,,,,,,1494.3473310830004,p,2.486103291999825,1496.9332972500006,,,,,,,272446,A,2024-10-26_15h18.21.982,EPIDM,2023.1.2,None,
8311.jpg,4609.jpg,2 Points,2 Points,141 Points,PS1_L3.csv,,,,,,,,,,,,,,,,,,,,,,,,,,,,,0,2,2,2,0,7,7,7,,,,,,,,,,,,,,,,,,,1501.1575407080009,p,1.4835384169991812,1502.723016291,,,,,,,272446,A,2024-10-26_15h18.21.982,EPIDM,2023.1.2,None,
9042.jpg,2753.jpg,0 Points,0 Points,141 Points,PS1_L3.csv,,,,,,,,,,,,,,,,,,,,,,,,,,,,,0,2,2,2,0,8,8,8,,,,,,,,,,,,,,,,,,,1506.9804072910001,p,1.7969652920000954,1508.8428064160007,,,,,,,272446,A,2024-10-26_15h18.21.982,EPIDM,2023.1.2,None,
5471.jpg,7352.jpg,2 Points,2 Points,143 Points,PS1_L3.csv,,,,,,,,,,,,,,,,,,,,,,,,,,,,,0,2,2,2,0,9,9,9,,,,,,,,,,,,,,,,,,,1513.0920327500007,q,2.691964249999728,1515.8512143330008,,,,,,,272446,A,2024-10-26_15h18.21.982,EPIDM,2023.1.2,None,
P222.jpg,9401.jpg,2 Points,2 Points,145 Points,PS1_L3.csv,,,,,,,,,,,,,,,,,,,,,,,,,,,,,0,2,2,2,0,10,10,10,,,,,,,,,,,,,,,,,,,1520.0969685830005,q,1.4466568759989968,1521.6536518330004,,,,,,,272446,A,2024-10-26_15h18.21.982,EPIDM,2023.1.2,None,
1610.jpg,F203.jpg,0 Points,0 Points,145 Points,PS1_L3.csv,,,,,,,,,,,,,,,,,,,,,,,,,,,,,0,2,2,2,0,11,11,11,,,,,,,,,,,,,,,,,,,1525.863204833,p,2.3602721249999377,1528.3622735000008,,,,,,,272446,A,2024-10-26_15h18.21.982,EPIDM,2023.1.2,None,
9405.jpg,6250.2.jpg,3 Points,3 Points,148 Points,PS1_L3.csv,,,,,,,,,,,,,,,,,,,,,,,,,,,,,0,2,2,2,0,12,12,12,,,,,,,,,,,,,,,,,,,1532.5262391660008,q,2.1458309999998164,1534.7777015830006,,,,,,,272446,A,2024-10-26_15h18.21.982,EPIDM,2023.1.2,None,
1090.jpg,P217.jpg,5 Points,5 Points,153 Points,PS1_L3.csv,,,,,,,,,,,,,,,,,,,,,,,,,,,,,0,2,2,2,0,13,13,13,,,,,,,,,,,,,,,,,,,1538.9709817910007,p,1.2057792089999566,1540.2859130410006,,5,1.7715881249996528,,,,272446,A,2024-10-26_15h18.21.982,EPIDM,2023.1.2,None,
P233.jpg,3060.jpg,1 Point,1 Point,154 Points,PS1_L3.csv,,,,,,,,,,,,,,,,,,,,,,,,,,,,,0,2,2,2,0,14,14,14,,,,,,,,,,,,,,,,,,,1546.3922543750004,p,2.1266450009998152,1548.641476916,,,,,,,272446,A,2024-10-26_15h18.21.982,EPIDM,2023.1.2,None,
8040.jpg,7185.jpg,1 Point,1 Point,155 Points,PS1_L3.csv,,,,,,,,,,,,,,,,,,,,,,,,,,,,,0,2,2,2,0,15,15,15,,,,,,,,,,,,,,,,,,,1552.8332980410005,q,1.5660514169994713,1554.4729413750001,,,,,,,272446,A,2024-10-26_15h18.21.982,EPIDM,2023.1.2,None,
6550.jpg,9582.jpg,5 Points,5 Points,160 Points,PS1_L3.csv,,,,,,,,,,,,,,,,,,,,,,,,,,,,,0,2,2,2,0,16,16,16,,,,,,,,,,,,,,,,,,,1558.6983268330005,p,1.6370457499997428,1560.413310375,,,,,,,272446,A,2024-10-26_15h18.21.982,EPIDM,2023.1.2,None,
P077.jpg,A041.jpg,1 Point,1 Point,161 Points,PS1_L3.csv,,,,,,,,,,,,,,,,,,,,,,,,,,,,,0,2,2,2,0,17,17,17,,,,,,,,,,,,,,,,,,,1564.6553815000007,q,2.1443039169998883,1566.9348572910003,,,,,,,272446,A,2024-10-26_15h18.21.982,EPIDM,2023.1.2,None,
4770.jpg,4275.jpg,3 Points,3 Points,164 Points,PS1_L3.csv,,,,,,,,,,,,,,,,,,,,,,,,,,,,,0,2,2,2,0,18,18,18,,,,,,,,,,,,,,,,,,,1571.1018961250002,q,0.9137077089990271,1572.1310106250003,,,,,,,272446,A,2024-10-26_15h18.21.982,EPIDM,2023.1.2,None,
9594.jpg,1080.jpg,4 Points,4 Points,168 Points,PS1_L3.csv,,,,,,,,,,,,,,,,,,,,,,,,,,,,,0,2,2,2,0,19,19,19,,,,,,,,,,,,,,,,,,,1576.3280355410006,p,1.9100465840001561,1578.3194968330008,,,,,,,272446,A,2024-10-26_15h18.21.982,EPIDM,2023.1.2,None,
2606.jpg,2480.jpg,1 Point,1 Point,169 Points,PS1_L3.csv,,,,,,,,,,,,,,,,,,,,,,,,,,,,,0,2,2,2,0,20,20,20,,,,,,,,,,,,,,,,,,,1582.5480176250003,q,2.9703078749998895,1585.5849195,,,,,,,272446,A,2024-10-26_15h18.21.982,EPIDM,2023.1.2,None,
1052.jpg,1201.jpg,3 Points,3 Points,172 Points,PS1_L3.csv,,,,,,,,,,,,,,,,,,,,,,,,,,,,,0,2,2,2,0,21,21,21,,,,,,,,,,,,,,,,,,,1589.8200868330005,p,2.458244583999658,1592.3442023750004,,,,,,,272446,A,2024-10-26_15h18.21.982,EPIDM,2023.1.2,None,
F369.jpg,3100.jpg,2 Points,2 Points,174 Points,PS1_L3.csv,,,,,,,,,,,,,,,,,,,,,,,,,,,,,0,2,2,2,0,22,22,22,,,,,,,,,,,,,,,,,,,1596.5871050410005,p,0.8999729589995695,1597.5817952910002,,,,,,,272446,A,2024-10-26_15h18.21.982,EPIDM,2023.1.2,None,
2620.jpg,2594.jpg,0 Points,0 Points,174 Points,PS1_L3.csv,,,,,,,,,,,,,,,,,,,,,,,,,,,,,0,2,2,2,0,23,23,23,,,,,,,,,,,,,,,,,,,1601.7981815830008,q,1.071534249999786,1602.9316533330002,,,,1613.3996856660006,space,2.3103077919995485,272446,A,2024-10-26_15h18.21.982,EPIDM,2023.1.2,None,
P019.jpg,F158.jpg,3 Points,3 Points,177 Points,PS1_L4.csv,,,,,,,,,,,,,,,,,,,,,,,,,,,,,0,3,3,3,0,0,0,0,,,,,,,,,,,,,,,,,,,1619.0202385830007,q,1.0891920839994782,1620.2541217080006,,,,,,,272446,A,2024-10-26_15h18.21.982,EPIDM,2023.1.2,None,
7620.jpg,5395.jpg,1 Point,1 Point,178 Points,PS1_L4.csv,,,,,,,,,,,,,,,,,,,,,,,,,,,,,0,3,3,3,0,1,1,1,,,,,,,,,,,,,,,,,,,1624.443790583,p,1.3373256259992559,1625.888116,,1,1.3525029169995832,,,,272446,A,2024-10-26_15h18.21.982,EPIDM,2023.1.2,None,
5970.jpg,3300.jpg,0 Points,0 Points,178 Points,PS1_L4.csv,,,,,,,,,,,,,,,,,,,,,,,,,,,,,0,3,3,3,0,2,2,2,,,,,,,,,,,,,,,,,,,1631.5173139160006,p,1.9438776259994484,1633.5325339580004,,,,,,,272446,A,2024-10-26_15h18.21.982,EPIDM,2023.1.2,None,
5120.jpg,5520.jpg,2 Points,2 Points,180 Points,PS1_L4.csv,,,,,,,,,,,,,,,,,,,,,,,,,,,,,0,3,3,3,0,3,3,3,,,,,,,,,,,,,,,,,,,1637.778655,q,1.3382295839992366,1639.184305666,,,,,,,272446,A,2024-10-26_15h18.21.982,EPIDM,2023.1.2,None,
9452.jpg,7184.jpg,4 Points,4 Points,184 Points,PS1_L4.csv,,,,,,,,,,,,,,,,,,,,,,,,,,,,,0,3,3,3,0,4,4,4,,,,,,,,,,,,,,,,,,,1643.4337075410003,q,1.3153168339995318,1644.8126628750006,,,,,,,272446,A,2024-10-26_15h18.21.982,EPIDM,2023.1.2,None,
6570.1.jpg,9432.jpg,5 Points,5 Points,189 Points,PS1_L4.csv,,,,,,,,,,,,,,,,,,,,,,,,,,,,,0,3,3,3,0,5,5,5,,,,,,,,,,,,,,,,,,,1649.0580973750002,p,1.1157283749998896,1650.2406817500005,,,,,,,272446,A,2024-10-26_15h18.21.982,EPIDM,2023.1.2,None,
2389.jpg,7320.jpg,0 Points,0 Points,189 Points,PS1_L4.csv,,,,,,,,,,,,,,,,,,,,,,,,,,,,,0,3,3,3,0,6,6,6,,,,,,,,,,,,,,,,,,,1654.4835529580005,q,1.9538545830000658,1656.5126152910007,,,,,,,272446,A,2024-10-26_15h18.21.982,EPIDM,2023.1.2,None,
9330.jpg,3015.jpg,5 Points,5 Points,194 Points,PS1_L4.csv,,,,,,,,,,,,,,,,,,,,,,,,,,,,,0,3,3,3,0,7,7,7,,,,,,,,,,,,,,,,,,,1660.7517692910005,p,1.1885946669990517,1662.0112480830003,,,,,,,272446,A,2024-10-26_15h18.21.982,EPIDM,2023.1.2,None,
9560.jpg,3071.jpg,1 Point,1 Point,195 Points,PS1_L4.csv,,,,,,,,,,,,,,,,,,,,,,,,,,,,,0,3,3,3,0,8,8,8,,,,,,,,,,,,,,,,,,,1666.2516620000006,p,1.1772962499999267,1667.504027291,,,,,,,272446,A,2024-10-26_15h18.21.982,EPIDM,2023.1.2,None,
5994.jpg,5390.jpg,0 Points,0 Points,195 Points,PS1_L4.csv,,,,,,,,,,,,,,,,,,,,,,,,,,,,,0,3,3,3,0,9,9,9,,,,,,,,,,,,,,,,,,,1671.749199625,q,2.4240917499992065,1674.2380712500008,,,,,,,272446,A,2024-10-26_15h18.21.982,EPIDM,2023.1.2,None,
2692.jpg,8231.jpg,4 Points,4 Points,199 Points,PS1_L4.csv,,,,,,,,,,,,,,,,,,,,,,,,,,,,,0,3,3,3,0,10,10,10,,,,,,,,,,,,,,,,,,,1678.4749255410006,p,1.0812877499993192,1679.6149410410007,,,,,,,272446,A,2024-10-26_15h18.21.982,EPIDM,2023.1.2,None,
F174.jpg,9404.jpg,5 Points,5 Points,204 Points,PS1_L4.csv,,,,,,,,,,,,,,,,,,,,,,,,,,,,,0,3,3,3,0,11,11,11,,,,,,,,,,,,,,,,,,,1683.8763965410008,p,1.5593876259999888,1685.5345296660007,,,,,,,272446,A,2024-10-26_15h18.21.982,EPIDM,2023.1.2,None,
8010.jpg,2630.jpg,0 Points,0 Points,204 Points,PS1_L4.csv,,,,,,,,,,,,,,,,,,,,,,,,,,,,,0,3,3,3,0,12,12,12,,,,,,,,,,,,,,,,,,,1689.7452713330003,q,1.9073174579998522,1691.7411751660002,,,,,,,272446,A,2024-10-26_15h18.21.982,EPIDM,2023.1.2,None,
7175.jpg,7490.jpg,2 Points,2 Points,206 Points,PS1_L4.csv,,,,,,,,,,,,,,,,,,,,,,,,,,,,,0,3,3,3,0,13,13,13,,,,,,,,,,,,,,,,,,,1695.9787267500005,p,0.9697338340001807,1697.0169971660007,,2,1.3858789169999,,,,272446,A,2024-10-26_15h18.21.982,EPIDM,2023.1.2,None,
6561.jpg,1525.jpg,2 Points,2 Points,208 Points,PS1_L4.csv,,,,,,,,,,,,,,,,,,,,,,,,,,,,,0,3,3,3,0,14,14,14,,,,,,,,,,,,,,,,,,,1702.7008555410002,q,2.1109049169990612,1704.8791262910008,,,,,,,272446,A,2024-10-26_15h18.21.982,EPIDM,2023.1.2,None,
9070.jpg,9420.jpg,2 Points,2 Points,210 Points,PS1_L4.csv,,,,,,,,,,,,,,,,,,,,,,,,,,,,,0,3,3,3,0,15,15,15,,,,,,,,,,,,,,,,,,,1709.1285890000008,p,1.330759751000187,1710.5242950830007,,,,,,,272446,A,2024-10-26_15h18.21.982,EPIDM,2023.1.2,None,
2516.jpg,8500.jpg,4 Points,4 Points,214 Points,PS1_L4.csv,,,,,,,,,,,,,,,,,,,,,,,,,,,,,0,3,3,3,0,16,16,16,,,,,,,,,,,,,,,,,,,1714.772516125,q,2.502940791999208,1717.35087475,,,,,,,272446,A,2024-10-26_15h18.21.982,EPIDM,2023.1.2,None,
9140.jpg,2810.jpg,3 Points,3 Points,217 Points,PS1_L4.csv,,,,,,,,,,,,,,,,,,,,,,,,,,,,,0,3,3,3,0,17,17,17,,,,,,,,,,,,,,,,,,,1721.5948970830004,q,1.9051105839998854,1723.5757948330001,,,,,,,272446,A,2024-10-26_15h18.21.982,EPIDM,2023.1.2,None,
7220.jpg,8090.jpg,2 Points,2 Points,219 Points,PS1_L4.csv,,,,,,,,,,,,,,,,,,,,,,,,,,,,,0,3,3,3,0,18,18,18,,,,,,,,,,,,,,,,,,,1727.8245768330007,q,1.8274042089997238,1729.7221704580006,,,,,,,272446,A,2024-10-26_15h18.21.982,EPIDM,2023.1.2,None,
2661.jpg,2870.jpg,5 Points,5 Points,224 Points,PS1_L4.csv,,,,,,,,,,,,,,,,,,,,,,,,,,,,,0,3,3,3,0,19,19,19,,,,,,,,,,,,,,,,,,,1733.9658427910008,p,1.6529181669993704,1735.6806650410008,,,,,,,272446,A,2024-10-26_15h18.21.982,EPIDM,2023.1.2,None,
6010.jpg,7361.jpg,2 Points,2 Points,226 Points,PS1_L4.csv,,,,,,,,,,,,,,,,,,,,,,,,,,,,,0,3,3,3,0,20,20,20,,,,,,,,,,,,,,,,,,,1739.9396178750003,q,1.8155136669993226,1741.8263236660005,,,,,,,272446,A,2024-10-26_15h18.21.982,EPIDM,2023.1.2,None,
7289.jpg,4534.jpg,0 Points,0 Points,226 Points,PS1_L4.csv,,,,,,,,,,,,,,,,,,,,,,,,,,,,,0,3,3,3,0,21,21,21,,,,,,,,,,,,,,,,,,,1746.0751625830007,q,1.4554382509995776,1747.610655208,,,,,,,272446,A,2024-10-26_15h18.21.982,EPIDM,2023.1.2,None,
1310.jpg,3181.jpg,4 Points,4 Points,230 Points,PS1_L4.csv,,,,,,,,,,,,,,,,,,,,,,,,,,,,,0,3,3,3,0,22,22,22,,,,,,,,,,,,,,,,,,,1751.8402617910006,p,1.809828416999153,1753.7181441250004,,,,,,,272446,A,2024-10-26_15h18.21.982,EPIDM,2023.1.2,None,
2383.jpg,1616.jpg,2 Points,2 Points,232 Points,PS1_L4.csv,,,,,,,,,,,,,,,,,,,,,,,,,,,,,0,3,3,3,0,23,23,23,,,,,,,,,,,,,,,,,,,1757.9738295830002,p,1.8610597079996296,1759.9085487910006,,,,1770.3597427910008,space,6.914301875000092,272446,A,2024-10-26_15h18.21.982,EPIDM,2023.1.2,None,
4510.jpg,2230.jpg,5 Points,5 Points,237 Points,PS1_L5.csv,,,,,,,,,,,,,,,,,,,,,,,,,,,,,0,4,4,4,0,0,0,0,,,,,,,,,,,,,,,,,,,1780.5912392500004,p,1.387038582999594,1782.0454435000001,,,,,,,272446,A,2024-10-26_15h18.21.982,EPIDM,2023.1.2,None,
A025.jpg,1051.jpg,0 Points,0 Points,237 Points,PS1_L5.csv,,,,,,,,,,,,,,,,,,,,,,,,,,,,,0,4,4,4,0,1,1,1,,,,,,,,,,,,,,,,,,,1786.2781557080007,p,1.0037573749996227,1787.4073852500005,,0,1.399751541999649,,,,272446,A,2024-10-26_15h18.21.982,EPIDM,2023.1.2,None,
7002.jpg,4660.jpg,4 Points,4 Points,241 Points,PS1_L5.csv,,,,,,,,,,,,,,,,,,,,,,,,,,,,,0,4,4,4,0,2,2,2,,,,,,,,,,,,,,,,,,,1793.1130362500007,p,0.8161892090001857,1794.0558637910008,,,,,,,272446,A,2024-10-26_15h18.21.982,EPIDM,2023.1.2,None,
2900.jpg,1101.jpg,3 Points,3 Points,244 Points,PS1_L5.csv,,,,,,,,,,,,,,,,,,,,,,,,,,,,,0,4,4,4,0,3,3,3,,,,,,,,,,,,,,,,,,,1798.2428689580001,p,2.8146184589995755,1801.1438338750004,,,,,,,272446,A,2024-10-26_15h18.21.982,EPIDM,2023.1.2,None,
2485.jpg,7350.jpg,0 Points,0 Points,244 Points,PS1_L5.csv,,,,,,,,,,,,,,,,,,,,,,,,,,,,,0,4,4,4,0,4,4,4,,,,,,,,,,,,,,,,,,,1805.3729927910008,p,1.3318473339995762,1806.7918739160004,,,,,,,272446,A,2024-10-26_15h18.21.982,EPIDM,2023.1.2,None,
6242.jpg,F034.jpg,4 Points,4 Points,248 Points,PS1_L5.csv,,,,,,,,,,,,,,,,,,,,,,,,,,,,,0,4,4,4,0,5,5,5,,,,,,,,,,,,,,,,,,,1811.022176083,p,1.3548164999992878,1812.4897460000002,,,,,,,272446,A,2024-10-26_15h18.21.982,EPIDM,2023.1.2,None,
3170.jpg,6560.jpg,2 Points,2 Points,250 Points,PS1_L5.csv,,,,,,,,,,,,,,,,,,,,,,,,,,,,,0,4,4,4,0,6,6,6,,,,,,,,,,,,,,,,,,,1816.6933398750007,p,1.6757139589999497,1818.438700875,,,,,,,272446,A,2024-10-26_15h18.21.982,EPIDM,2023.1.2,None,
8033.jpg,7270.jpg,3 Points,3 Points,253 Points,PS1_L5.csv,,,,,,,,,,,,,,,,,,,,,,,,,,,,,0,4,4,4,0,7,7,7,,,,,,,,,,,,,,,,,,,1822.6762263750006,q,2.1409676249995755,1824.885457583,,,,,,,272446,A,2024-10-26_15h18.21.982,EPIDM,2023.1.2,None,
2597.jpg,5870.jpg,5 Points,5 Points,258 Points,PS1_L5.csv,,,,,,,,,,,,,,,,,,,,,,,,,,,,,0,4,4,4,0,8,8,8,,,,,,,,,,,,,,,,,,,1829.125380208,q,1.866835541999535,1831.0686385830004,,,,,,,272446,A,2024-10-26_15h18.21.982,EPIDM,2023.1.2,None,
6312.jpg,3230.jpg,2 Points,2 Points,260 Points,PS1_L5.csv,,,,,,,,,,,,,,,,,,,,,,,,,,,,,0,4,4,4,0,9,9,9,,,,,,,,,,,,,,,,,,,1835.3120060410001,p,1.6481585839992476,1837.0352648330008,,,,,,,272446,A,2024-10-26_15h18.21.982,EPIDM,2023.1.2,None,
3130.jpg,3500.jpg,4 Points,4 Points,264 Points,PS1_L5.csv,,,,,,,,,,,,,,,,,,,,,,,,,,,,,0,4,4,4,0,10,10,10,,,,,,,,,,,,,,,,,,,1841.2788631250005,p,2.2422157920000245,1843.5998225000003,,,,,,,272446,A,2024-10-26_15h18.21.982,EPIDM,2023.1.2,None,
2749.jpg,7282.jpg,3 Points,3 Points,267 Points,PS1_L5.csv,,,,,,,,,,,,,,,,,,,,,,,,,,,,,0,4,4,4,0,11,11,11,,,,,,,,,,,,,,,,,,,1847.8382539580007,q,1.9220841669994115,1849.8257246250005,,,,,,,272446,A,2024-10-26_15h18.21.982,EPIDM,2023.1.2,None,
5300.jpg,2372.jpg,1 Point,1 Point,268 Points,PS1_L5.csv,,,,,,,,,,,,,,,,,,,,,,,,,,,,,0,4,4,4,0,12,12,12,,,,,,,,,,,,,,,,,,,1854.0701230000004,p,1.9453669169997738,1856.0821276660008,,,,,,,272446,A,2024-10-26_15h18.21.982,EPIDM,2023.1.2,None,
6510.jpg,A074.jpg,2 Points,2 Points,270 Points,PS1_L5.csv,,,,,,,,,,,,,,,,,,,,,,,,,,,,,0,4,4,4,0,13,13,13,,,,,,,,,,,,,,,,,,,1860.3281312500003,p,1.607752416999574,1862.0503345000006,,2,1.31033300099989,,,,272446,A,2024-10-26_15h18.21.982,EPIDM,2023.1.2,None,
2260.jpg,2830.jpg,5 Points,5 Points,275 Points,PS1_L5.csv,,,,,,,,,,,,,,,,,,,,,,,,,,,,,0,4,4,4,0,14,14,14,,,,,,,,,,,,,,,,,,,1867.6673256250006,q,2.3883816670004308,1870.1697332910007,,,,,,,272446,A,2024-10-26_15h18.21.982,EPIDM,2023.1.2,None,
2710.jpg,9252.jpg,1 Point,1 Point,276 Points,PS1_L5.csv,,,,,,,,,,,,,,,,,,,,,,,,,,,,,0,4,4,4,0,15,15,15,,,,,,,,,,,,,,,,,,,1874.3711375830007,p,1.0683532509992801,1875.5103598330006,,,,,,,272446,A,2024-10-26_15h18.21.982,EPIDM,2023.1.2,None,
3064.jpg,3168.jpg,4 Points,4 Points,280 Points,PS1_L5.csv,,,,,,,,,,,,,,,,,,,,,,,,,,,,,0,4,4,4,0,16,16,16,,,,,,,,,,,,,,,,,,,1879.7464747910008,q,1.8288449579995358,1881.6384153750005,,,,,,,272446,A,2024-10-26_15h18.21.982,EPIDM,2023.1.2,None,
1640.jpg,5531.jpg,3 Points,3 Points,283 Points,PS1_L5.csv,,,,,,,,,,,,,,,,,,,,,,,,,,,,,0,4,4,4,0,17,17,17,,,,,,,,,,,,,,,,,,,1885.8802755830002,q,2.5585739170001034,1888.5157158750008,,,,,,,272446,A,2024-10-26_15h18.21.982,EPIDM,2023.1.2,None,
3530.jpg,6213.jpg,1 Point,1 Point,284 Points,PS1_L5.csv,,,,,,,,,,,,,,,,,,,,,,,,,,,,,0,4,4,4,0,18,18,18,,,,,,,,,,,,,,,,,,,1892.7541469160005,q,1.7885296249996827,1894.6214747910008,,,,,,,272446,A,2024-10-26_15h18.21.982,EPIDM,2023.1.2,None,
9090.jpg,7580.jpg,3 Points,3 Points,287 Points,PS1_L5.csv,,,,,,,,,,,,,,,,,,,,,,,,,,,,,0,4,4,4,0,19,19,19,,,,,,,,,,,,,,,,,,,1898.8501046250003,p,0.7644054999991567,1899.6939367910009,,,,,,,272446,A,2024-10-26_15h18.21.982,EPIDM,2023.1.2,None,
8230.jpg,2682.jpg,5 Points,5 Points,292 Points,PS1_L5.csv,,,,,,,,,,,,,,,,,,,,,,,,,,,,,0,4,4,4,0,20,20,20,,,,,,,,,,,,,,,,,,,1903.9381578750008,p,1.4681404169996313,1905.4814418750002,,,,,,,272446,A,2024-10-26_15h18.21.982,EPIDM,2023.1.2,None,
9592.jpg,1300.jpg,2 Points,2 Points,294 Points,PS1_L5.csv,,,,,,,,,,,,,,,,,,,,,,,,,,,,,0,4,4,4,0,21,21,21,,,,,,,,,,,,,,,,,,,1909.7270480410007,p,2.0417737919997307,1911.8234083330008,,,,,,,272446,A,2024-10-26_15h18.21.982,EPIDM,2023.1.2,None,
2490.jpg,2590.jpg,4 Points,4 Points,298 Points,PS1_L5.csv,,,,,,,,,,,,,,,,,,,,,,,,,,,,,0,4,4,4,0,22,22,22,,,,,,,,,,,,,,,,,,,1916.0705387500002,q,1.1123462499990637,1917.256496166,,,,,,,272446,A,2024-10-26_15h18.21.982,EPIDM,2023.1.2,None,
2190.jpg,7503.jpg,2 Points,2 Points,300 Points,PS1_L5.csv,,,,,,,,,,,,,,,,,,,,,,,,,,,,,0,4,4,4,0,23,23,23,,,,,,,,,,,,,,,,,,,1921.4956888330007,q,1.0469899170002464,1922.6224574160005,,,,1933.140187166,space,11.857977999999093,272446,A,2024-10-26_15h18.21.982,EPIDM,2023.1.2,None,
1930.jpg,9008.jpg,1 Point,1 Point,301 Points,PS1_L6.csv,,,,,,,,,,,,,,,,,,,,,,,,,,,,,0,5,5,5,0,0,0,0,,,,,,,,,,,,,,,,,,,1948.2964690410008,p,1.212468833999992,1949.5919870000007,,,,,,,272446,A,2024-10-26_15h18.21.982,EPIDM,2023.1.2,None,
4613.jpg,2720.jpg,4 Points,4 Points,305 Points,PS1_L6.csv,,,,,,,,,,,,,,,,,,,,,,,,,,,,,0,5,5,5,0,1,1,1,,,,,,,,,,,,,,,,,,,1953.8190393330005,q,1.795188999999482,1955.6945082500006,,4,1.403112666999732,,,,272446,A,2024-10-26_15h18.21.982,EPIDM,2023.1.2,None,
3280.jpg,9270.jpg,0 Points,0 Points,305 Points,PS1_L6.csv,,,,,,,,,,,,,,,,,,,,,,,,,,,,,0,5,5,5,0,2,2,2,,,,,,,,,,,,,,,,,,,1961.4091887910008,p,3.4122524169988537,1964.8938895410001,,,,,,,272446,A,2024-10-26_15h18.21.982,EPIDM,2023.1.2,None,
6800.jpg,9190.jpg,0 Points,0 Points,305 Points,PS1_L6.csv,,,,,,,,,,,,,,,,,,,,,,,,,,,,,0,5,5,5,0,3,3,3,,,,,,,,,,,,,,,,,,,1969.142433,p,1.2635665839998182,1970.465926416,,,,,,,272446,A,2024-10-26_15h18.21.982,EPIDM,2023.1.2,None,
5600.jpg,9080.jpg,5 Points,5 Points,310 Points,PS1_L6.csv,,,,,,,,,,,,,,,,,,,,,,,,,,,,,0,5,5,5,0,4,4,4,,,,,,,,,,,,,,,,,,,1974.7085875830007,q,1.121031333999781,1975.9068832500006,,,,,,,272446,A,2024-10-26_15h18.21.982,EPIDM,2023.1.2,None,
P211.jpg,9041.jpg,4 Points,4 Points,314 Points,PS1_L6.csv,,,,,,,,,,,,,,,,,,,,,,,,,,,,,0,5,5,5,0,5,5,5,,,,,,,,,,,,,,,,,,,1980.1428627080004,p,1.9906718329993964,1982.2496980000005,,,,,,,272446,A,2024-10-26_15h18.21.982,EPIDM,2023.1.2,None,
5200.jpg,5020.jpg,0 Points,0 Points,314 Points,PS1_L6.csv,,,,,,,,,,,,,,,,,,,,,,,,,,,,,0,5,5,5,0,6,6,6,,,,,,,,,,,,,,,,,,,1986.4479263330004,q,1.8447994169991944,1988.3581896660007,,,,,,,272446,A,2024-10-26_15h18.21.982,EPIDM,2023.1.2,None,
1850.jpg,5623.jpg,5 Points,5 Points,319 Points,PS1_L6.csv,,,,,,,,,,,,,,,,,,,,,,,,,,,,,0,5,5,5,0,7,7,7,,,,,,,,,,,,,,,,,,,1992.5972813330009,q,1.968149166999865,1994.6408611660008,,,,,,,272446,A,2024-10-26_15h18.21.982,EPIDM,2023.1.2,None,
9440.jpg,6350.jpg,4 Points,4 Points,323 Points,PS1_L6.csv,,,,,,,,,,,,,,,,,,,,,,,,,,,,,0,5,5,5,0,8,8,8,,,,,,,,,,,,,,,,,,,1998.8802257910002,q,2.2910952920001364,2001.245553666,,,,,,,272446,A,2024-10-26_15h18.21.982,EPIDM,2023.1.2,None,
5990.jpg,5780.jpg,3 Points,3 Points,326 Points,PS1_L6.csv,,,,,,,,,,,,,,,,,,,,,,,,,,,,,0,5,5,5,0,9,9,9,,,,,,,,,,,,,,,,,,,2005.4875895410005,p,0.9961193339995589,2006.5499744580002,,,,,,,272446,A,2024-10-26_15h18.21.982,EPIDM,2023.1.2,None,
6244.jpg,9265.jpg,0 Points,0 Points,326 Points,PS1_L6.csv,,,,,,,,,,,,,,,,,,,,,,,,,,,,,0,5,5,5,0,10,10,10,,,,,,,,,,,,,,,,,,,2010.7872249580005,p,3.0570417079989056,2013.9094346660004,,,,,,,272446,A,2024-10-26_15h18.21.982,EPIDM,2023.1.2,None,
5000.jpg,8180.jpg,4 Points,4 Points,330 Points,PS1_L6.csv,,,,,,,,,,,,,,,,,,,,,,,,,,,,,0,5,5,5,0,11,11,11,,,,,,,,,,,,,,,,,,,2018.1503626250005,q,1.0314246669995555,2019.2521675410007,,,,,,,272446,A,2024-10-26_15h18.21.982,EPIDM,2023.1.2,None,
5982.jpg,5260.jpg,5 Points,5 Points,335 Points,PS1_L6.csv,,,,,,,,,,,,,,,,,,,,,,,,,,,,,0,5,5,5,0,12,12,12,,,,,,,,,,,,,,,,,,,2023.4852553750006,p,1.6855760829994324,2025.2534203330006,,,,,,,272446,A,2024-10-26_15h18.21.982,EPIDM,2023.1.2,None,
1301.jpg,1070.jpg,2 Points,2 Points,337 Points,PS1_L6.csv,,,,,,,,,,,,,,,,,,,,,,,,,,,,,0,5,5,5,0,13,13,13,,,,,,,,,,,,,,,,,,,2029.4837710000002,p,1.38348437500008,2030.9479527910007,,2,1.3954354589996,,,,272446,A,2024-10-26_15h18.21.982,EPIDM,2023.1.2,None,
7920.jpg,9102.jpg,3 Points,3 Points,340 Points,PS1_L6.csv,,,,,,,,,,,,,,,,,,,,,,,,,,,,,0,5,5,5,0,14,14,14,,,,,,,,,,,,,,,,,,,2036.6368501250008,q,2.9982478330002778,2039.7184620000007,,,,,,,272446,A,2024-10-26_15h18.21.982,EPIDM,2023.1.2,None,
5455.jpg,5220.jpg,0 Points,0 Points,340 Points,PS1_L6.csv,,,,,,,,,,,,,,,,,,,,,,,,,,,,,0,5,5,5,0,15,15,15,,,,,,,,,,,,,,,,,,,2043.9573555410007,p,1.1169882089989187,2045.148633875,,,,,,,272446,A,2024-10-26_15h18.21.982,EPIDM,2023.1.2,None,
3350.jpg,3210.jpg,1 Point,1 Point,341 Points,PS1_L6.csv,,,,,,,,,,,,,,,,,,,,,,,,,,,,,0,5,5,5,0,16,16,16,,,,,,,,,,,,,,,,,,,2049.390228583001,p,1.9655878339999617,2051.4143412910007,,,,,,,272446,A,2024-10-26_15h18.21.982,EPIDM,2023.1.2,None,
2560.jpg,5270.jpg,4 Points,4 Points,345 Points,PS1_L6.csv,,,,,,,,,,,,,,,,,,,,,,,,,,,,,0,5,5,5,0,17,17,17,,,,,,,,,,,,,,,,,,,2055.669822291001,q,2.501229041999977,2058.2378840830006,,,,,,,272446,A,2024-10-26_15h18.21.982,EPIDM,2023.1.2,None,
9584.jpg,3400.jpg,2 Points,2 Points,347 Points,PS1_L6.csv,,,,,,,,,,,,,,,,,,,,,,,,,,,,,0,5,5,5,0,18,18,18,,,,,,,,,,,,,,,,,,,2062.4827050410004,q,0.9444582499991157,2063.5037592500003,,,,,,,272446,A,2024-10-26_15h18.21.982,EPIDM,2023.1.2,None,
5760.jpg,1602.jpg,1 Point,1 Point,348 Points,PS1_L6.csv,,,,,,,,,,,,,,,,,,,,,,,,,,,,,0,5,5,5,0,19,19,19,,,,,,,,,,,,,,,,,,,2067.7495760830006,q,1.5091054169988638,2069.3274027080006,,,,,,,272446,A,2024-10-26_15h18.21.982,EPIDM,2023.1.2,None,
7230.jpg,7570.jpg,5 Points,5 Points,353 Points,PS1_L6.csv,,,,,,,,,,,,,,,,,,,,,,,,,,,,,0,5,5,5,0,20,20,20,,,,,,,,,,,,,,,,,,,2073.582941750001,p,2.876329916999566,2076.530319708,,,,,,,272446,A,2024-10-26_15h18.21.982,EPIDM,2023.1.2,None,
1022.jpg,6930.jpg,1 Point,1 Point,354 Points,PS1_L6.csv,,,,,,,,,,,,,,,,,,,,,,,,,,,,,0,5,5,5,0,21,21,21,,,,,,,,,,,,,,,,,,,2080.7629110410007,p,2.5190595419999227,2083.3550320000004,,,,,,,272446,A,2024-10-26_15h18.21.982,EPIDM,2023.1.2,None,
8340.jpg,7546.jpg,2 Points,2 Points,356 Points,PS1_L6.csv,,,,,,,,,,,,,,,,,,,,,,,,,,,,,0,5,5,5,0,22,22,22,,,,,,,,,,,,,,,,,,,2087.586093541,p,1.7685624589994404,2089.4330398750008,,,,,,,272446,A,2024-10-26_15h18.21.982,EPIDM,2023.1.2,None,
6243.jpg,2752.jpg,2 Points,2 Points,358 Points,PS1_L6.csv,,,,,,,,,,,,,,,,,,,,,,,,,,,,,0,5,5,5,0,23,23,23,,,,,,,,,,,,,,,,,,,2093.680227375,p,1.689507582999795,2095.4380361250005,,,,2105.9318048330006,space,7.957641459000115,272446,A,2024-10-26_15h18.21.982,EPIDM,2023.1.2,None,
7280.jpg,7160.jpg,0 Points,0 Points,358 Points,PS1_L7.csv,,,,,,,,,,,,,,,,,,,,,,,,,,,,,0,6,6,6,0,0,0,0,,,,,,,,,,,,,,,,,,,2117.1922030000005,q,1.8412068329998874,2119.1219322080005,,,,,,,272446,A,2024-10-26_15h18.21.982,EPIDM,2023.1.2,None,
2580.jpg,8300.jpg,3 Points,3 Points,361 Points,PS1_L7.csv,,,,,,,,,,,,,,,,,,,,,,,,,,,,,0,6,6,6,0,1,1,1,,,,,,,,,,,,,,,,,,,2123.351828291001,p,2.6578853339997295,2126.0839972500007,,3,1.2777227919996221,,,,272446,A,2024-10-26_15h18.21.982,EPIDM,2023.1.2,None,
5972.jpg,6838.jpg,5 Points,5 Points,366 Points,PS1_L7.csv,,,,,,,,,,,,,,,,,,,,,,,,,,,,,0,6,6,6,0,2,2,2,,,,,,,,,,,,,,,,,,,2131.644297125001,p,2.2693556669992176,2133.9946801250007,,,,,,,272446,A,2024-10-26_15h18.21.982,EPIDM,2023.1.2,None,
5621.jpg,5534.jpg,3 Points,3 Points,369 Points,PS1_L7.csv,,,,,,,,,,,,,,,,,,,,,,,,,,,,,0,6,6,6,0,3,3,3,,,,,,,,,,,,,,,,,,,2138.2310982500003,q,1.9057764170001974,2140.2049918330003,,,,,,,272446,A,2024-10-26_15h18.21.982,EPIDM,2023.1.2,None,
8480.jpg,6410.jpg,1 Point,1 Point,370 Points,PS1_L7.csv,,,,,,,,,,,,,,,,,,,,,,,,,,,,,0,6,6,6,0,4,4,4,,,,,,,,,,,,,,,,,,,2144.446906958,q,2.034029541999189,2146.5560939160005,,,,,,,272446,A,2024-10-26_15h18.21.982,EPIDM,2023.1.2,None,
2702.jpg,1590.jpg,5 Points,5 Points,375 Points,PS1_L7.csv,,,,,,,,,,,,,,,,,,,,,,,,,,,,,0,6,6,6,0,5,5,5,,,,,,,,,,,,,,,,,,,2150.796946208,p,2.4114001249990906,2153.2824503330003,,,,,,,272446,A,2024-10-26_15h18.21.982,EPIDM,2023.1.2,None,
1275.jpg,3150.jpg,1 Point,1 Point,376 Points,PS1_L7.csv,,,,,,,,,,,,,,,,,,,,,,,,,,,,,0,6,6,6,0,6,6,6,,,,,,,,,,,,,,,,,,,2157.521057666,p,0.6159893750000265,2158.2137254160007,,,,,,,272446,A,2024-10-26_15h18.21.982,EPIDM,2023.1.2,None,
1910.jpg,2575.jpg,2 Points,2 Points,378 Points,PS1_L7.csv,,,,,,,,,,,,,,,,,,,,,,,,,,,,,0,6,6,6,0,7,7,7,,,,,,,,,,,,,,,,,,,2162.4567160000006,q,1.783440583999436,2164.3068326660004,,,,,,,272446,A,2024-10-26_15h18.21.982,EPIDM,2023.1.2,None,
2518.jpg,2381.jpg,1 Point,1 Point,382 Points,PS1_L7.csv,,,,,,,,,,,,,,,,,,,,,,,,,,,,,0,6,6,6,0,8,8,8,,,,,,,,,,,,,,,,,,,2168.5601087080004,q,1.4248405419994015,2170.0458279580007,,,,,,,272446,A,2024-10-26_15h18.21.982,EPIDM,2023.1.2,None,
6250.1.jpg,3301.jpg,0 Points,0 Points,382 Points,PS1_L7.csv,,,,,,,,,,,,,,,,,,,,,,,,,,,,,0,6,6,6,0,9,9,9,,,,,,,,,,,,,,,,,,,2174.2999342910007,p,1.9317521669991038,2176.2947216660004,,,,,,,272446,A,2024-10-26_15h18.21.982,EPIDM,2023.1.2,None,
7234.jpg,5533.jpg,3 Points,3 Points,385 Points,PS1_L7.csv,,,,,,,,,,,,,,,,,,,,,,,,,,,,,0,6,6,6,0,10,10,10,,,,,,,,,,,,,,,,,,,2180.533104,p,3.003615624998929,2183.6158905830007,,,,,,,272446,A,2024-10-26_15h18.21.982,EPIDM,2023.1.2,None,
9920.jpg,3068.jpg,5 Points,5 Points,390 Points,PS1_L7.csv,,,,,,,,,,,,,,,,,,,,,,,,,,,,,0,6,6,6,0,11,11,11,,,,,,,,,,,,,,,,,,,2187.8577230830006,p,2.6227177499995378,2190.541199833,,,,,,,272446,A,2024-10-26_15h18.21.982,EPIDM,2023.1.2,None,
3022.jpg,2352.2.jpg,0 Points,0 Points,390 Points,PS1_L7.csv,,,,,,,,,,,,,,,,,,,,,,,,,,,,,0,6,6,6,0,12,12,12,,,,,,,,,,,,,,,,,,,2194.7949325830004,p,2.613335791999816,2197.472459208,,,,,,,272446,A,2024-10-26_15h18.21.982,EPIDM,2023.1.2,None,
8250.jpg,1313.jpg,4 Points,4 Points,394 Points,PS1_L7.csv,,,,,,,,,,,,,,,,,,,,,,,,,,,,,0,6,6,6,0,13,13,13,,,,,,,,,,,,,,,,,,,2201.712748541,q,2.0865393339990987,2203.8838137500006,,4,1.50674912499926,,,,272446,A,2024-10-26_15h18.21.982,EPIDM,2023.1.2,None,
2690.jpg,9360.jpg,1 Point,1 Point,395 Points,PS1_L7.csv,,,,,,,,,,,,,,,,,,,,,,,,,,,,,0,6,6,6,0,14,14,14,,,,,,,,,,,,,,,,,,,2209.691224041,p,1.6280395419989873,2211.393924,,,,,,,272446,A,2024-10-26_15h18.21.982,EPIDM,2023.1.2,None,
9570.jpg,6610.jpg,0 Points,0 Points,395 Points,PS1_L7.csv,,,,,,,,,,,,,,,,,,,,,,,,,,,,,0,6,6,6,0,15,15,15,,,,,,,,,,,,,,,,,,,2215.6252203330005,p,1.7732491260003371,2217.4660250410006,,,,,,,272446,A,2024-10-26_15h18.21.982,EPIDM,2023.1.2,None,
3110.jpg,9000.jpg,4 Points,4 Points,399 Points,PS1_L7.csv,,,,,,,,,,,,,,,,,,,,,,,,,,,,,0,6,6,6,0,16,16,16,,,,,,,,,,,,,,,,,,,2221.7118840000003,q,1.7507972499997777,2223.533578458,,,,,,,272446,A,2024-10-26_15h18.21.982,EPIDM,2023.1.2,None,
8465.jpg,8400.jpg,1 Point,1 Point,400 Points,PS1_L7.csv,,,,,,,,,,,,,,,,,,,,,,,,,,,,,0,6,6,6,0,17,17,17,,,,,,,,,,,,,,,,,,,2227.7727697910004,p,2.5863404579995404,2230.4330735000003,,,,,,,272446,A,2024-10-26_15h18.21.982,EPIDM,2023.1.2,None,
1540.jpg,2600.jpg,1 Point,1 Point,401 Points,PS1_L7.csv,,,,,,,,,,,,,,,,,,,,,,,,,,,,,0,6,6,6,0,18,18,18,,,,,,,,,,,,,,,,,,,2234.6775712910003,q,1.9456010419999075,2236.694803958,,,,,,,272446,A,2024-10-26_15h18.21.982,EPIDM,2023.1.2,None,
2276.jpg,6540.jpg,3 Points,3 Points,404 Points,PS1_L7.csv,,,,,,,,,,,,,,,,,,,,,,,,,,,,,0,6,6,6,0,19,19,19,,,,,,,,,,,,,,,,,,,2240.943461291001,q,2.439542416999757,2243.445351333,,,,,,,272446,A,2024-10-26_15h18.21.982,EPIDM,2023.1.2,None,
5030.jpg,1670.jpg,3 Points,3 Points,407 Points,PS1_L7.csv,,,,,,,,,,,,,,,,,,,,,,,,,,,,,0,6,6,6,0,20,20,20,,,,,,,,,,,,,,,,,,,2247.6943575000005,p,1.9684139999990293,2249.7241439160007,,,,,,,272446,A,2024-10-26_15h18.21.982,EPIDM,2023.1.2,None,
9040.jpg,1120.jpg,3 Points,3 Points,410 Points,PS1_L7.csv,,,,,,,,,,,,,,,,,,,,,,,,,,,,,0,6,6,6,0,21,21,21,,,,,,,,,,,,,,,,,,,2253.9705677910006,p,2.1484881670003233,2256.1838314160004,,,,,,,272446,A,2024-10-26_15h18.21.982,EPIDM,2023.1.2,None,
3220.jpg,3063.jpg,5 Points,5 Points,415 Points,PS1_L7.csv,,,,,,,,,,,,,,,,,,,,,,,,,,,,,0,6,6,6,0,22,22,22,,,,,,,,,,,,,,,,,,,2260.418320291001,p,2.2282960839993393,2262.704210125001,,,,,,,272446,A,2024-10-26_15h18.21.982,EPIDM,2023.1.2,None,
8117.jpg,2880.jpg,5 Points,5 Points,420 Points,PS1_L7.csv,,,,,,,,,,,,,,,,,,,,,,,,,,,,,0,6,6,6,0,23,23,23,,,,,,,,,,,,,,,,,,,2266.948061291,q,1.522392791999664,2268.5488349160005,,,,2279.016069458001,space,9.42914374999964,272446,A,2024-10-26_15h18.21.982,EPIDM,2023.1.2,None,
4274.jpg,8160.jpg,2 Points,2 Points,422 Points,PS1_L8.csv,,,,,,,,,,,,,,,,,,,,,,,,,,,,,0,7,7,7,0,0,0,0,,,,,,,,,,,,,,,,,,,2291.7570935410004,q,1.6649178759998904,2293.491911041,,,,,,,272446,A,2024-10-26_15h18.21.982,EPIDM,2023.1.2,None,
6314.jpg,O022.jpg,2 Points,2 Points,424 Points,PS1_L8.csv,,,,,,,,,,,,,,,,,,,,,,,,,,,,,0,7,7,7,0,1,1,1,,,,,,,,,,,,,,,,,,,2297.7226128330003,q,1.7787265420001859,2299.5964252910007,,2,1.2433018339997943,,,,272446,A,2024-10-26_15h18.21.982,EPIDM,2023.1.2,None,
1560.jpg,8185.jpg,0 Points,0 Points,424 Points,PS1_L8.csv,,,,,,,,,,,,,,,,,,,,,,,,,,,,,0,7,7,7,0,2,2,2,,,,,,,,,,,,,,,,,,,2305.1452069160005,p,1.196791583999584,2306.41001675,,,,,,,272446,A,2024-10-26_15h18.21.982,EPIDM,2023.1.2,None,
2850.jpg,4532.jpg,3 Points,3 Points,427 Points,PS1_L8.csv,,,,,,,,,,,,,,,,,,,,,,,,,,,,,0,7,7,7,0,3,3,3,,,,,,,,,,,,,,,,,,,2310.6480050830005,p,2.1733040420003817,2312.8879418750003,,,,,,,272446,A,2024-10-26_15h18.21.982,EPIDM,2023.1.2,None,
1390.jpg,9421.jpg,2 Points,2 Points,429 Points,PS1_L8.csv,,,,,,,,,,,,,,,,,,,,,,,,,,,,,0,7,7,7,0,4,4,4,,,,,,,,,,,,,,,,,,,2317.1400005000005,p,0.9367807079997874,2318.1432717080006,,,,,,,272446,A,2024-10-26_15h18.21.982,EPIDM,2023.1.2,None,
9800.jpg,9433.jpg,1 Point,1 Point,430 Points,PS1_L8.csv,,,,,,,,,,,,,,,,,,,,,,,,,,,,,0,7,7,7,0,5,5,5,,,,,,,,,,,,,,,,,,,2322.3838335,p,1.3962404590001825,2323.8578929160003,,,,,,,272446,A,2024-10-26_15h18.21.982,EPIDM,2023.1.2,None,
8161.jpg,1900.jpg,4 Points,4 Points,434 Points,PS1_L8.csv,,,,,,,,,,,,,,,,,,,,,,,,,,,,,0,7,7,7,0,6,6,6,,,,,,,,,,,,,,,,,,,2328.1035624160004,q,1.397259332999056,2329.5740342910003,,,,,,,272446,A,2024-10-26_15h18.21.982,EPIDM,2023.1.2,None,
1112.jpg,6230.jpg,3 Points,3 Points,437 Points,PS1_L8.csv,,,,,,,,,,,,,,,,,,,,,,,,,,,,,0,7,7,7,0,7,7,7,,,,,,,,,,,,,,,,,,,2333.821873291,q,1.0463913759995194,2334.934926125001,,,,,,,272446,A,2024-10-26_15h18.21.982,EPIDM,2023.1.2,None,
1111.jpg,1040.jpg,0 Points,0 Points,437 Points,PS1_L8.csv,,,,,,,,,,,,,,,,,,,,,,,,,,,,,0,7,7,7,0,8,8,8,,,,,,,,,,,,,,,,,,,2339.1934502910008,p,1.0420930000000226,2340.3090857080006,,,,,,,272446,A,2024-10-26_15h18.21.982,EPIDM,2023.1.2,None,
5622.jpg,9156.jpg,4 Points,4 Points,441 Points,PS1_L8.csv,,,,,,,,,,,,,,,,,,,,,,,,,,,,,0,7,7,7,0,9,9,9,,,,,,,,,,,,,,,,,,,2344.5428915830007,p,2.5013255829999252,2347.1174704580008,,,,,,,272446,A,2024-10-26_15h18.21.982,EPIDM,2023.1.2,None,
2681.jpg,7100.jpg,3 Points,3 Points,444 Points,PS1_L8.csv,,,,,,,,,,,,,,,,,,,,,,,,,,,,,0,7,7,7,0,10,10,10,,,,,,,,,,,,,,,,,,,2351.3587582910004,p,1.6374087089998284,2353.0771045830006,,,,,,,272446,A,2024-10-26_15h18.21.982,EPIDM,2023.1.2,None,
6821.jpg,9622.jpg,2 Points,2 Points,446 Points,PS1_L8.csv,,,,,,,,,,,,,,,,,,,,,,,,,,,,,0,7,7,7,0,11,11,11,,,,,,,,,,,,,,,,,,,2357.315768458,q,2.0247392920000493,2359.406532166,,,,,,,272446,A,2024-10-26_15h18.21.982,EPIDM,2023.1.2,None,
9490.jpg,9210.jpg,1 Point,1 Point,447 Points,PS1_L8.csv,,,,,,,,,,,,,,,,,,,,,,,,,,,,,0,7,7,7,0,12,12,12,,,,,,,,,,,,,,,,,,,2363.662630791,q,0.8775645420000728,2364.6038121660004,,,,,,,272446,A,2024-10-26_15h18.21.982,EPIDM,2023.1.2,None,
4605.jpg,1510.jpg,4 Points,4 Points,451 Points,PS1_L8.csv,,,,,,,,,,,,,,,,,,,,,,,,,,,,,0,7,7,7,0,13,13,13,,,,,,,,,,,,,,,,,,,2368.8560739160002,q,2.1634232090000296,2371.0886639160008,,4,1.3957168749993798,,,,272446,A,2024-10-26_15h18.21.982,EPIDM,2023.1.2,None,
2240.jpg,5010.jpg,5 Points,5 Points,456 Points,PS1_L8.csv,,,,,,,,,,,,,,,,,,,,,,,,,,,,,0,7,7,7,0,14,14,14,,,,,,,,,,,,,,,,,,,2376.7914997080006,q,1.6993851670004005,2378.5678618750007,,,,,,,272446,A,2024-10-26_15h18.21.982,EPIDM,2023.1.2,None,
3102.jpg,F032.jpg,1 Point,1 Point,457 Points,PS1_L8.csv,,,,,,,,,,,,,,,,,,,,,,,,,,,,,0,7,7,7,0,15,15,15,,,,,,,,,,,,,,,,,,,2382.7921759580004,q,2.9867282919994977,2385.8850294580006,,,,,,,272446,A,2024-10-26_15h18.21.982,EPIDM,2023.1.2,None,
4100.jpg,6570.2.jpg,3 Points,3 Points,460 Points,PS1_L8.csv,,,,,,,,,,,,,,,,,,,,,,,,,,,,,0,7,7,7,0,16,16,16,,,,,,,,,,,,,,,,,,,2390.091391791,q,2.4147157499992318,2392.6166027080008,,,,,,,272446,A,2024-10-26_15h18.21.982,EPIDM,2023.1.2,None,
2650.jpg,4531.jpg,5 Points,5 Points,465 Points,PS1_L8.csv,,,,,,,,,,,,,,,,,,,,,,,,,,,,,0,7,7,7,0,17,17,17,,,,,,,,,,,,,,,,,,,2396.8157137910002,q,2.0428024579996418,2398.942068208001,,,,,,,272446,A,2024-10-26_15h18.21.982,EPIDM,2023.1.2,None,
9320.jpg,9007.jpg,0 Points,0 Points,465 Points,PS1_L8.csv,,,,,,,,,,,,,,,,,,,,,,,,,,,,,0,7,7,7,0,18,18,18,,,,,,,,,,,,,,,,,,,2403.181660833,q,1.3643935419995614,2404.620474333001,,,,,,,272446,A,2024-10-26_15h18.21.982,EPIDM,2023.1.2,None,
8460.jpg,8330.jpg,0 Points,0 Points,465 Points,PS1_L8.csv,,,,,,,,,,,,,,,,,,,,,,,,,,,,,0,7,7,7,0,19,19,19,,,,,,,,,,,,,,,,,,,2408.856754333,p,2.481422833999204,2411.400706208,,,,,,,272446,A,2024-10-26_15h18.21.982,EPIDM,2023.1.2,None,
2570.jpg,5500.jpg,3 Points,3 Points,468 Points,PS1_L8.csv,,,,,,,,,,,,,,,,,,,,,,,,,,,,,0,7,7,7,0,20,20,20,,,,,,,,,,,,,,,,,,,2415.650724375,p,0.9751318329990681,2416.7022135830002,,,,,,,272446,A,2024-10-26_15h18.21.982,EPIDM,2023.1.2,None,
6190.jpg,3120.jpg,5 Points,5 Points,473 Points,PS1_L8.csv,,,,,,,,,,,,,,,,,,,,,,,,,,,,,0,7,7,7,0,21,21,21,,,,,,,,,,,,,,,,,,,2420.9476054160004,p,1.1914906250003696,2422.2253364160006,,,,,,,272446,A,2024-10-26_15h18.21.982,EPIDM,2023.1.2,None,
2200.jpg,4598.jpg,1 Point,1 Point,474 Points,PS1_L8.csv,,,,,,,,,,,,,,,,,,,,,,,,,,,,,0,7,7,7,0,22,22,22,,,,,,,,,,,,,,,,,,,2426.4656673750005,q,1.2401750829994853,2427.7886380830005,,,,,,,272446,A,2024-10-26_15h18.21.982,EPIDM,2023.1.2,None,
1303.jpg,2000.jpg,0 Points,0 Points,474 Points,PS1_L8.csv,,,,,,,,,,,,,,,,,,,,,,,,,,,,,0,7,7,7,0,23,23,23,,,,,,,,,,,,,,,,,,,2432.026922041,p,0.7279523329998483,2432.8278009160003,,,,2443.300837500001,space,6.14904179199948,272446,A,2024-10-26_15h18.21.982,EPIDM,2023.1.2,None,
9010.jpg,9253.jpg,0 Points,0 Points,474 Points,PS1_L9.csv,,,,,,,,,,,,,,,,,,,,,,,,,,,,,0,8,8,8,0,0,0,0,,,,,,,,,,,,,,,,,,,2452.753253166001,p,1.4397271670004557,2454.2560399580007,,,,,,,272446,A,2024-10-26_15h18.21.982,EPIDM,2023.1.2,None,
1302.jpg,2700.jpg,3 Points,3 Points,477 Points,PS1_L9.csv,,,,,,,,,,,,,,,,,,,,,,,,,,,,,0,8,8,8,0,1,1,1,,,,,,,,,,,,,,,,,,,2458.500425583001,p,1.6276592080002956,2460.2072560000006,,3,1.4796381669993934,,,,272446,A,2024-10-26_15h18.21.982,EPIDM,2023.1.2,None,
2030.jpg,2495.jpg,0 Points,0 Points,477 Points,PS1_L9.csv,,,,,,,,,,,,,,,,,,,,,,,,,,,,,0,8,8,8,0,2,2,2,,,,,,,,,,,,,,,,,,,2465.9964467910004,p,1.6598564589994567,2467.7315349580003,,,,,,,272446,A,2024-10-26_15h18.21.982,EPIDM,2023.1.2,None,
2110.jpg,7260.jpg,5 Points,5 Points,482 Points,PS1_L9.csv,,,,,,,,,,,,,,,,,,,,,,,,,,,,,0,8,8,8,0,3,3,3,,,,,,,,,,,,,,,,,,,2471.9702044160003,p,1.6386674589994072,2473.6855747910004,,,,,,,272446,A,2024-10-26_15h18.21.982,EPIDM,2023.1.2,None,
2053.jpg,9415.jpg,4 Points,4 Points,486 Points,PS1_L9.csv,,,,,,,,,,,,,,,,,,,,,,,,,,,,,0,8,8,8,0,4,4,4,,,,,,,,,,,,,,,,,,,2477.9247086250007,p,3.060127959000056,2481.057225208,,,,,,,272446,A,2024-10-26_15h18.21.982,EPIDM,2023.1.2,None,
6211.jpg,9611.jpg,3 Points,3 Points,489 Points,PS1_L9.csv,,,,,,,,,,,,,,,,,,,,,,,,,,,,,0,8,8,8,0,5,5,5,,,,,,,,,,,,,,,,,,,2485.306394583001,p,1.3170247919997564,2486.6796560830007,,,,,,,272446,A,2024-10-26_15h18.21.982,EPIDM,2023.1.2,None,
8350.jpg,7190.jpg,5 Points,5 Points,494 Points,PS1_L9.csv,,,,,,,,,,,,,,,,,,,,,,,,,,,,,0,8,8,8,0,6,6,6,,,,,,,,,,,,,,,,,,,2490.9345891250005,q,1.3619660419990396,2492.368658333,,,,,,,272446,A,2024-10-26_15h18.21.982,EPIDM,2023.1.2,None,
9340.jpg,6910.jpg,0 Points,0 Points,494 Points,PS1_L9.csv,,,,,,,,,,,,,,,,,,,,,,,,,,,,,0,8,8,8,0,7,7,7,,,,,,,,,,,,,,,,,,,2496.6018972500005,p,2.677775625000322,2499.3485645830006,,,,,,,272446,A,2024-10-26_15h18.21.982,EPIDM,2023.1.2,None,
4533.jpg,2385.jpg,3 Points,3 Points,497 Points,PS1_L9.csv,,,,,,,,,,,,,,,,,,,,,,,,,,,,,0,8,8,8,0,8,8,8,,,,,,,,,,,,,,,,,,,2503.580808500001,q,0.963499624999713,2504.617951708,,,,,,,272446,A,2024-10-26_15h18.21.982,EPIDM,2023.1.2,None,
5940.jpg,9411.jpg,0 Points,0 Points,497 Points,PS1_L9.csv,,,,,,,,,,,,,,,,,,,,,,,,,,,,,0,8,8,8,0,9,9,9,,,,,,,,,,,,,,,,,,,2508.845379833,q,1.1627669999998034,2510.075718125,,,,,,,272446,A,2024-10-26_15h18.21.982,EPIDM,2023.1.2,None,
2220.jpg,2010.jpg,5 Points,5 Points,502 Points,PS1_L9.csv,,,,,,,,,,,,,,,,,,,,,,,,,,,,,0,8,8,8,0,10,10,10,,,,,,,,,,,,,,,,,,,2514.3082936660003,q,1.6358995839991621,2516.017866,,,,,,,272446,A,2024-10-26_15h18.21.982,EPIDM,2023.1.2,None,
9500.jpg,6360.jpg,1 Point,1 Point,503 Points,PS1_L9.csv,,,,,,,,,,,,,,,,,,,,,,,,,,,,,0,8,8,8,0,11,11,11,,,,,,,,,,,,,,,,,,,2520.2549101660006,q,2.5842420830003903,2522.913496833001,,,,,,,272446,A,2024-10-26_15h18.21.982,EPIDM,2023.1.2,None,
2092.jpg,2210.jpg,0 Points,0 Points,503 Points,PS1_L9.csv,,,,,,,,,,,,,,,,,,,,,,,,,,,,,0,8,8,8,0,12,12,12,,,,,,,,,,,,,,,,,,,2527.1526513750005,q,1.3026945419996991,2528.5236199580004,,,,,,,272446,A,2024-10-26_15h18.21.982,EPIDM,2023.1.2,None,
9530.jpg,9220.jpg,1 Point,1 Point,504 Points,PS1_L9.csv,,,,,,,,,,,,,,,,,,,,,,,,,,,,,0,8,8,8,0,13,13,13,,,,,,,,,,,,,,,,,,,2532.7578388750007,q,1.5850352089992157,2534.397231541,,1,1.3906559999995807,,,,272446,A,2024-10-26_15h18.21.982,EPIDM,2023.1.2,None,
9254.jpg,9290.jpg,2 Points,2 Points,506 Points,PS1_L9.csv,,,,,,,,,,,,,,,,,,,,,,,,,,,,,0,8,8,8,0,14,14,14,,,,,,,,,,,,,,,,,,,2540.112383791001,q,1.6067610829995829,2541.778271166,,,,,,,272446,A,2024-10-26_15h18.21.982,EPIDM,2023.1.2,None,
4608.jpg,8320.jpg,1 Point,1 Point,507 Points,PS1_L9.csv,,,,,,,,,,,,,,,,,,,,,,,,,,,,,0,8,8,8,0,15,15,15,,,,,,,,,,,,,,,,,,,2546.027833833001,q,1.1076858749993335,2547.207260708001,,,,,,,272446,A,2024-10-26_15h18.21.982,EPIDM,2023.1.2,None,
7237.jpg,8510.jpg,4 Points,4 Points,511 Points,PS1_L9.csv,,,,,,,,,,,,,,,,,,,,,,,,,,,,,0,8,8,8,0,16,16,16,,,,,,,,,,,,,,,,,,,2551.4714011250007,p,2.510917333999714,2554.053521791,,,,,,,272446,A,2024-10-26_15h18.21.982,EPIDM,2023.1.2,None,
9417.jpg,6530.jpg,1 Point,1 Point,512 Points,PS1_L9.csv,,,,,,,,,,,,,,,,,,,,,,,,,,,,,0,8,8,8,0,17,17,17,,,,,,,,,,,,,,,,,,,2558.2904775410007,p,2.0684299999993527,2560.4378655,,,,,,,272446,A,2024-10-26_15h18.21.982,EPIDM,2023.1.2,None,
6831.jpg,2141.jpg,5 Points,5 Points,517 Points,PS1_L9.csv,,,,,,,,,,,,,,,,,,,,,,,,,,,,,0,8,8,8,0,18,18,18,,,,,,,,,,,,,,,,,,,2564.6652615830008,q,1.6703649169994605,2566.4073519580006,,,,,,,272446,A,2024-10-26_15h18.21.982,EPIDM,2023.1.2,None,
4689.jpg,7009.jpg,5 Points,5 Points,522 Points,PS1_L9.csv,,,,,,,,,,,,,,,,,,,,,,,,,,,,,0,8,8,8,0,19,19,19,,,,,,,,,,,,,,,,,,,2570.653734208,q,0.7046841250003126,2571.429814708001,,,,,,,272446,A,2024-10-26_15h18.21.982,EPIDM,2023.1.2,None,
2751.jpg,6313.jpg,3 Points,3 Points,525 Points,PS1_L9.csv,,,,,,,,,,,,,,,,,,,,,,,,,,,,,0,8,8,8,0,20,20,20,,,,,,,,,,,,,,,,,,,2575.6874727080003,q,0.8298180419997152,2576.587173000001,,,,,,,272446,A,2024-10-26_15h18.21.982,EPIDM,2023.1.2,None,
4621.jpg,3550.jpg,2 Points,2 Points,527 Points,PS1_L9.csv,,,,,,,,,,,,,,,,,,,,,,,,,,,,,0,8,8,8,0,21,21,21,,,,,,,,,,,,,,,,,,,2580.8289195000007,p,3.465018333999069,2584.3664409580006,,,,,,,272446,A,2024-10-26_15h18.21.982,EPIDM,2023.1.2,None,
8220.jpg,2410.jpg,4 Points,4 Points,531 Points,PS1_L9.csv,,,,,,,,,,,,,,,,,,,,,,,,,,,,,0,8,8,8,0,22,22,22,,,,,,,,,,,,,,,,,,,2588.602353708,q,0.9880146249997779,2589.6555445410004,,,,,,,272446,A,2024-10-26_15h18.21.982,EPIDM,2023.1.2,None,
1113.jpg,1240.jpg,3 Points,3 Points,534 Points,PS1_L9.csv,,,,,,,,,,,,,,,,,,,,,,,,,,,,,0,8,8,8,0,23,23,23,,,,,,,,,,,,,,,,,,,2593.907314375,q,0.922283249999964,2594.9025319580005,,,,2605.371932375,space,3.4890592920000927,272446,A,2024-10-26_15h18.21.982,EPIDM,2023.1.2,None,
2750.jpg,9050.jpg,4 Points,4 Points,538 Points,PS1_L10.csv,,,,,,,,,,,,,,,,,,,,,,,,,,,,,0,9,9,9,0,0,0,0,,,,,,,,,,,,,,,,,,,2612.1774811660007,p,1.5957743339995432,2613.8360068750007,,,,,,,272446,A,2024-10-26_15h18.21.982,EPIDM,2023.1.2,None,
2312.jpg,2722.jpg,1 Points,1 Points,539 Points,PS1_L10.csv,,,,,,,,,,,,,,,,,,,,,,,,,,,,,0,9,9,9,0,1,1,1,,,,,,,,,,,,,,,,,,,2618.081691958,q,1.7397667919995001,2619.8853749160007,,1,1.2080365840001832,,,,272446,A,2024-10-26_15h18.21.982,EPIDM,2023.1.2,None,
8232.jpg,4279.jpg,5 Points,5 Points,544 Points,PS1_L10.csv,,,,,,,,,,,,,,,,,,,,,,,,,,,,,0,9,9,9,0,2,2,2,,,,,,,,,,,,,,,,,,,2625.4435567910004,q,2.432896833999621,2627.962772291,,,,,,,272446,A,2024-10-26_15h18.21.982,EPIDM,2023.1.2,None,
6000.jpg,6836.jpg,4 Points,4 Points,548 Points,PS1_L10.csv,,,,,,,,,,,,,,,,,,,,,,,,,,,,,0,9,9,9,0,3,3,3,,,,,,,,,,,,,,,,,,,2632.189412625001,p,1.8469085010001436,2634.0889335,,,,,,,272446,A,2024-10-26_15h18.21.982,EPIDM,2023.1.2,None,
4536.jpg,2280.jpg,4 Points,4 Points,552 Points,PS1_L10.csv,,,,,,,,,,,,,,,,,,,,,,,,,,,,,0,9,9,9,0,4,4,4,,,,,,,,,,,,,,,,,,,2638.3545342080006,q,1.3700105829993845,2639.772714666001,,,,,,,272446,A,2024-10-26_15h18.21.982,EPIDM,2023.1.2,None,
6241.jpg,9561.jpg,3 Points,3 Points,555 Points,PS1_L10.csv,,,,,,,,,,,,,,,,,,,,,,,,,,,,,0,9,9,9,0,5,5,5,,,,,,,,,,,,,,,,,,,2644.0519587500003,p,1.352118333999897,2645.4505736250003,,,,,,,272446,A,2024-10-26_15h18.21.982,EPIDM,2023.1.2,None,
1942.jpg,2890.jpg,1 Points,1 Points,556 Points,PS1_L10.csv,,,,,,,,,,,,,,,,,,,,,,,,,,,,,0,9,9,9,0,6,6,6,,,,,,,,,,,,,,,,,,,2649.708569458,q,3.2713206249991345,2653.0461623750007,,,,,,,272446,A,2024-10-26_15h18.21.982,EPIDM,2023.1.2,None,
6020.jpg,6300.jpg,2 Points,2 Points,558 Points,PS1_L10.csv,,,,,,,,,,,,,,,,,,,,,,,,,,,,,0,9,9,9,0,7,7,7,,,,,,,,,,,,,,,,,,,2657.3015057500006,q,0.981708250000338,2658.321833666,,,,,,,272446,A,2024-10-26_15h18.21.982,EPIDM,2023.1.2,None,
7170.jpg,2170.jpg,2 Points,2 Points,560 Points,PS1_L10.csv,,,,,,,,,,,,,,,,,,,,,,,,,,,,,0,9,9,9,0,8,8,8,,,,,,,,,,,,,,,,,,,2662.5933587500003,p,2.201394125999286,2664.8381894580007,,,,,,,272446,A,2024-10-26_15h18.21.982,EPIDM,2023.1.2,None,
5510.jpg,2514.jpg,5 Points,5 Points,565 Points,PS1_L10.csv,,,,,,,,,,,,,,,,,,,,,,,,,,,,,0,9,9,9,0,9,9,9,,,,,,,,,,,,,,,,,,,2669.100705375,q,1.5976202499996361,2670.7759987500003,,,,,,,272446,A,2024-10-26_15h18.21.982,EPIDM,2023.1.2,None,
6840.jpg,3080.jpg,1 Points,1 Points,566 Points,PS1_L10.csv,,,,,,,,,,,,,,,,,,,,,,,,,,,,,0,9,9,9,0,10,10,10,,,,,,,,,,,,,,,,,,,2675.0168105410003,q,2.2506021259996487,2677.3013673330006,,,,,,,272446,A,2024-10-26_15h18.21.982,EPIDM,2023.1.2,None,
7195.jpg,2487.jpg,2 Points,2 Points,568 Points,PS1_L10.csv,,,,,,,,,,,,,,,,,,,,,,,,,,,,,0,9,9,9,0,11,11,11,,,,,,,,,,,,,,,,,,,2681.571266666,q,2.191058083999451,2683.8071630000004,,,,,,,272446,A,2024-10-26_15h18.21.982,EPIDM,2023.1.2,None,
5971.jpg,9912.jpg,5 Points,5 Points,573 Points,PS1_L10.csv,,,,,,,,,,,,,,,,,,,,,,,,,,,,,0,9,9,9,0,12,12,12,,,,,,,,,,,,,,,,,,,2688.0682653330005,p,1.3899020839999139,2689.508157708,,,,,,,272446,A,2024-10-26_15h18.21.982,EPIDM,2023.1.2,None,
2520.jpg,8503.jpg,2 Points,2 Points,575 Points,PS1_L10.csv,,,,,,,,,,,,,,,,,,,,,,,,,,,,,0,9,9,9,0,13,13,13,,,,,,,,,,,,,,,,,,,2693.7745614160003,q,1.7312352919998375,2695.5733306660004,,2,1.3885304169998562,,,,272446,A,2024-10-26_15h18.21.982,EPIDM,2023.1.2,None,
5480.jpg,8200.jpg,4 Points,4 Points,579 Points,PS1_L10.csv,,,,,,,,,,,,,,,,,,,,,,,,,,,,,0,9,9,9,0,14,14,14,,,,,,,,,,,,,,,,,,,2701.2691950830003,p,1.6457965419995162,2702.9816600000004,,,,,,,272446,A,2024-10-26_15h18.21.982,EPIDM,2023.1.2,None,
6370.jpg,1270.jpg,4 Points,4 Points,583 Points,PS1_L10.csv,,,,,,,,,,,,,,,,,,,,,,,,,,,,,0,9,9,9,0,15,15,15,,,,,,,,,,,,,,,,,,,2707.2401386660003,q,0.8342151249999006,2708.1546474160004,,,,,,,272446,A,2024-10-26_15h18.21.982,EPIDM,2023.1.2,None,
5130.jpg,1810.jpg,3 Points,3 Points,586 Points,PS1_L10.csv,,,,,,,,,,,,,,,,,,,,,,,,,,,,,0,9,9,9,0,16,16,16,,,,,,,,,,,,,,,,,,,2712.391767041,p,2.593965291999666,2715.0443114580003,,,,,,,272446,A,2024-10-26_15h18.21.982,EPIDM,2023.1.2,None,
4250.jpg,7060.jpg,5 Points,5 Points,591 Points,PS1_L10.csv,,,,,,,,,,,,,,,,,,,,,,,,,,,,,0,9,9,9,0,17,17,17,,,,,,,,,,,,,,,,,,,2719.2991715830003,q,1.2137633330003155,2720.561383583001,,,,,,,272446,A,2024-10-26_15h18.21.982,EPIDM,2023.1.2,None,
9373.jpg,9410.jpg,0 Points,0 Points,591 Points,PS1_L10.csv,,,,,,,,,,,,,,,,,,,,,,,,,,,,,0,9,9,9,0,18,18,18,,,,,,,,,,,,,,,,,,,2724.822853916,p,2.1379127079999307,2727.0144184580004,,,,,,,272446,A,2024-10-26_15h18.21.982,EPIDM,2023.1.2,None,
2221.jpg,2270.jpg,2 Points,2 Points,593 Points,PS1_L10.csv,,,,,,,,,,,,,,,,,,,,,,,,,,,,,0,9,9,9,0,19,19,19,,,,,,,,,,,,,,,,,,,2731.2692187910006,q,2.411428958000215,2733.736143,,,,,,,272446,A,2024-10-26_15h18.21.982,EPIDM,2023.1.2,None,
1650.jpg,2130.jpg,1 Points,1 Points,594 Points,PS1_L10.csv,,,,,,,,,,,,,,,,,,,,,,,,,,,,,0,9,9,9,0,20,20,20,,,,,,,,,,,,,,,,,,,2737.9921458750005,q,2.224180957999124,2740.2801998330006,,,,,,,272446,A,2024-10-26_15h18.21.982,EPIDM,2023.1.2,None,
1280.jpg,9402.jpg,2 Points,2 Points,596 Points,PS1_L10.csv,,,,,,,,,,,,,,,,,,,,,,,,,,,,,0,9,9,9,0,21,21,21,,,,,,,,,,,,,,,,,,,2744.5189631660005,p,1.6264479579995168,2746.213175125001,,,,,,,272446,A,2024-10-26_15h18.21.982,EPIDM,2023.1.2,None,
2214.jpg,4500.jpg,3 Points,3 Points,599 Points,PS1_L10.csv,,,,,,,,,,,,,,,,,,,,,,,,,,,,,0,9,9,9,0,22,22,22,,,,,,,,,,,,,,,,,,,2750.455637166,p,2.3289484169999923,2752.8579412500003,,,,,,,272446,A,2024-10-26_15h18.21.982,EPIDM,2023.1.2,None,
7284.jpg,8021.jpg,4 Points,4 Points,603 Points,PS1_L10.csv,,,,,,,,,,,,,,,,,,,,,,,,,,,,,0,9,9,9,0,23,23,23,,,,,,,,,,,,,,,,,,,2757.092850625,p,1.4678747079997265,2758.6358582500006,,,,2769.1012913330005,space,5.178527000000031,272446,A,2024-10-26_15h18.21.982,EPIDM,2023.1.2,None,
