L_Scene,R_Scene,Points_L,Points_R,PtTotal,blockFile,Instructions_Loop.thisRepN,Instructions_Loop.thisTrialN,Instructions_Loop.thisN,Instructions_Loop.thisIndex,Redo_Instructions_Loop.thisRepN,Redo_Instructions_Loop.thisTrialN,Redo_Instructions_Loop.thisN,Redo_Instructions_Loop.thisIndex,Practice_Encoding_Loop.thisRepN,Practice_Encoding_Loop.thisTrialN,Practice_Encoding_Loop.thisN,Practice_Encoding_Loop.thisIndex,Practice_Response_Fail_Loop.thisRepN,Practice_Response_Fail_Loop.thisTrialN,Practice_Response_Fail_Loop.thisN,Practice_Response_Fail_Loop.thisIndex,Practice_FB_Loop.thisRepN,Practice_FB_Loop.thisTrialN,Practice_FB_Loop.thisN,Practice_FB_Loop.thisIndex,Practice_Attention_Loop.thisRepN,Practice_Attention_Loop.thisTrialN,Practice_Attention_Loop.thisN,Practice_Attention_Loop.thisIndex,Practice_EncBrk_Loop.thisRepN,Practice_EncBrk_Loop.thisTrialN,Practice_EncBrk_Loop.thisN,Practice_EncBrk_Loop.thisIndex,Encoding_Loop.thisRepN,Encoding_Loop.thisTrialN,Encoding_Loop.thisN,Encoding_Loop.thisIndex,EncStim_Loop.thisRepN,EncStim_Loop.thisTrialN,EncStim_Loop.thisN,EncStim_Loop.thisIndex,Response_Fail_Loop.thisRepN,Response_Fail_Loop.thisTrialN,Response_Fail_Loop.thisN,Response_Fail_Loop.thisIndex,FB_Loop.thisRepN,FB_Loop.thisTrialN,FB_Loop.thisN,FB_Loop.thisIndex,Attention_Loop.thisRepN,Attention_Loop.thisTrialN,Attention_Loop.thisN,Attention_Loop.thisIndex,EncBrk_Loop.thisRepN,EncBrk_Loop.thisTrialN,EncBrk_Loop.thisN,EncBrk_Loop.thisIndex,Transition_Enc.keys,Transition_Enc.rt,Encoding_Resp.started,Encoding_Resp.keys,Encoding_Resp.rt,R_Point_FB_Stim.started,Attn_resp.keys,Attn_resp.rt,Progress_Tracker.started,EncBrk_Resp.keys,EncBrk_Resp.rt,participant,Group,date,expName,psychopyVersion,frameRate,
,,,,,,,,,,,,,,,,,,,,,,,,,,,,,,,,,,,,,,,,,,,,,,,,,,,,,,,,,,space,9.6514882090014,,,,,,,,,,249790,B,2024-11-04_11h37.36.918,EPIDM,2023.1.2,None,
A060.jpg,F041.jpg,5 Points,5 Points,5 Points,,,,,,,,,,0,0,0,0,,,,,,,,,,,,,,,,,,,,,,,,,,,,,,,,,,,,,,,,,,,968.3788800000002,p,2.7051977910014102,971.2278611670008,,,,,,249790,B,2024-11-04_11h37.36.918,EPIDM,2023.1.2,None,
O161.jpg,1812.jpg,2 Points,2 Points,7 Points,,,,,,,,,,0,1,1,1,,,,,,,,,,,,,,,,,,,,,,,,,,,,,,,,,,,,,,,,,,,975.4028480000015,p,1.6727478749999136,977.212726709,,,,,,249790,B,2024-11-04_11h37.36.918,EPIDM,2023.1.2,None,
O013.jpg,A001.jpg,3 Points,3 Points,10 Points,,,,,,,,,,0,2,2,2,,,,,,,,,,,,,,,,,,,,,,,,,,,,,,,,,,,,,,,,,,,981.3764752089992,p,1.9942995000019437,983.5429852919988,,,,,,249790,B,2024-11-04_11h37.36.918,EPIDM,2023.1.2,None,
P036.jpg,F273.jpg,5 Points,5 Points,15 Points,,,,,,,,,,0,3,3,3,,,,,,,,,,,,,,,,,,,,,,,,,,,,,,,,,,,,,,,,,,,987.6793859169993,q,2.3871451250015525,990.2313537090013,,,,,,249790,B,2024-11-04_11h37.36.918,EPIDM,2023.1.2,None,
L130.jpg,2393.jpg,0 Points,0 Points,15 Points,,,,,,,,,,0,4,4,4,,,,,,,,,,,,,,,,,,,,,,,,,,,,,,,,,,,,,,,,,,,994.3772485840018,q,1.3231359999990673,995.8425126250004,0,3.9968436660019506,,,,249790,B,2024-11-04_11h37.36.918,EPIDM,2023.1.2,None,
F279.jpg,P033.jpg,3 Points,3 Points,18 Points,,,,,,,,,,0,5,5,5,,,,,,,,,,,,,,,,,,,,,,,,,,,,,,,,,,,,,,,,,,,1004.1157331670001,q,2.2310592090034334,1006.4791405420001,,,,,,249790,B,2024-11-04_11h37.36.918,EPIDM,2023.1.2,None,
A104.jpg,2593.jpg,2 Points,2 Points,20 Points,,,,,,,,,,0,6,6,6,,,,,,,,,,,,,,,,,,,,,,,,,,,,,,,,,,,,,,,,,,,1010.6688217919982,q,1.3024692500002857,1012.1037354170003,,,,,,249790,B,2024-11-04_11h37.36.918,EPIDM,2023.1.2,None,
2598.jpg,2605.jpg,0 Points,0 Points,20 Points,,,,,,,,,,0,7,7,7,,,,,,,,,,,,,,,,,,,,,,,,,,,,,,,,,,,,,,,,,,,1016.2838340000017,q,1.5115376670000842,1017.8568207089993,,,,,,249790,B,2024-11-04_11h37.36.918,EPIDM,2023.1.2,None,
L005.jpg,O011.jpg,1 Points,1 Points,21 Points,,,,,,,,,,0,8,8,8,,,,,,,,,,,,,,,,,,,,,,,,,,,,,,,,,,,,,,,,,,,1022.1063145420012,q,1.8164578750001965,1024.0576957919984,,,,,,249790,B,2024-11-04_11h37.36.918,EPIDM,2023.1.2,None,
8186.jpg,F078.jpg,2 Points,2 Points,23 Points,,,,,,,,,,0,9,9,9,,,,,,,,,,,,,,,,,,,,,,,,,,,,,,,,,,,,,,,,,,,1028.2320824589988,p,2.489574999999604,1030.8618936249986,2,2.622080332999758,1043.7165034169993,space,22.22958516700237,249790,B,2024-11-04_11h37.36.918,EPIDM,2023.1.2,None,
,,,,,,,,,,,,,,,,,,,,,,,,,,,,,,,,,,,,,,,,,,,,,,,,,,,,,,,,,,space,5.873821165998379,,,,,,,,,,249790,B,2024-11-04_11h37.36.918,EPIDM,2023.1.2,None,
7284.jpg,8021.jpg,4 Points,4 Points,4 Points,PS2_L1.csv,,,,,,,,,,,,,,,,,,,,,,,,,,,,,0,0,0,0,0,0,0,0,,,,,,,,,,,,,,,,,,,1088.1441046670006,p,1.355026541998086,1089.5873351670016,,,,,,249790,B,2024-11-04_11h37.36.918,EPIDM,2023.1.2,None,
2214.jpg,4500.jpg,3 Points,3 Points,7 points,PS2_L1.csv,,,,,,,,,,,,,,,,,,,,,,,,,,,,,0,0,0,0,0,1,1,1,,,,,,,,,,,,,,,,,,,1093.817642124999,p,1.9745345000010275,1095.871218417,3,2.6035007499995118,,,,249790,B,2024-11-04_11h37.36.918,EPIDM,2023.1.2,None,
1280.jpg,9402.jpg,2 Points,2 Points,9 points,PS2_L1.csv,,,,,,,,,,,,,,,,,,,,,,,,,,,,,0,0,0,0,0,2,2,2,,,,,,,,,,,,,,,,,,,1102.7837449170001,p,2.0974344169990218,1104.955614167,,,,,,249790,B,2024-11-04_11h37.36.918,EPIDM,2023.1.2,None,
1650.jpg,2130.jpg,1 Points,1 Points,10 points,PS2_L1.csv,,,,,,,,,,,,,,,,,,,,,,,,,,,,,0,0,0,0,0,3,3,3,,,,,,,,,,,,,,,,,,,1109.2003173750018,q,1.7693288330010546,1111.0431055840018,,,,,,249790,B,2024-11-04_11h37.36.918,EPIDM,2023.1.2,None,
2221.jpg,2270.jpg,2 Points,2 Points,12 points,PS2_L1.csv,,,,,,,,,,,,,,,,,,,,,,,,,,,,,0,0,0,0,0,4,4,4,,,,,,,,,,,,,,,,,,,1115.2948352919993,p,1.6896619580002152,1117.0515725840014,,,,,,249790,B,2024-11-04_11h37.36.918,EPIDM,2023.1.2,None,
9373.jpg,9410.jpg,0 Points,0 Points,12 points,PS2_L1.csv,,,,,,,,,,,,,,,,,,,,,,,,,,,,,0,0,0,0,0,5,5,5,,,,,,,,,,,,,,,,,,,1121.300165749999,p,1.6359197500023583,1123.0029739169986,,,,,,249790,B,2024-11-04_11h37.36.918,EPIDM,2023.1.2,None,
4250.jpg,7060.jpg,5 Points,5 Points,17 points,PS2_L1.csv,,,,,,,,,,,,,,,,,,,,,,,,,,,,,0,0,0,0,0,6,6,6,,,,,,,,,,,,,,,,,,,1127.2492310419984,q,1.543799625003885,1128.8624991249999,,,,,,249790,B,2024-11-04_11h37.36.918,EPIDM,2023.1.2,None,
5130.jpg,1810.jpg,3 Points,3 Points,20 points,PS2_L1.csv,,,,,,,,,,,,,,,,,,,,,,,,,,,,,0,0,0,0,0,7,7,7,,,,,,,,,,,,,,,,,,,1133.1036368749992,p,2.152614000002359,1135.3443477500005,,,,,,249790,B,2024-11-04_11h37.36.918,EPIDM,2023.1.2,None,
6370.jpg,1270.jpg,4 Points,4 Points,24 points,PS2_L1.csv,,,,,,,,,,,,,,,,,,,,,,,,,,,,,0,0,0,0,0,8,8,8,,,,,,,,,,,,,,,,,,,1139.5704707090008,p,1.3891755420008849,1141.0455404589993,,,,,,249790,B,2024-11-04_11h37.36.918,EPIDM,2023.1.2,None,
5480.jpg,8200.jpg,4 Points,4 Points,28 points,PS2_L1.csv,,,,,,,,,,,,,,,,,,,,,,,,,,,,,0,0,0,0,0,9,9,9,,,,,,,,,,,,,,,,,,,1145.2832462920014,q,1.9012688750008238,1147.2662054169996,,,,,,249790,B,2024-11-04_11h37.36.918,EPIDM,2023.1.2,None,
2520.jpg,8503.jpg,2 Points,2 Points,30 points,PS2_L1.csv,,,,,,,,,,,,,,,,,,,,,,,,,,,,,0,0,0,0,0,10,10,10,,,,,,,,,,,,,,,,,,,1151.4996191249993,p,1.348292875001789,1152.931691834001,,,,,,249790,B,2024-11-04_11h37.36.918,EPIDM,2023.1.2,None,
5971.jpg,9912.jpg,5 Points,5 Points,35 points,PS2_L1.csv,,,,,,,,,,,,,,,,,,,,,,,,,,,,,0,0,0,0,0,11,11,11,,,,,,,,,,,,,,,,,,,1157.1732470419993,p,1.9068119160037895,1159.1525931670003,,,,,,249790,B,2024-11-04_11h37.36.918,EPIDM,2023.1.2,None,
7195.jpg,2487.jpg,2 Points,2 Points,37 points,PS2_L1.csv,,,,,,,,,,,,,,,,,,,,,,,,,,,,,0,0,0,0,0,12,12,12,,,,,,,,,,,,,,,,,,,1163.3919234999994,p,1.2229665420018137,1164.681381792001,,,,,,249790,B,2024-11-04_11h37.36.918,EPIDM,2023.1.2,None,
6840.jpg,3080.jpg,1 Points,1 Points,38 points,PS2_L1.csv,,,,,,,,,,,,,,,,,,,,,,,,,,,,,0,0,0,0,0,13,13,13,,,,,,,,,,,,,,,,,,,1168.9232148750016,q,2.212867667003593,1171.1913093340008,1,1.89739125000051,,,,249790,B,2024-11-04_11h37.36.918,EPIDM,2023.1.2,None,
5510.jpg,2514.jpg,5 Points,5 Points,43 points,PS2_L1.csv,,,,,,,,,,,,,,,,,,,,,,,,,,,,,0,0,0,0,0,14,14,14,,,,,,,,,,,,,,,,,,,1177.3957049169985,p,1.7800451250004699,1179.246590499999,,,,,,249790,B,2024-11-04_11h37.36.918,EPIDM,2023.1.2,None,
7170.jpg,2170.jpg,2 Points,2 Points,45 points,PS2_L1.csv,,,,,,,,,,,,,,,,,,,,,,,,,,,,,0,0,0,0,0,15,15,15,,,,,,,,,,,,,,,,,,,1183.4960075000017,p,1.646990541001287,1185.2246804589995,,,,,,249790,B,2024-11-04_11h37.36.918,EPIDM,2023.1.2,None,
6020.jpg,6300.jpg,2 Points,2 Points,47 points,PS2_L1.csv,,,,,,,,,,,,,,,,,,,,,,,,,,,,,0,0,0,0,0,16,16,16,,,,,,,,,,,,,,,,,,,1189.4580407499998,q,1.9409956670024258,1191.469716833999,,,,,,249790,B,2024-11-04_11h37.36.918,EPIDM,2023.1.2,None,
1942.jpg,2890.jpg,1 Points,1 Points,48 points,PS2_L1.csv,,,,,,,,,,,,,,,,,,,,,,,,,,,,,0,0,0,0,0,17,17,17,,,,,,,,,,,,,,,,,,,1195.7320023749999,q,1.4907406249985797,1197.286010374999,,,,,,249790,B,2024-11-04_11h37.36.918,EPIDM,2023.1.2,None,
6241.jpg,9561.jpg,3 Points,3 Points,51 points,PS2_L1.csv,,,,,,,,,,,,,,,,,,,,,,,,,,,,,0,0,0,0,0,18,18,18,,,,,,,,,,,,,,,,,,,1201.5284043749998,q,1.5745848750011646,1203.1807391670009,,,,,,249790,B,2024-11-04_11h37.36.918,EPIDM,2023.1.2,None,
4536.jpg,2280.jpg,4 Points,4 Points,55 points,PS2_L1.csv,,,,,,,,,,,,,,,,,,,,,,,,,,,,,0,0,0,0,0,19,19,19,,,,,,,,,,,,,,,,,,,1207.424536167,q,1.9027519170012965,1209.4041541670013,,,,,,249790,B,2024-11-04_11h37.36.918,EPIDM,2023.1.2,None,
6000.jpg,6836.jpg,4 Points,4 Points,59 points,PS2_L1.csv,,,,,,,,,,,,,,,,,,,,,,,,,,,,,0,0,0,0,0,20,20,20,,,,,,,,,,,,,,,,,,,1213.6466194999994,q,2.008739749999222,1215.7248981670018,,,,,,249790,B,2024-11-04_11h37.36.918,EPIDM,2023.1.2,None,
8232.jpg,4279.jpg,5 Points,5 Points,64 points,PS2_L1.csv,,,,,,,,,,,,,,,,,,,,,,,,,,,,,0,0,0,0,0,21,21,21,,,,,,,,,,,,,,,,,,,1219.9678265000002,p,2.159404125002766,1222.2050153749988,,,,,,249790,B,2024-11-04_11h37.36.918,EPIDM,2023.1.2,None,
2312.jpg,2722.jpg,1 Points,1 Points,65 points,PS2_L1.csv,,,,,,,,,,,,,,,,,,,,,,,,,,,,,0,0,0,0,0,22,22,22,,,,,,,,,,,,,,,,,,,1226.4296141669984,q,2.2976702919986565,1228.8054411669982,,,,,,249790,B,2024-11-04_11h37.36.918,EPIDM,2023.1.2,None,
2750.jpg,9050.jpg,4 Points,4 Points,69 points,PS2_L1.csv,,,,,,,,,,,,,,,,,,,,,,,,,,,,,0,0,0,0,0,23,23,23,,,,,,,,,,,,,,,,,,,1233.0464412500005,p,1.4248477920009464,1234.5449549170007,,,1245.0117210419994,space,6.546551500003261,249790,B,2024-11-04_11h37.36.918,EPIDM,2023.1.2,None,
1113.jpg,1240.jpg,3 Points,3 Points,72 points,PS2_L2.csv,,,,,,,,,,,,,,,,,,,,,,,,,,,,,0,1,1,1,0,0,0,0,,,,,,,,,,,,,,,,,,,1254.8644292499994,p,1.9900890000026266,1256.9378900420015,,,,,,249790,B,2024-11-04_11h37.36.918,EPIDM,2023.1.2,None,
8220.jpg,2410.jpg,4 Points,4 Points,76 points,PS2_L2.csv,,,,,,,,,,,,,,,,,,,,,,,,,,,,,0,1,1,1,0,1,1,1,,,,,,,,,,,,,,,,,,,1261.1722496250004,p,1.4411520000030578,1262.6890936669988,4,1.7625116249982966,,,,249790,B,2024-11-04_11h37.36.918,EPIDM,2023.1.2,None,
4621.jpg,3550.jpg,2 Points,2 Points,78 points,PS2_L2.csv,,,,,,,,,,,,,,,,,,,,,,,,,,,,,0,1,1,1,0,2,2,2,,,,,,,,,,,,,,,,,,,1268.7623784999996,q,2.42748904200198,1271.2614491669992,,,,,,249790,B,2024-11-04_11h37.36.918,EPIDM,2023.1.2,None,
2751.jpg,6313.jpg,3 Points,3 Points,81 points,PS2_L2.csv,,,,,,,,,,,,,,,,,,,,,,,,,,,,,0,1,1,1,0,3,3,3,,,,,,,,,,,,,,,,,,,1275.5043458340006,q,1.460778125001525,1277.0315332089995,,,,,,249790,B,2024-11-04_11h37.36.918,EPIDM,2023.1.2,None,
4689.jpg,7009.jpg,5 Points,5 Points,86 points,PS2_L2.csv,,,,,,,,,,,,,,,,,,,,,,,,,,,,,0,1,1,1,0,4,4,4,,,,,,,,,,,,,,,,,,,1281.2840752919983,q,1.61110833299972,1282.973239750001,,,,,,249790,B,2024-11-04_11h37.36.918,EPIDM,2023.1.2,None,
6831.jpg,2141.jpg,5 Points,5 Points,91 points,PS2_L2.csv,,,,,,,,,,,,,,,,,,,,,,,,,,,,,0,1,1,1,0,5,5,5,,,,,,,,,,,,,,,,,,,1287.2096335419992,p,1.8118625419992895,1289.0915465420003,,,,,,249790,B,2024-11-04_11h37.36.918,EPIDM,2023.1.2,None,
9417.jpg,6530.jpg,1 Point,1 Point,92 points,PS2_L2.csv,,,,,,,,,,,,,,,,,,,,,,,,,,,,,0,1,1,1,0,6,6,6,,,,,,,,,,,,,,,,,,,1293.3401095000008,q,2.0239966250010184,1295.4371264590009,,,,,,249790,B,2024-11-04_11h37.36.918,EPIDM,2023.1.2,None,
7237.jpg,8510.jpg,4 Points,4 Points,96 points,PS2_L2.csv,,,,,,,,,,,,,,,,,,,,,,,,,,,,,0,1,1,1,0,7,7,7,,,,,,,,,,,,,,,,,,,1299.6764082920017,q,1.2082071670010919,1300.956756833999,,,,,,249790,B,2024-11-04_11h37.36.918,EPIDM,2023.1.2,None,
4608.jpg,8320.jpg,1 Point,1 Point,97 points,PS2_L2.csv,,,,,,,,,,,,,,,,,,,,,,,,,,,,,0,1,1,1,0,8,8,8,,,,,,,,,,,,,,,,,,,1305.1869121669988,q,1.1609604170007515,1306.4161273749996,,,,,,249790,B,2024-11-04_11h37.36.918,EPIDM,2023.1.2,None,
9254.jpg,9290.jpg,2 Points,2 Points,99 points,PS2_L2.csv,,,,,,,,,,,,,,,,,,,,,,,,,,,,,0,1,1,1,0,9,9,9,,,,,,,,,,,,,,,,,,,1310.6671006670003,q,1.8174530409996805,1312.5504144170009,,,,,,249790,B,2024-11-04_11h37.36.918,EPIDM,2023.1.2,None,
9530.jpg,9220.jpg,1 Point,1 Point,100 points,PS2_L2.csv,,,,,,,,,,,,,,,,,,,,,,,,,,,,,0,1,1,1,0,10,10,10,,,,,,,,,,,,,,,,,,,1316.8109374589985,q,1.9532193330014707,1318.8332898340013,,,,,,249790,B,2024-11-04_11h37.36.918,EPIDM,2023.1.2,None,
2092.jpg,2210.jpg,0 Points,0 Points,100 points,PS2_L2.csv,,,,,,,,,,,,,,,,,,,,,,,,,,,,,0,1,1,1,0,11,11,11,,,,,,,,,,,,,,,,,,,1323.0768477089987,p,1.3360514590021921,1324.4848740419984,,,,,,249790,B,2024-11-04_11h37.36.918,EPIDM,2023.1.2,None,
9500.jpg,6360.jpg,1 Point,1 Point,101 points,PS2_L2.csv,,,,,,,,,,,,,,,,,,,,,,,,,,,,,0,1,1,1,0,12,12,12,,,,,,,,,,,,,,,,,,,1328.7277065000017,q,2.676395499998762,1331.4717762090004,,,,,,249790,B,2024-11-04_11h37.36.918,EPIDM,2023.1.2,None,
2220.jpg,2010.jpg,5 Points,5 Points,106 points,PS2_L2.csv,,,,,,,,,,,,,,,,,,,,,,,,,,,,,0,1,1,1,0,13,13,13,,,,,,,,,,,,,,,,,,,1335.705289292,q,1.1705465829982131,1336.9570740000017,5,1.9844255409989273,,,,249790,B,2024-11-04_11h37.36.918,EPIDM,2023.1.2,None,
5940.jpg,9411.jpg,0 Points,0 Points,106 points,PS2_L2.csv,,,,,,,,,,,,,,,,,,,,,,,,,,,,,0,1,1,1,0,14,14,14,,,,,,,,,,,,,,,,,,,1343.2461736250007,p,1.4934260830013955,1344.8150324589988,,,,,,249790,B,2024-11-04_11h37.36.918,EPIDM,2023.1.2,None,
4533.jpg,2385.jpg,3 Points,3 Points,109 points,PS2_L2.csv,,,,,,,,,,,,,,,,,,,,,,,,,,,,,0,1,1,1,0,15,15,15,,,,,,,,,,,,,,,,,,,1349.0487912919998,q,0.9389431670024351,1350.0705361250002,,,,,,249790,B,2024-11-04_11h37.36.918,EPIDM,2023.1.2,None,
9340.jpg,6910.jpg,0 Points,0 Points,109 points,PS2_L2.csv,,,,,,,,,,,,,,,,,,,,,,,,,,,,,0,1,1,1,0,16,16,16,,,,,,,,,,,,,,,,,,,1354.2988462499998,p,0.9774379160007811,1355.3539494590004,,,,,,249790,B,2024-11-04_11h37.36.918,EPIDM,2023.1.2,None,
8350.jpg,7190.jpg,5 Points,5 Points,114 points,PS2_L2.csv,,,,,,,,,,,,,,,,,,,,,,,,,,,,,0,1,1,1,0,17,17,17,,,,,,,,,,,,,,,,,,,1359.588351667,q,0.6237525409997033,1360.2970921669985,,,,,,249790,B,2024-11-04_11h37.36.918,EPIDM,2023.1.2,None,
6211.jpg,9611.jpg,3 Points,3 Points,117 points ,PS2_L2.csv,,,,,,,,,,,,,,,,,,,,,,,,,,,,,0,1,1,1,0,18,18,18,,,,,,,,,,,,,,,,,,,1364.5358659170015,q,1.7791791250019742,1366.3900360840016,,,,,,249790,B,2024-11-04_11h37.36.918,EPIDM,2023.1.2,None,
2053.jpg,9415.jpg,4 Points,4 Points,121 points,PS2_L2.csv,,,,,,,,,,,,,,,,,,,,,,,,,,,,,0,1,1,1,0,19,19,19,,,,,,,,,,,,,,,,,,,1370.627538042001,q,2.440060665998317,1373.1206140840004,,,,,,249790,B,2024-11-04_11h37.36.918,EPIDM,2023.1.2,None,
2110.jpg,7260.jpg,5 Points,5 Points,126 points,PS2_L2.csv,,,,,,,,,,,,,,,,,,,,,,,,,,,,,0,1,1,1,0,20,20,20,,,,,,,,,,,,,,,,,,,1377.3711359590015,p,2.232054625001183,1379.6764585419987,,,,,,249790,B,2024-11-04_11h37.36.918,EPIDM,2023.1.2,None,
2030.jpg,2495.jpg,0 Points,0 Points,126 points,PS2_L2.csv,,,,,,,,,,,,,,,,,,,,,,,,,,,,,0,1,1,1,0,21,21,21,,,,,,,,,,,,,,,,,,,1383.908627249999,q,1.221748416999617,1385.2075087090016,,,,,,249790,B,2024-11-04_11h37.36.918,EPIDM,2023.1.2,None,
1302.jpg,2700.jpg,3 Points,3 Points,129 points,PS2_L2.csv,,,,,,,,,,,,,,,,,,,,,,,,,,,,,0,1,1,1,0,22,22,22,,,,,,,,,,,,,,,,,,,1389.4390441249998,q,2.3633541250019334,1391.8749470840012,,,,,,249790,B,2024-11-04_11h37.36.918,EPIDM,2023.1.2,None,
9010.jpg,9253.jpg,0 Points,0 Points,129 points,PS2_L2.csv,,,,,,,,,,,,,,,,,,,,,,,,,,,,,0,1,1,1,0,23,23,23,,,,,,,,,,,,,,,,,,,1396.114315750001,q,1.3366417920005915,1397.5236090420003,,,1407.980887875001,space,4.005335917001503,249790,B,2024-11-04_11h37.36.918,EPIDM,2023.1.2,None,
1303.jpg,2000.jpg,0 Points,0 Points,129 points,PS2_L3.csv,,,,,,,,,,,,,,,,,,,,,,,,,,,,,0,2,2,2,0,0,0,0,,,,,,,,,,,,,,,,,,,1415.3017578340005,q,1.612486791000265,1416.989643249999,,,,,,249790,B,2024-11-04_11h37.36.918,EPIDM,2023.1.2,None,
2200.jpg,4598.jpg,1 Point,1 Point,130 points,PS2_L3.csv,,,,,,,,,,,,,,,,,,,,,,,,,,,,,0,2,2,2,0,1,1,1,,,,,,,,,,,,,,,,,,,1421.2310035420014,q,1.6189852079987759,1422.9226231249995,1,1.7803922919993056,,,,249790,B,2024-11-04_11h37.36.918,EPIDM,2023.1.2,None,
6190.jpg,3120.jpg,5 Points,5 Points,135 points,PS2_L3.csv,,,,,,,,,,,,,,,,,,,,,,,,,,,,,0,2,2,2,0,2,2,2,,,,,,,,,,,,,,,,,,,1429.027585584001,q,2.3260694999989937,1431.4387911250014,,,,,,249790,B,2024-11-04_11h37.36.918,EPIDM,2023.1.2,None,
2570.jpg,5500.jpg,3 Points,3 Points,138 points,PS2_L3.csv,,,,,,,,,,,,,,,,,,,,,,,,,,,,,0,2,2,2,0,3,3,3,,,,,,,,,,,,,,,,,,,1435.6710647500004,p,1.7069342920003692,1437.4528935000017,,,,,,249790,B,2024-11-04_11h37.36.918,EPIDM,2023.1.2,None,
8460.jpg,8330.jpg,0 Points,0 Points,138 points,PS2_L3.csv,,,,,,,,,,,,,,,,,,,,,,,,,,,,,0,2,2,2,0,4,4,4,,,,,,,,,,,,,,,,,,,1441.6927633339983,q,1.2999221659993054,1443.0653161670016,,,,,,249790,B,2024-11-04_11h37.36.918,EPIDM,2023.1.2,None,
9320.jpg,9007.jpg,0 Points,0 Points,138 points,PS2_L3.csv,,,,,,,,,,,,,,,,,,,,,,,,,,,,,0,2,2,2,0,5,5,5,,,,,,,,,,,,,,,,,,,1447.3103758340003,p,1.2276027080006315,1448.6151759589993,,,,,,249790,B,2024-11-04_11h37.36.918,EPIDM,2023.1.2,None,
2650.jpg,4531.jpg,5 Points,5 Points,143 points,PS2_L3.csv,,,,,,,,,,,,,,,,,,,,,,,,,,,,,0,2,2,2,0,6,6,6,,,,,,,,,,,,,,,,,,,1452.856554375001,q,1.234845500002848,1454.174385792001,,,,,,249790,B,2024-11-04_11h37.36.918,EPIDM,2023.1.2,None,
4100.jpg,6570.2.jpg,3 Points,3 Points,146 points,PS2_L3.csv,,,,,,,,,,,,,,,,,,,,,,,,,,,,,0,2,2,2,0,7,7,7,,,,,,,,,,,,,,,,,,,1458.4091876249986,q,1.6473416660010116,1460.1387582919997,,,,,,249790,B,2024-11-04_11h37.36.918,EPIDM,2023.1.2,None,
3102.jpg,F032.jpg,1 Point,1 Point,147 points,PS2_L3.csv,,,,,,,,,,,,,,,,,,,,,,,,,,,,,0,2,2,2,0,8,8,8,,,,,,,,,,,,,,,,,,,1464.369862833999,p,0.7043172920020879,1465.1924360000012,,,,,,249790,B,2024-11-04_11h37.36.918,EPIDM,2023.1.2,None,
2240.jpg,5010.jpg,5 Points,5 Points,152 points,PS2_L3.csv,,,,,,,,,,,,,,,,,,,,,,,,,,,,,0,2,2,2,0,9,9,9,,,,,,,,,,,,,,,,,,,1469.3828834589985,q,1.2263592919989605,1470.7207262500015,,,,,,249790,B,2024-11-04_11h37.36.918,EPIDM,2023.1.2,None,
4605.jpg,1510.jpg,4 Points,4 Points,156 points,PS2_L3.csv,,,,,,,,,,,,,,,,,,,,,,,,,,,,,0,2,2,2,0,10,10,10,,,,,,,,,,,,,,,,,,,1474.9218282500005,q,1.1030646250037535,1476.0958404589983,,,,,,249790,B,2024-11-04_11h37.36.918,EPIDM,2023.1.2,None,
9490.jpg,9210.jpg,1 Point,1 Point,157 points,PS2_L3.csv,,,,,,,,,,,,,,,,,,,,,,,,,,,,,0,2,2,2,0,11,11,11,,,,,,,,,,,,,,,,,,,1480.3356298340004,p,1.1849135420015955,1481.5816753750005,,,,,,249790,B,2024-11-04_11h37.36.918,EPIDM,2023.1.2,None,
6821.jpg,9622.jpg,2 Points,2 Points,159 points,PS2_L3.csv,,,,,,,,,,,,,,,,,,,,,,,,,,,,,0,2,2,2,0,12,12,12,,,,,,,,,,,,,,,,,,,1485.8344709999983,p,2.717729333002353,1488.6140541249988,,,,,,249790,B,2024-11-04_11h37.36.918,EPIDM,2023.1.2,None,
2681.jpg,7100.jpg,3 Points,3 Points,162 points,PS2_L3.csv,,,,,,,,,,,,,,,,,,,,,,,,,,,,,0,2,2,2,0,13,13,13,,,,,,,,,,,,,,,,,,,1492.8660766249996,p,1.9270260000012058,1494.8676393749993,3,1.354890417002025,,,,249790,B,2024-11-04_11h37.36.918,EPIDM,2023.1.2,None,
5622.jpg,9156.jpg,4 Points,4 Points,166 points,PS2_L3.csv,,,,,,,,,,,,,,,,,,,,,,,,,,,,,0,2,2,2,0,14,14,14,,,,,,,,,,,,,,,,,,,1500.5461094169987,p,1.646273000002111,1502.2656499590012,,,,,,249790,B,2024-11-04_11h37.36.918,EPIDM,2023.1.2,None,
1111.jpg,1040.jpg,0 Points,0 Points,166 points,PS2_L3.csv,,,,,,,,,,,,,,,,,,,,,,,,,,,,,0,2,2,2,0,15,15,15,,,,,,,,,,,,,,,,,,,1506.4915953749987,p,1.548331458998291,1508.1098568339985,,,,,,249790,B,2024-11-04_11h37.36.918,EPIDM,2023.1.2,None,
1112.jpg,6230.jpg,3 Points,3 Points,169 points,PS2_L3.csv,,,,,,,,,,,,,,,,,,,,,,,,,,,,,0,2,2,2,0,16,16,16,,,,,,,,,,,,,,,,,,,1512.3415814590007,q,0.7617897909985913,1513.1976015,,,,,,249790,B,2024-11-04_11h37.36.918,EPIDM,2023.1.2,None,
8161.jpg,1900.jpg,4 Points,4 Points,173 points,PS2_L3.csv,,,,,,,,,,,,,,,,,,,,,,,,,,,,,0,2,2,2,0,17,17,17,,,,,,,,,,,,,,,,,,,1517.4419996249999,q,1.0140702089993283,1518.5204702500014,,,,,,249790,B,2024-11-04_11h37.36.918,EPIDM,2023.1.2,None,
9800.jpg,9433.jpg,1 Point,1 Point,174 points,PS2_L3.csv,,,,,,,,,,,,,,,,,,,,,,,,,,,,,0,2,2,2,0,18,18,18,,,,,,,,,,,,,,,,,,,1522.7707407089983,p,1.6936051250013406,1524.5400719999998,,,,,,249790,B,2024-11-04_11h37.36.918,EPIDM,2023.1.2,None,
1390.jpg,9421.jpg,2 Points,2 Points,176 points,PS2_L3.csv,,,,,,,,,,,,,,,,,,,,,,,,,,,,,0,2,2,2,0,19,19,19,,,,,,,,,,,,,,,,,,,1528.7739672089992,q,1.080792291999387,1529.9298939170003,,,,,,249790,B,2024-11-04_11h37.36.918,EPIDM,2023.1.2,None,
2850.jpg,4532.jpg,3 Points,3 Points,179 points,PS2_L3.csv,,,,,,,,,,,,,,,,,,,,,,,,,,,,,0,2,2,2,0,20,20,20,,,,,,,,,,,,,,,,,,,1534.1773682499988,p,1.3335042910002812,1535.5850892089984,,,,,,249790,B,2024-11-04_11h37.36.918,EPIDM,2023.1.2,None,
1560.jpg,8185.jpg,0 Points,0 Points,179 points,PS2_L3.csv,,,,,,,,,,,,,,,,,,,,,,,,,,,,,0,2,2,2,0,21,21,21,,,,,,,,,,,,,,,,,,,1539.8284902919986,q,2.0024133330007317,1541.8946749589995,,,,,,249790,B,2024-11-04_11h37.36.918,EPIDM,2023.1.2,None,
6314.jpg,O022.jpg,2 Points,2 Points,181 points,PS2_L3.csv,,,,,,,,,,,,,,,,,,,,,,,,,,,,,0,2,2,2,0,22,22,22,,,,,,,,,,,,,,,,,,,1546.1397283750011,q,1.1395730000003823,1547.3968370420007,,,,,,249790,B,2024-11-04_11h37.36.918,EPIDM,2023.1.2,None,
4274.jpg,8160.jpg,2 Points,2 Points,183 points,PS2_L3.csv,,,,,,,,,,,,,,,,,,,,,,,,,,,,,0,2,2,2,0,23,23,23,,,,,,,,,,,,,,,,,,,1551.6036419590018,q,1.7553107500025362,1553.4654017089997,,,1563.9039887090003,space,2.358665875002771,249790,B,2024-11-04_11h37.36.918,EPIDM,2023.1.2,None,
8117.jpg,2880.jpg,5 Points,5 Points,188 points,PS2_L4.csv,,,,,,,,,,,,,,,,,,,,,,,,,,,,,0,3,3,3,0,0,0,0,,,,,,,,,,,,,,,,,,,1569.573350958999,q,0.8978717080026399,1570.5419159589983,,,,,,249790,B,2024-11-04_11h37.36.918,EPIDM,2023.1.2,None,
3220.jpg,3063.jpg,5 Points,5 Points,193 points,PS2_L4.csv,,,,,,,,,,,,,,,,,,,,,,,,,,,,,0,3,3,3,0,1,1,1,,,,,,,,,,,,,,,,,,,1574.783866124999,q,2.271330666000722,1577.1215457500002,5,1.7408052920000046,,,,249790,B,2024-11-04_11h37.36.918,EPIDM,2023.1.2,None,
9040.jpg,1120.jpg,3 Points,3 Points,196 points,PS2_L4.csv,,,,,,,,,,,,,,,,,,,,,,,,,,,,,0,3,3,3,0,2,2,2,,,,,,,,,,,,,,,,,,,1583.1864799169998,q,1.5483446670004923,1584.8018166250004,,,,,,249790,B,2024-11-04_11h37.36.918,EPIDM,2023.1.2,None,
5030.jpg,1670.jpg,3 Points,3 Points,199 points,PS2_L4.csv,,,,,,,,,,,,,,,,,,,,,,,,,,,,,0,3,3,3,0,3,3,3,,,,,,,,,,,,,,,,,,,1589.0488831250004,q,1.059809000002133,1590.181824542,,,,,,249790,B,2024-11-04_11h37.36.918,EPIDM,2023.1.2,None,
2276.jpg,6540.jpg,3 Points,3 Points,202 points,PS2_L4.csv,,,,,,,,,,,,,,,,,,,,,,,,,,,,,0,3,3,3,0,4,4,4,,,,,,,,,,,,,,,,,,,1594.427626834,q,2.1460806660033995,1596.6291189170006,,,,,,249790,B,2024-11-04_11h37.36.918,EPIDM,2023.1.2,None,
1540.jpg,2600.jpg,1 Point,1 Point,203 points,PS2_L4.csv,,,,,,,,,,,,,,,,,,,,,,,,,,,,,0,3,3,3,0,5,5,5,,,,,,,,,,,,,,,,,,,1600.8817525000013,q,1.0108025830013503,1601.9630324589998,,,,,,249790,B,2024-11-04_11h37.36.918,EPIDM,2023.1.2,None,
8465.jpg,8400.jpg,1 Point,1 Point,204 points,PS2_L4.csv,,,,,,,,,,,,,,,,,,,,,,,,,,,,,0,3,3,3,0,6,6,6,,,,,,,,,,,,,,,,,,,1606.213270291999,p,1.4083071669992933,1607.6897567499982,,,,,,249790,B,2024-11-04_11h37.36.918,EPIDM,2023.1.2,None,
3110.jpg,9000.jpg,4 Points,4 Points,208 points,PS2_L4.csv,,,,,,,,,,,,,,,,,,,,,,,,,,,,,0,3,3,3,0,7,7,7,,,,,,,,,,,,,,,,,,,1611.9564529589989,p,1.0735883330016804,1613.095841792001,,,,,,249790,B,2024-11-04_11h37.36.918,EPIDM,2023.1.2,None,
9570.jpg,6610.jpg,0 Points,0 Points,208 points,PS2_L4.csv,,,,,,,,,,,,,,,,,,,,,,,,,,,,,0,3,3,3,0,8,8,8,,,,,,,,,,,,,,,,,,,1617.3461672500016,p,0.6349237080030434,1618.0568889589995,,,,,,249790,B,2024-11-04_11h37.36.918,EPIDM,2023.1.2,None,
2690.jpg,9360.jpg,1 Point,1 Point,209 points,PS2_L4.csv,,,,,,,,,,,,,,,,,,,,,,,,,,,,,0,3,3,3,0,9,9,9,,,,,,,,,,,,,,,,,,,1622.295852542,q,1.5097282500028086,1623.8729297499995,,,,,,249790,B,2024-11-04_11h37.36.918,EPIDM,2023.1.2,None,
8250.jpg,1313.jpg,4 Points,4 Points,213 points,PS2_L4.csv,,,,,,,,,,,,,,,,,,,,,,,,,,,,,0,3,3,3,0,10,10,10,,,,,,,,,,,,,,,,,,,1628.1168283340012,q,0.8807380420003028,1629.0708023340012,,,,,,249790,B,2024-11-04_11h37.36.918,EPIDM,2023.1.2,None,
3022.jpg,2352.2.jpg,0 Points,0 Points,213 points,PS2_L4.csv,,,,,,,,,,,,,,,,,,,,,,,,,,,,,0,3,3,3,0,11,11,11,,,,,,,,,,,,,,,,,,,1633.3029450840004,q,1.038429833999544,1634.4087814170016,,,,,,249790,B,2024-11-04_11h37.36.918,EPIDM,2023.1.2,None,
9920.jpg,3068.jpg,5 Points,5 Points,218 points,PS2_L4.csv,,,,,,,,,,,,,,,,,,,,,,,,,,,,,0,3,3,3,0,12,12,12,,,,,,,,,,,,,,,,,,,1638.641211541999,q,0.7956596660005744,1639.5042489590014,,,,,,249790,B,2024-11-04_11h37.36.918,EPIDM,2023.1.2,None,
7234.jpg,5533.jpg,3 Points,3 Points,221 points,PS2_L4.csv,,,,,,,,,,,,,,,,,,,,,,,,,,,,,0,3,3,3,0,13,13,13,,,,,,,,,,,,,,,,,,,1643.7418945419995,q,2.038579457999731,1645.8431336249996,3,1.6201891669988981,,,,249790,B,2024-11-04_11h37.36.918,EPIDM,2023.1.2,None,
6250.1.jpg,3301.jpg,0 Points,0 Points,221 points,PS2_L4.csv,,,,,,,,,,,,,,,,,,,,,,,,,,,,,0,3,3,3,0,14,14,14,,,,,,,,,,,,,,,,,,,1651.7677460420018,q,0.9253509169975587,1652.7638297500016,,,,,,249790,B,2024-11-04_11h37.36.918,EPIDM,2023.1.2,None,
2518.jpg,2381.jpg,1 Point,1 Point,222 points,PS2_L4.csv,,,,,,,,,,,,,,,,,,,,,,,,,,,,,0,3,3,3,0,15,15,15,,,,,,,,,,,,,,,,,,,1657.0052686669987,p,1.350783333000436,1658.4285890840001,,,,,,249790,B,2024-11-04_11h37.36.918,EPIDM,2023.1.2,None,
1910.jpg,2575.jpg,2 Points,2 Points,224 points,PS2_L4.csv,,,,,,,,,,,,,,,,,,,,,,,,,,,,,0,3,3,3,0,16,16,16,,,,,,,,,,,,,,,,,,,1662.6690517919997,q,0.6713285000005271,1663.3933630419997,,,,,,249790,B,2024-11-04_11h37.36.918,EPIDM,2023.1.2,None,
1275.jpg,3150.jpg,1 Point,1 Point,225 points,PS2_L4.csv,,,,,,,,,,,,,,,,,,,,,,,,,,,,,0,3,3,3,0,17,17,17,,,,,,,,,,,,,,,,,,,1667.6418934590001,q,1.329974416999903,1669.0479913339987,,,,,,249790,B,2024-11-04_11h37.36.918,EPIDM,2023.1.2,None,
2702.jpg,1590.jpg,5 Points,5 Points,230 points,PS2_L4.csv,,,,,,,,,,,,,,,,,,,,,,,,,,,,,0,3,3,3,0,18,18,18,,,,,,,,,,,,,,,,,,,1673.2876686249983,q,0.7242530840012478,1674.0780293339994,,,,,,249790,B,2024-11-04_11h37.36.918,EPIDM,2023.1.2,None,
8480.jpg,6410.jpg,1 Point,1 Point,231 points,PS2_L4.csv,,,,,,,,,,,,,,,,,,,,,,,,,,,,,0,3,3,3,0,19,19,19,,,,,,,,,,,,,,,,,,,1678.3138652499983,q,1.5138157080036763,1679.9006911249999,,,,,,249790,B,2024-11-04_11h37.36.918,EPIDM,2023.1.2,None,
5621.jpg,5534.jpg,3 Points,3 Points,234 points,PS2_L4.csv,,,,,,,,,,,,,,,,,,,,,,,,,,,,,0,3,3,3,0,20,20,20,,,,,,,,,,,,,,,,,,,1684.1438684169989,q,0.72400029200071,1684.944588167,,,,,,249790,B,2024-11-04_11h37.36.918,EPIDM,2023.1.2,None,
5972.jpg,6838.jpg,5 Points,5 Points,239 points,PS2_L4.csv,,,,,,,,,,,,,,,,,,,,,,,,,,,,,0,3,3,3,0,21,21,21,,,,,,,,,,,,,,,,,,,1689.177434666999,p,1.0739046250018873,1690.3130244169988,,,,,,249790,B,2024-11-04_11h37.36.918,EPIDM,2023.1.2,None,
2580.jpg,8300.jpg,3 Points,3 Points,242 points,PS2_L4.csv,,,,,,,,,,,,,,,,,,,,,,,,,,,,,0,3,3,3,0,22,22,22,,,,,,,,,,,,,,,,,,,1694.5515070000001,q,0.9243729999980133,1695.5441694590008,,,,,,249790,B,2024-11-04_11h37.36.918,EPIDM,2023.1.2,None,
7280.jpg,7160.jpg,0 Points,0 Points,242 points,PS2_L4.csv,,,,,,,,,,,,,,,,,,,,,,,,,,,,,0,3,3,3,0,23,23,23,,,,,,,,,,,,,,,,,,,1699.7775866250013,q,1.0182397499993385,1700.8762405839989,,,1711.3588742089996,space,3.372542875000363,249790,B,2024-11-04_11h37.36.918,EPIDM,2023.1.2,None,
6243.jpg,2752.jpg,2 Points,2 Points,244 points,PS2_L5.csv,,,,,,,,,,,,,,,,,,,,,,,,,,,,,0,4,4,4,0,0,0,0,,,,,,,,,,,,,,,,,,,1718.0404058749991,p,1.3615634580019105,1719.4809911250013,,,,,,249790,B,2024-11-04_11h37.36.918,EPIDM,2023.1.2,None,
8340.jpg,7546.jpg,2 Points,2 Points,246 points,PS2_L5.csv,,,,,,,,,,,,,,,,,,,,,,,,,,,,,0,4,4,4,0,1,1,1,,,,,,,,,,,,,,,,,,,1723.716844292001,p,1.5255846250001923,1725.3100760839989,2,1.5319481250007811,,,,249790,B,2024-11-04_11h37.36.918,EPIDM,2023.1.2,None,
1022.jpg,6930.jpg,1 Point,1 Point,247 points,PS2_L5.csv,,,,,,,,,,,,,,,,,,,,,,,,,,,,,0,4,4,4,0,2,2,2,,,,,,,,,,,,,,,,,,,1731.1661379590005,p,1.2121707500009506,1732.446435709,,,,,,249790,B,2024-11-04_11h37.36.918,EPIDM,2023.1.2,None,
7230.jpg,7570.jpg,5 Points,5 Points,252 points,PS2_L5.csv,,,,,,,,,,,,,,,,,,,,,,,,,,,,,0,4,4,4,0,3,3,3,,,,,,,,,,,,,,,,,,,1736.6861723750008,p,1.2271312090015272,1737.9967067090001,,,,,,249790,B,2024-11-04_11h37.36.918,EPIDM,2023.1.2,None,
5760.jpg,1602.jpg,1 Point,1 Point,253 points,PS2_L5.csv,,,,,,,,,,,,,,,,,,,,,,,,,,,,,0,4,4,4,0,4,4,4,,,,,,,,,,,,,,,,,,,1742.2294929169984,q,0.7000169579987414,1742.975452999999,,,,,,249790,B,2024-11-04_11h37.36.918,EPIDM,2023.1.2,None,
9584.jpg,3400.jpg,2 Points,2 Points,255 points,PS2_L5.csv,,,,,,,,,,,,,,,,,,,,,,,,,,,,,0,4,4,4,0,5,5,5,,,,,,,,,,,,,,,,,,,1747.2313590000012,q,0.7377620420011226,1748.0183417920016,,,,,,249790,B,2024-11-04_11h37.36.918,EPIDM,2023.1.2,None,
2560.jpg,5270.jpg,4 Points,4 Points,259 points,PS2_L5.csv,,,,,,,,,,,,,,,,,,,,,,,,,,,,,0,4,4,4,0,6,6,6,,,,,,,,,,,,,,,,,,,1752.2738548339985,q,1.0646902920016146,1753.3944387919983,,,,,,249790,B,2024-11-04_11h37.36.918,EPIDM,2023.1.2,None,
3350.jpg,3210.jpg,1 Point,1 Point,260 points,PS2_L5.csv,,,,,,,,,,,,,,,,,,,,,,,,,,,,,0,4,4,4,0,7,7,7,,,,,,,,,,,,,,,,,,,1757.6497865419988,p,1.1837660829987726,1758.8795082920005,,,,,,249790,B,2024-11-04_11h37.36.918,EPIDM,2023.1.2,None,
5455.jpg,5220.jpg,0 Points,0 Points,260 points,PS2_L5.csv,,,,,,,,,,,,,,,,,,,,,,,,,,,,,0,4,4,4,0,8,8,8,,,,,,,,,,,,,,,,,,,1763.1527299170011,q,1.0977224999987811,1764.28662825,,,,,,249790,B,2024-11-04_11h37.36.918,EPIDM,2023.1.2,None,
7920.jpg,9102.jpg,3 Points,3 Points,263 points,PS2_L5.csv,,,,,,,,,,,,,,,,,,,,,,,,,,,,,0,4,4,4,0,9,9,9,,,,,,,,,,,,,,,,,,,1768.5608788749996,q,0.9924040830010199,1769.6083650420005,,,,,,249790,B,2024-11-04_11h37.36.918,EPIDM,2023.1.2,None,
1301.jpg,1070.jpg,2 Points,2 Points,265 points,PS2_L5.csv,,,,,,,,,,,,,,,,,,,,,,,,,,,,,0,4,4,4,0,10,10,10,,,,,,,,,,,,,,,,,,,1773.8688054589984,q,0.613877332998527,1774.5543262499996,,,,,,249790,B,2024-11-04_11h37.36.918,EPIDM,2023.1.2,None,
5982.jpg,5260.jpg,5 Points,5 Points,270 points,PS2_L5.csv,,,,,,,,,,,,,,,,,,,,,,,,,,,,,0,4,4,4,0,11,11,11,,,,,,,,,,,,,,,,,,,1778.791940125,q,0.6496089579995896,1779.5134752919985,,,,,,249790,B,2024-11-04_11h37.36.918,EPIDM,2023.1.2,None,
5000.jpg,8180.jpg,4 Points,4 Points,274 points,PS2_L5.csv,,,,,,,,,,,,,,,,,,,,,,,,,,,,,0,4,4,4,0,12,12,12,,,,,,,,,,,,,,,,,,,1783.746886500001,q,0.4776784579989908,1784.2991330000004,,,,,,249790,B,2024-11-04_11h37.36.918,EPIDM,2023.1.2,None,
6244.jpg,9265.jpg,0 Points,0 Points,274 points,PS2_L5.csv,,,,,,,,,,,,,,,,,,,,,,,,,,,,,0,4,4,4,0,13,13,13,,,,,,,,,,,,,,,,,,,1788.532953083999,q,1.7639674580022984,1790.3694925419986,0,2.4728446250010165,,,,249790,B,2024-11-04_11h37.36.918,EPIDM,2023.1.2,None,
5990.jpg,5780.jpg,3 Points,3 Points,277 points,PS2_L5.csv,,,,,,,,,,,,,,,,,,,,,,,,,,,,,0,4,4,4,0,14,14,14,,,,,,,,,,,,,,,,,,,1797.1495504170016,p,0.8116079589999572,1798.0346002920014,,,,,,249790,B,2024-11-04_11h37.36.918,EPIDM,2023.1.2,None,
9440.jpg,6350.jpg,4 Points,4 Points,281 points,PS2_L5.csv,,,,,,,,,,,,,,,,,,,,,,,,,,,,,0,4,4,4,0,15,15,15,,,,,,,,,,,,,,,,,,,1802.2765286249996,p,1.235451083000953,1803.5747740000006,,,,,,249790,B,2024-11-04_11h37.36.918,EPIDM,2023.1.2,None,
1850.jpg,5623.jpg,5 Points,5 Points,286 points,PS2_L5.csv,,,,,,,,,,,,,,,,,,,,,,,,,,,,,0,4,4,4,0,16,16,16,,,,,,,,,,,,,,,,,,,1807.8241364589994,q,0.8318770000005316,1808.7208169590012,,,,,,249790,B,2024-11-04_11h37.36.918,EPIDM,2023.1.2,None,
5200.jpg,5020.jpg,0 Points,0 Points,286 points,PS2_L5.csv,,,,,,,,,,,,,,,,,,,,,,,,,,,,,0,4,4,4,0,17,17,17,,,,,,,,,,,,,,,,,,,1812.9644704589991,q,1.524212542000896,1814.5674659590004,,,,,,249790,B,2024-11-04_11h37.36.918,EPIDM,2023.1.2,None,
P211.jpg,9041.jpg,4 Points,4 Points,290 points,PS2_L5.csv,,,,,,,,,,,,,,,,,,,,,,,,,,,,,0,4,4,4,0,18,18,18,,,,,,,,,,,,,,,,,,,1818.7924289170005,p,0.5512528750005004,1819.4503820419995,,,,,,249790,B,2024-11-04_11h37.36.918,EPIDM,2023.1.2,None,
5600.jpg,9080.jpg,5 Points,5 Points,295 points,PS2_L5.csv,,,,,,,,,,,,,,,,,,,,,,,,,,,,,0,4,4,4,0,19,19,19,,,,,,,,,,,,,,,,,,,1823.6506865420015,q,0.6764525000035064,1824.4082070840013,,,,,,249790,B,2024-11-04_11h37.36.918,EPIDM,2023.1.2,None,
6800.jpg,9190.jpg,0 Points,0 Points,295 points,PS2_L5.csv,,,,,,,,,,,,,,,,,,,,,,,,,,,,,0,4,4,4,0,20,20,20,,,,,,,,,,,,,,,,,,,1828.6432341670006,q,1.4929065000033006,1830.2048565000005,,,,,,249790,B,2024-11-04_11h37.36.918,EPIDM,2023.1.2,None,
3280.jpg,9270.jpg,0 Points,0 Points,295 points,PS2_L5.csv,,,,,,,,,,,,,,,,,,,,,,,,,,,,,0,4,4,4,0,21,21,21,,,,,,,,,,,,,,,,,,,1834.441611541999,q,0.588889457998448,1835.0843481250013,,,,,,249790,B,2024-11-04_11h37.36.918,EPIDM,2023.1.2,None,
4613.jpg,2720.jpg,4 Points,4 Points,299 points,PS2_L5.csv,,,,,,,,,,,,,,,,,,,,,,,,,,,,,0,4,4,4,0,22,22,22,,,,,,,,,,,,,,,,,,,1839.3402568339989,q,1.7071295419991657,1841.108897334001,,,,,,249790,B,2024-11-04_11h37.36.918,EPIDM,2023.1.2,None,
1930.jpg,9008.jpg,1 Point,1 Point,300 points,PS2_L5.csv,,,,,,,,,,,,,,,,,,,,,,,,,,,,,0,4,4,4,0,23,23,23,,,,,,,,,,,,,,,,,,,1845.3535612919986,q,0.765672709003411,1846.1924562919994,,,1856.6425591250008,space,6.547889333000057,249790,B,2024-11-04_11h37.36.918,EPIDM,2023.1.2,None,
2190.jpg,7503.jpg,2 Points,2 Points,302 points,PS2_L6.csv,,,,,,,,,,,,,,,,,,,,,,,,,,,,,0,5,5,5,0,0,0,0,,,,,,,,,,,,,,,,,,,1866.4916410840015,q,1.019139667001582,1867.581160875001,,,,,,249790,B,2024-11-04_11h37.36.918,EPIDM,2023.1.2,None,
2490.jpg,2590.jpg,4 Points,4 Points,306 points,PS2_L6.csv,,,,,,,,,,,,,,,,,,,,,,,,,,,,,0,5,5,5,0,1,1,1,,,,,,,,,,,,,,,,,,,1871.811728042001,q,1.5775641670006735,1873.464324749999,4,1.5057363749983779,,,,249790,B,2024-11-04_11h37.36.918,EPIDM,2023.1.2,None,
9592.jpg,1300.jpg,2 Points,2 Points,308 points,PS2_L6.csv,,,,,,,,,,,,,,,,,,,,,,,,,,,,,0,5,5,5,0,2,2,2,,,,,,,,,,,,,,,,,,,1879.282445375,q,0.9632776250000461,1880.3158681669993,,,,,,249790,B,2024-11-04_11h37.36.918,EPIDM,2023.1.2,None,
8230.jpg,2682.jpg,5 Points,5 Points,313 points,PS2_L6.csv,,,,,,,,,,,,,,,,,,,,,,,,,,,,,0,5,5,5,0,3,3,3,,,,,,,,,,,,,,,,,,,1884.5553987499989,p,0.9699636660006945,1885.5921900419999,,,,,,249790,B,2024-11-04_11h37.36.918,EPIDM,2023.1.2,None,
9090.jpg,7580.jpg,3 Points,3 Points,316 points,PS2_L6.csv,,,,,,,,,,,,,,,,,,,,,,,,,,,,,0,5,5,5,0,4,4,4,,,,,,,,,,,,,,,,,,,1889.8389472089984,p,1.2625012080025044,1891.1738947919985,,,,,,249790,B,2024-11-04_11h37.36.918,EPIDM,2023.1.2,None,
3530.jpg,6213.jpg,1 Point,1 Point,317 points,PS2_L6.csv,,,,,,,,,,,,,,,,,,,,,,,,,,,,,0,5,5,5,0,5,5,5,,,,,,,,,,,,,,,,,,,1895.4075286250009,p,1.9107924580021063,1897.3930984590006,,,,,,249790,B,2024-11-04_11h37.36.918,EPIDM,2023.1.2,None,
1640.jpg,5531.jpg,3 Points,3 Points,320 points,PS2_L6.csv,,,,,,,,,,,,,,,,,,,,,,,,,,,,,0,5,5,5,0,6,6,6,,,,,,,,,,,,,,,,,,,1901.6313122499996,q,0.8148297920015466,1902.5203011669983,,,,,,249790,B,2024-11-04_11h37.36.918,EPIDM,2023.1.2,None,
3064.jpg,3168.jpg,4 Points,4 Points,324 points,PS2_L6.csv,,,,,,,,,,,,,,,,,,,,,,,,,,,,,0,5,5,5,0,7,7,7,,,,,,,,,,,,,,,,,,,1906.7438394169985,q,0.8616395830031252,1907.6741431250011,,,,,,249790,B,2024-11-04_11h37.36.918,EPIDM,2023.1.2,None,
2710.jpg,9252.jpg,1 Point,1 Point,325 points,PS2_L6.csv,,,,,,,,,,,,,,,,,,,,,,,,,,,,,0,5,5,5,0,8,8,8,,,,,,,,,,,,,,,,,,,1911.9310278750017,p,1.1472173330002988,1913.1481446670005,,,,,,249790,B,2024-11-04_11h37.36.918,EPIDM,2023.1.2,None,
2260.jpg,2830.jpg,5 Points,5 Points,330 points,PS2_L6.csv,,,,,,,,,,,,,,,,,,,,,,,,,,,,,0,5,5,5,0,9,9,9,,,,,,,,,,,,,,,,,,,1917.3981298750004,q,0.9346175840000797,1918.399036709001,,,,,,249790,B,2024-11-04_11h37.36.918,EPIDM,2023.1.2,None,
6510.jpg,A074.jpg,2 Points,2 Points,332 points,PS2_L6.csv,,,,,,,,,,,,,,,,,,,,,,,,,,,,,0,5,5,5,0,10,10,10,,,,,,,,,,,,,,,,,,,1922.6402712089985,p,1.2762640420005482,1924.0346208340015,,,,,,249790,B,2024-11-04_11h37.36.918,EPIDM,2023.1.2,None,
5300.jpg,2372.jpg,1 Point,1 Point,333 points,PS2_L6.csv,,,,,,,,,,,,,,,,,,,,,,,,,,,,,0,5,5,5,0,11,11,11,,,,,,,,,,,,,,,,,,,1928.2235529589998,q,0.6532381659999373,1928.9901477499989,,,,,,249790,B,2024-11-04_11h37.36.918,EPIDM,2023.1.2,None,
2749.jpg,7282.jpg,3 Points,3 Points,336 points,PS2_L6.csv,,,,,,,,,,,,,,,,,,,,,,,,,,,,,0,5,5,5,0,12,12,12,,,,,,,,,,,,,,,,,,,1933.1903839170009,p,0.9190866669996467,1934.1841655839999,,,,,,249790,B,2024-11-04_11h37.36.918,EPIDM,2023.1.2,None,
3130.jpg,3500.jpg,4 Points,4 Points,340 points,PS2_L6.csv,,,,,,,,,,,,,,,,,,,,,,,,,,,,,0,5,5,5,0,13,13,13,,,,,,,,,,,,,,,,,,,1938.4175196670003,p,0.7069163329979347,1939.1891619999988,4,1.770228290999512,,,,249790,B,2024-11-04_11h37.36.918,EPIDM,2023.1.2,None,
6312.jpg,3230.jpg,2 Points,2 Points,342 points,PS2_L6.csv,,,,,,,,,,,,,,,,,,,,,,,,,,,,,0,5,5,5,0,14,14,14,,,,,,,,,,,,,,,,,,,1945.2590455419995,p,1.448738000002777,1946.7789598339987,,,,,,249790,B,2024-11-04_11h37.36.918,EPIDM,2023.1.2,None,
2597.jpg,5870.jpg,5 Points,5 Points,347 points,PS2_L6.csv,,,,,,,,,,,,,,,,,,,,,,,,,,,,,0,5,5,5,0,15,15,15,,,,,,,,,,,,,,,,,,,1951.0105116250015,p,1.4170601250007167,1952.5069431250013,,,,,,249790,B,2024-11-04_11h37.36.918,EPIDM,2023.1.2,None,
8033.jpg,7270.jpg,3 Points,3 Points,350 points,PS2_L6.csv,,,,,,,,,,,,,,,,,,,,,,,,,,,,,0,5,5,5,0,16,16,16,,,,,,,,,,,,,,,,,,,1956.7367944590005,p,1.0516269590007141,1957.861517166999,,,,,,249790,B,2024-11-04_11h37.36.918,EPIDM,2023.1.2,None,
3170.jpg,6560.jpg,2 Points,2 Points,352 points,PS2_L6.csv,,,,,,,,,,,,,,,,,,,,,,,,,,,,,0,5,5,5,0,17,17,17,,,,,,,,,,,,,,,,,,,1962.105992334,p,0.5713633750019653,1962.739067041999,,,,,,249790,B,2024-11-04_11h37.36.918,EPIDM,2023.1.2,None,
6242.jpg,F034.jpg,4 Points,4 Points,356 points,PS2_L6.csv,,,,,,,,,,,,,,,,,,,,,,,,,,,,,0,5,5,5,0,18,18,18,,,,,,,,,,,,,,,,,,,1966.9832807089988,q,1.3482656669984863,1968.44165325,,,,,,249790,B,2024-11-04_11h37.36.918,EPIDM,2023.1.2,None,
2485.jpg,7350.jpg,0 Points,0 Points,356 points,PS2_L6.csv,,,,,,,,,,,,,,,,,,,,,,,,,,,,,0,5,5,5,0,19,19,19,,,,,,,,,,,,,,,,,,,1972.6423532500012,p,0.6650228329999663,1973.4014067919998,,,,,,249790,B,2024-11-04_11h37.36.918,EPIDM,2023.1.2,None,
2900.jpg,1101.jpg,3 Points,3 Points,359 points,PS2_L6.csv,,,,,,,,,,,,,,,,,,,,,,,,,,,,,0,5,5,5,0,20,20,20,,,,,,,,,,,,,,,,,,,1977.6328714170013,q,0.6343332079995889,1978.3528006669985,,,,,,249790,B,2024-11-04_11h37.36.918,EPIDM,2023.1.2,None,
7002.jpg,4660.jpg,4 Points,4 Points,363 points,PS2_L6.csv,,,,,,,,,,,,,,,,,,,,,,,,,,,,,0,5,5,5,0,21,21,21,,,,,,,,,,,,,,,,,,,1982.593543709001,p,0.6579298750002636,1983.3320252919984,,,,,,249790,B,2024-11-04_11h37.36.918,EPIDM,2023.1.2,None,
A025.jpg,1051.jpg,0 Points,0 Points,363 points,PS2_L6.csv,,,,,,,,,,,,,,,,,,,,,,,,,,,,,0,5,5,5,0,22,22,22,,,,,,,,,,,,,,,,,,,1987.5630936669986,p,1.8234559589982382,1989.5114463749997,,,,,,249790,B,2024-11-04_11h37.36.918,EPIDM,2023.1.2,None,
4510.jpg,2230.jpg,5 Points,5 Points,368 points,PS2_L6.csv,,,,,,,,,,,,,,,,,,,,,,,,,,,,,0,5,5,5,0,23,23,23,,,,,,,,,,,,,,,,,,,1993.6989025420007,q,0.5521705000028305,1994.3358763340002,,,2004.8139397090017,space,7.869199875000049,249790,B,2024-11-04_11h37.36.918,EPIDM,2023.1.2,None,
2383.jpg,1616.jpg,2 Points,2 Points,370 points,PS2_L7.csv,,,,,,,,,,,,,,,,,,,,,,,,,,,,,0,6,6,6,0,0,0,0,,,,,,,,,,,,,,,,,,,2015.9930937919999,q,0.9133682079991559,2016.9841706670013,,,,,,249790,B,2024-11-04_11h37.36.918,EPIDM,2023.1.2,None,
1310.jpg,3181.jpg,4 Points,4 Points,374 points,PS2_L7.csv,,,,,,,,,,,,,,,,,,,,,,,,,,,,,0,6,6,6,0,1,1,1,,,,,,,,,,,,,,,,,,,2021.2183683340008,p,0.8147314170018944,2022.0981150420012,4,1.2283965420028835,,,,249790,B,2024-11-04_11h37.36.918,EPIDM,2023.1.2,None,
7289.jpg,4534.jpg,0 Points,0 Points,374 points,PS2_L7.csv,,,,,,,,,,,,,,,,,,,,,,,,,,,,,0,6,6,6,0,2,2,2,,,,,,,,,,,,,,,,,,,2027.6275807089987,p,0.7497382090004976,2028.4560166250012,,,,,,249790,B,2024-11-04_11h37.36.918,EPIDM,2023.1.2,None,
6010.jpg,7361.jpg,2 Points,2 Points,376 points,PS2_L7.csv,,,,,,,,,,,,,,,,,,,,,,,,,,,,,0,6,6,6,0,3,3,3,,,,,,,,,,,,,,,,,,,2032.6891755420002,q,1.7926040000020294,2034.5512461670005,,,,,,249790,B,2024-11-04_11h37.36.918,EPIDM,2023.1.2,None,
2661.jpg,2870.jpg,5 Points,5 Points,381 points,PS2_L7.csv,,,,,,,,,,,,,,,,,,,,,,,,,,,,,0,6,6,6,0,4,4,4,,,,,,,,,,,,,,,,,,,2038.7865644170015,q,1.0319680829998106,2039.8843923749992,,,,,,249790,B,2024-11-04_11h37.36.918,EPIDM,2023.1.2,None,
7220.jpg,8090.jpg,2 Points,2 Points,383 points,PS2_L7.csv,,,,,,,,,,,,,,,,,,,,,,,,,,,,,0,6,6,6,0,5,5,5,,,,,,,,,,,,,,,,,,,2044.1453865420008,p,0.720212750002247,2044.9398330000004,,,,,,249790,B,2024-11-04_11h37.36.918,EPIDM,2023.1.2,None,
9140.jpg,2810.jpg,3 Points,3 Points,386 points,PS2_L7.csv,,,,,,,,,,,,,,,,,,,,,,,,,,,,,0,6,6,6,0,6,6,6,,,,,,,,,,,,,,,,,,,2049.1854892090014,p,1.8394274580023193,2051.0860513340012,,,,,,249790,B,2024-11-04_11h37.36.918,EPIDM,2023.1.2,None,
2516.jpg,8500.jpg,4 Points,4 Points,390 points,PS2_L7.csv,,,,,,,,,,,,,,,,,,,,,,,,,,,,,0,6,6,6,0,7,7,7,,,,,,,,,,,,,,,,,,,2055.3316822919987,q,0.693789500001003,2056.0895177089988,,,,,,249790,B,2024-11-04_11h37.36.918,EPIDM,2023.1.2,None,
9070.jpg,9420.jpg,2 Points,2 Points,392 points,PS2_L7.csv,,,,,,,,,,,,,,,,,,,,,,,,,,,,,0,6,6,6,0,8,8,8,,,,,,,,,,,,,,,,,,,2060.3339057919984,q,1.4751377499997034,2061.8876771249998,,,,,,249790,B,2024-11-04_11h37.36.918,EPIDM,2023.1.2,None,
6561.jpg,1525.jpg,2 Points,2 Points,394 points,PS2_L7.csv,,,,,,,,,,,,,,,,,,,,,,,,,,,,,0,6,6,6,0,9,9,9,,,,,,,,,,,,,,,,,,,2066.123407125,q,0.9814547079986369,2067.1688536250003,,,,,,249790,B,2024-11-04_11h37.36.918,EPIDM,2023.1.2,None,
7175.jpg,7490.jpg,2 Points,2 Points,396 points,PS2_L7.csv,,,,,,,,,,,,,,,,,,,,,,,,,,,,,0,6,6,6,0,10,10,10,,,,,,,,,,,,,,,,,,,2071.419380667001,q,0.9818748750003579,2072.4643071249993,,,,,,249790,B,2024-11-04_11h37.36.918,EPIDM,2023.1.2,None,
8010.jpg,2630.jpg,0 Points,0 Points,396 points,PS2_L7.csv,,,,,,,,,,,,,,,,,,,,,,,,,,,,,0,6,6,6,0,11,11,11,,,,,,,,,,,,,,,,,,,2076.7087918750003,p,0.7396042500004114,2077.5206010420006,,,,,,249790,B,2024-11-04_11h37.36.918,EPIDM,2023.1.2,None,
F174.jpg,9404.jpg,5 Points,5 Points,401 points,PS2_L7.csv,,,,,,,,,,,,,,,,,,,,,,,,,,,,,0,6,6,6,0,12,12,12,,,,,,,,,,,,,,,,,,,2081.7514755839984,p,0.9533252500004892,2082.80359725,,,,,,249790,B,2024-11-04_11h37.36.918,EPIDM,2023.1.2,None,
2692.jpg,8231.jpg,4 Points,4 Points,405 points,PS2_L7.csv,,,,,,,,,,,,,,,,,,,,,,,,,,,,,0,6,6,6,0,13,13,13,,,,,,,,,,,,,,,,,,,2087.0268069999984,q,1.6471591670015187,2088.740346167,4,1.4559298329986632,,,,249790,B,2024-11-04_11h37.36.918,EPIDM,2023.1.2,None,
5994.jpg,5390.jpg,0 Points,0 Points,405 points,PS2_L7.csv,,,,,,,,,,,,,,,,,,,,,,,,,,,,,0,6,6,6,0,14,14,14,,,,,,,,,,,,,,,,,,,2094.5002682090017,q,1.3163219170019147,2095.8723437920016,,,,,,249790,B,2024-11-04_11h37.36.918,EPIDM,2023.1.2,None,
9560.jpg,3071.jpg,1 Point,1 Point,406 points,PS2_L7.csv,,,,,,,,,,,,,,,,,,,,,,,,,,,,,0,6,6,6,0,15,15,15,,,,,,,,,,,,,,,,,,,2100.118766374999,q,0.8663597920021857,2101.0599512920016,,,,,,249790,B,2024-11-04_11h37.36.918,EPIDM,2023.1.2,None,
9330.jpg,3015.jpg,5 Points,5 Points,411 points,PS2_L7.csv,,,,,,,,,,,,,,,,,,,,,,,,,,,,,0,6,6,6,0,16,16,16,,,,,,,,,,,,,,,,,,,2105.3096420420006,q,1.3810466670001915,2106.7524980419985,,,,,,249790,B,2024-11-04_11h37.36.918,EPIDM,2023.1.2,None,
2389.jpg,7320.jpg,0 Points,0 Points,411 points,PS2_L7.csv,,,,,,,,,,,,,,,,,,,,,,,,,,,,,0,6,6,6,0,17,17,17,,,,,,,,,,,,,,,,,,,2110.9970108749985,q,0.9073409590018855,2111.9797687499995,,,,,,249790,B,2024-11-04_11h37.36.918,EPIDM,2023.1.2,None,
6570.1.jpg,9432.jpg,5 Points,5 Points,416 points,PS2_L7.csv,,,,,,,,,,,,,,,,,,,,,,,,,,,,,0,6,6,6,0,18,18,18,,,,,,,,,,,,,,,,,,,2116.2084563749995,p,1.0238744580019556,2117.3044641669985,,,,,,249790,B,2024-11-04_11h37.36.918,EPIDM,2023.1.2,None,
9452.jpg,7184.jpg,4 Points,4 Points,420 points,PS2_L7.csv,,,,,,,,,,,,,,,,,,,,,,,,,,,,,0,6,6,6,0,19,19,19,,,,,,,,,,,,,,,,,,,2121.5447316669997,q,0.6957404159984435,2122.313724874999,,,,,,249790,B,2024-11-04_11h37.36.918,EPIDM,2023.1.2,None,
5120.jpg,5520.jpg,2 Points,2 Points,422 points,PS2_L7.csv,,,,,,,,,,,,,,,,,,,,,,,,,,,,,0,6,6,6,0,20,20,20,,,,,,,,,,,,,,,,,,,2126.5550567089995,q,1.6449013750025188,2128.271342459,,,,,,249790,B,2024-11-04_11h37.36.918,EPIDM,2023.1.2,None,
5970.jpg,3300.jpg,0 Points,0 Points,422 points,PS2_L7.csv,,,,,,,,,,,,,,,,,,,,,,,,,,,,,0,6,6,6,0,21,21,21,,,,,,,,,,,,,,,,,,,2132.4999520419988,q,1.6511486660019727,2134.2228992089986,,,,,,249790,B,2024-11-04_11h37.36.918,EPIDM,2023.1.2,None,
7620.jpg,5395.jpg,1 Point,1 Point,423 points,PS2_L7.csv,,,,,,,,,,,,,,,,,,,,,,,,,,,,,0,6,6,6,0,22,22,22,,,,,,,,,,,,,,,,,,,2138.4755334170004,p,1.1811528750004072,2139.726746542001,,,,,,249790,B,2024-11-04_11h37.36.918,EPIDM,2023.1.2,None,
P019.jpg,F158.jpg,3 Points,3 Points,426 points,PS2_L7.csv,,,,,,,,,,,,,,,,,,,,,,,,,,,,,0,6,6,6,0,23,23,23,,,,,,,,,,,,,,,,,,,2143.967903208999,p,0.7988801670035173,2144.9118895419997,,,2155.3613476249993,space,7.7882622920005815,249790,B,2024-11-04_11h37.36.918,EPIDM,2023.1.2,None,
2620.jpg,2594.jpg,0 Points,0 Points,426 points,PS2_L8.csv,,,,,,,,,,,,,,,,,,,,,,,,,,,,,0,7,7,7,0,0,0,0,,,,,,,,,,,,,,,,,,,2166.452066709,q,1.0335329580011603,2167.586885959001,,,,,,249790,B,2024-11-04_11h37.36.918,EPIDM,2023.1.2,None,
F369.jpg,3100.jpg,2 Points,2 Points,428 points,PS2_L8.csv,,,,,,,,,,,,,,,,,,,,,,,,,,,,,0,7,7,7,0,1,1,1,,,,,,,,,,,,,,,,,,,2171.7974630419994,q,0.857665083000029,2172.758917209001,2,1.3423765420011478,,,,249790,B,2024-11-04_11h37.36.918,EPIDM,2023.1.2,None,
1052.jpg,1201.jpg,3 Points,3 Points,431 points,PS2_L8.csv,,,,,,,,,,,,,,,,,,,,,,,,,,,,,0,7,7,7,0,2,2,2,,,,,,,,,,,,,,,,,,,2178.4032588340015,p,1.4024992080012453,2179.900268917001,,,,,,249790,B,2024-11-04_11h37.36.918,EPIDM,2023.1.2,None,
2606.jpg,2480.jpg,1 Point,1 Point,432 points,PS2_L8.csv,,,,,,,,,,,,,,,,,,,,,,,,,,,,,0,7,7,7,0,3,3,3,,,,,,,,,,,,,,,,,,,2184.115102874999,q,1.2103522079996765,2185.389730084,,,,,,249790,B,2024-11-04_11h37.36.918,EPIDM,2023.1.2,None,
9594.jpg,1080.jpg,4 Points,4 Points,436 points,PS2_L8.csv,,,,,,,,,,,,,,,,,,,,,,,,,,,,,0,7,7,7,0,4,4,4,,,,,,,,,,,,,,,,,,,2189.6271945420012,p,1.5547236250022252,2191.2616081669985,,,,,,249790,B,2024-11-04_11h37.36.918,EPIDM,2023.1.2,None,
4770.jpg,4275.jpg,3 Points,3 Points,439 points,PS2_L8.csv,,,,,,,,,,,,,,,,,,,,,,,,,,,,,0,7,7,7,0,5,5,5,,,,,,,,,,,,,,,,,,,2195.4970842090006,q,0.844417959004204,2196.4152483340004,,,,,,249790,B,2024-11-04_11h37.36.918,EPIDM,2023.1.2,None,
P077.jpg,A041.jpg,1 Point,1 Point,440 points,PS2_L8.csv,,,,,,,,,,,,,,,,,,,,,,,,,,,,,0,7,7,7,0,6,6,6,,,,,,,,,,,,,,,,,,,2200.6409274590005,q,1.4610745000027237,2202.244355958999,,,,,,249790,B,2024-11-04_11h37.36.918,EPIDM,2023.1.2,None,
6550.jpg,9582.jpg,5 Points,5 Points,445 points,PS2_L8.csv,,,,,,,,,,,,,,,,,,,,,,,,,,,,,0,7,7,7,0,7,7,7,,,,,,,,,,,,,,,,,,,2206.4094931670006,q,1.6907607080029265,2208.2125460839998,,,,,,249790,B,2024-11-04_11h37.36.918,EPIDM,2023.1.2,None,
8040.jpg,7185.jpg,1 Point,1 Point,446 points,PS2_L8.csv,,,,,,,,,,,,,,,,,,,,,,,,,,,,,0,7,7,7,0,8,8,8,,,,,,,,,,,,,,,,,,,2212.4134555419987,q,1.0162916250010312,2213.5087807089985,,,,,,249790,B,2024-11-04_11h37.36.918,EPIDM,2023.1.2,None,
P233.jpg,3060.jpg,1 Point,1 Point,447 points,PS2_L8.csv,,,,,,,,,,,,,,,,,,,,,,,,,,,,,0,7,7,7,0,9,9,9,,,,,,,,,,,,,,,,,,,2217.7385941249995,q,1.5943703330012795,2219.4448567500003,,,,,,249790,B,2024-11-04_11h37.36.918,EPIDM,2023.1.2,None,
1090.jpg,P217.jpg,5 Points,5 Points,452 points,PS2_L8.csv,,,,,,,,,,,,,,,,,,,,,,,,,,,,,0,7,7,7,0,10,10,10,,,,,,,,,,,,,,,,,,,2223.648164916998,q,1.2053983750010957,2224.9664492500015,,,,,,249790,B,2024-11-04_11h37.36.918,EPIDM,2023.1.2,None,
9405.jpg,6250.2.jpg,3 Points,3 Points,455 points,PS2_L8.csv,,,,,,,,,,,,,,,,,,,,,,,,,,,,,0,7,7,7,0,11,11,11,,,,,,,,,,,,,,,,,,,2229.1593791669984,p,1.7656205839994072,2231.004874541999,,,,,,249790,B,2024-11-04_11h37.36.918,EPIDM,2023.1.2,None,
1610.jpg,F203.jpg,0 Points,0 Points,455 points,PS2_L8.csv,,,,,,,,,,,,,,,,,,,,,,,,,,,,,0,7,7,7,0,12,12,12,,,,,,,,,,,,,,,,,,,2235.2563587920013,q,0.81344591600282,2236.191752750001,,,,,,249790,B,2024-11-04_11h37.36.918,EPIDM,2023.1.2,None,
P222.jpg,9401.jpg,2 Points,2 Points,457 points,PS2_L8.csv,,,,,,,,,,,,,,,,,,,,,,,,,,,,,0,7,7,7,0,13,13,13,,,,,,,,,,,,,,,,,,,2240.3848285839995,p,0.7317376670034719,2241.2275939169995,2,1.466673750001064,,,,249790,B,2024-11-04_11h37.36.918,EPIDM,2023.1.2,None,
5471.jpg,7352.jpg,2 Points,2 Points,459 points,PS2_L8.csv,,,,,,,,,,,,,,,,,,,,,,,,,,,,,0,7,7,7,0,14,14,14,,,,,,,,,,,,,,,,,,,2247.0101210840003,p,1.059558749999269,2248.1706712500018,,,,,,249790,B,2024-11-04_11h37.36.918,EPIDM,2023.1.2,None,
9042.jpg,2753.jpg,0 Points,0 Points,459 points,PS2_L8.csv,,,,,,,,,,,,,,,,,,,,,,,,,,,,,0,7,7,7,0,15,15,15,,,,,,,,,,,,,,,,,,,2252.3786799590016,p,1.569320541999332,2254.0163366669985,,,,,,249790,B,2024-11-04_11h37.36.918,EPIDM,2023.1.2,None,
8311.jpg,4609.jpg,2 Points,2 Points,461 points,PS2_L8.csv,,,,,,,,,,,,,,,,,,,,,,,,,,,,,0,7,7,7,0,16,16,16,,,,,,,,,,,,,,,,,,,2258.2618740420003,q,0.9098239589984587,2259.238706291999,,,,,,249790,B,2024-11-04_11h37.36.918,EPIDM,2023.1.2,None,
2320.jpg,2791.jpg,4 Points,4 Points,465 points,PS2_L8.csv,,,,,,,,,,,,,,,,,,,,,,,,,,,,,0,7,7,7,0,17,17,17,,,,,,,,,,,,,,,,,,,2263.4821679589986,q,0.8575162920024013,2264.4009981669988,,,,,,249790,B,2024-11-04_11h37.36.918,EPIDM,2023.1.2,None,
F365.jpg,3180.jpg,5 Points,5 Points,470 points,PS2_L8.csv,,,,,,,,,,,,,,,,,,,,,,,,,,,,,0,7,7,7,0,18,18,18,,,,,,,,,,,,,,,,,,,2268.645785708999,p,0.766005875000701,2269.514709125,,,,,,249790,B,2024-11-04_11h37.36.918,EPIDM,2023.1.2,None,
9300.jpg,1050.jpg,4 Points,4 Points,474 points,PS2_L8.csv,,,,,,,,,,,,,,,,,,,,,,,,,,,,,0,7,7,7,0,19,19,19,,,,,,,,,,,,,,,,,,,2273.7210469169986,q,1.1544930830023077,2274.9486910419982,,,,,,249790,B,2024-11-04_11h37.36.918,EPIDM,2023.1.2,None,
6150.jpg,2206.jpg,0 Points,0 Points,474 points,PS2_L8.csv,,,,,,,,,,,,,,,,,,,,,,,,,,,,,0,7,7,7,0,20,20,20,,,,,,,,,,,,,,,,,,,2279.1880308750005,q,1.6719690420031839,2280.9321882500008,,,,,,249790,B,2024-11-04_11h37.36.918,EPIDM,2023.1.2,None,
6260.jpg,3062.jpg,3 Points,3 Points,477 points,PS2_L8.csv,,,,,,,,,,,,,,,,,,,,,,,,,,,,,0,7,7,7,0,21,21,21,,,,,,,,,,,,,,,,,,,2285.171673459001,p,0.9600975829998788,2286.207622875001,,,,,,249790,B,2024-11-04_11h37.36.918,EPIDM,2023.1.2,None,
6571.jpg,P237.jpg,2 Points,2 Points,479 points,PS2_L8.csv,,,,,,,,,,,,,,,,,,,,,,,,,,,,,0,7,7,7,0,22,22,22,,,,,,,,,,,,,,,,,,,2290.447428667001,q,1.1873362920014188,2291.742000916998,,,,,,249790,B,2024-11-04_11h37.36.918,EPIDM,2023.1.2,None,
7283.jpg,1720.jpg,4 Points,4 Points,483 points,PS2_L8.csv,,,,,,,,,,,,,,,,,,,,,,,,,,,,,0,7,7,7,0,23,23,23,,,,,,,,,,,,,,,,,,,2295.9379518339993,p,1.3772679579997202,2297.3889549589985,,,2307.842384874999,space,6.304526750001969,249790,B,2024-11-04_11h37.36.918,EPIDM,2023.1.2,None,
3160.jpg,6210.jpg,1 Point,1 Point,484 points,PS2_L9.csv,,,,,,,,,,,,,,,,,,,,,,,,,,,,,0,8,8,8,0,0,0,0,,,,,,,,,,,,,,,,,,,2317.4605989170013,p,0.7181617920032295,2318.2610609170006,,,,,,249790,B,2024-11-04_11h37.36.918,EPIDM,2023.1.2,None,
2100.jpg,7205.jpg,5 Points,5 Points,489 points,PS2_L9.csv,,,,,,,,,,,,,,,,,,,,,,,,,,,,,0,8,8,8,0,1,1,1,,,,,,,,,,,,,,,,,,,2322.499973124999,q,1.2458221669985505,2323.828914209,5,1.4293385000019043,,,,249790,B,2024-11-04_11h37.36.918,EPIDM,2023.1.2,None,
9110.jpg,3051.jpg,1 Point,1 Point,490 points,PS2_L9.csv,,,,,,,,,,,,,,,,,,,,,,,,,,,,,0,8,8,8,0,2,2,2,,,,,,,,,,,,,,,,,,,2329.578278000001,q,1.7283253749992582,2331.392122792,,,,,,249790,B,2024-11-04_11h37.36.918,EPIDM,2023.1.2,None,
9101.jpg,9571.jpg,2 Points,2 Points,492 points,PS2_L9.csv,,,,,,,,,,,,,,,,,,,,,,,,,,,,,0,8,8,8,0,3,3,3,,,,,,,,,,,,,,,,,,,2335.6265247500014,p,1.0070082079982967,2336.7122318340007,,,,,,249790,B,2024-11-04_11h37.36.918,EPIDM,2023.1.2,None,
5410.jpg,1450.jpg,5 Points,5 Points,497 points,PS2_L9.csv,,,,,,,,,,,,,,,,,,,,,,,,,,,,,0,8,8,8,0,4,4,4,,,,,,,,,,,,,,,,,,,2340.9485507499994,q,0.8533021670009475,2341.859073667001,,,,,,249790,B,2024-11-04_11h37.36.918,EPIDM,2023.1.2,None,
F149.jpg,3030.jpg,0 Points,0 Points,497 points,PS2_L9.csv,,,,,,,,,,,,,,,,,,,,,,,,,,,,,0,8,8,8,0,5,5,5,,,,,,,,,,,,,,,,,,,2346.1101114170015,q,0.9468809999998484,2347.160347459001,,,,,,249790,B,2024-11-04_11h37.36.918,EPIDM,2023.1.2,None,
3266.jpg,7360.jpg,1 Point,1 Point,498 points,PS2_L9.csv,,,,,,,,,,,,,,,,,,,,,,,,,,,,,0,8,8,8,0,6,6,6,,,,,,,,,,,,,,,,,,,2351.3658878749993,p,0.7237750000022061,2352.206975208999,,,,,,249790,B,2024-11-04_11h37.36.918,EPIDM,2023.1.2,None,
5660.jpg,5201.jpg,0 Points,0 Points,498 points,PS2_L9.csv,,,,,,,,,,,,,,,,,,,,,,,,,,,,,0,8,8,8,0,7,7,7,,,,,,,,,,,,,,,,,,,2356.4095694589996,q,0.9190483749989653,2357.413123667,,,,,,249790,B,2024-11-04_11h37.36.918,EPIDM,2023.1.2,None,
1945.jpg,2800.jpg,4 Points,4 Points,502 points,PS2_L9.csv,,,,,,,,,,,,,,,,,,,,,,,,,,,,,0,8,8,8,0,8,8,8,,,,,,,,,,,,,,,,,,,2361.6451977920005,q,1.2276395410008263,2362.9359386670003,,,,,,249790,B,2024-11-04_11h37.36.918,EPIDM,2023.1.2,None,
3000.jpg,6200.jpg,5 Points,5 Points,507 points,PS2_L9.csv,,,,,,,,,,,,,,,,,,,,,,,,,,,,,0,8,8,8,0,9,9,9,,,,,,,,,,,,,,,,,,,2367.17956425,p,0.7171700409999175,2367.9738446670017,,,,,,249790,B,2024-11-04_11h37.36.918,EPIDM,2023.1.2,None,
2215.jpg,2512.jpg,1 Point,1 Point,508 points,PS2_L9.csv,,,,,,,,,,,,,,,,,,,,,,,,,,,,,0,8,8,8,0,10,10,10,,,,,,,,,,,,,,,,,,,2372.2091770840016,p,0.8321963330017752,2373.108928417001,,,,,,249790,B,2024-11-04_11h37.36.918,EPIDM,2023.1.2,None,
5460.jpg,5800.jpg,0 Points,0 Points,508 points,PS2_L9.csv,,,,,,,,,,,,,,,,,,,,,,,,,,,,,0,8,8,8,0,11,11,11,,,,,,,,,,,,,,,,,,,2377.3560481669992,p,0.6771863750000193,2378.1100589589987,,,,,,249790,B,2024-11-04_11h37.36.918,EPIDM,2023.1.2,None,
3061.jpg,2717.jpg,4 Points,4 Points,512 points,PS2_L9.csv,,,,,,,,,,,,,,,,,,,,,,,,,,,,,0,8,8,8,0,12,12,12,,,,,,,,,,,,,,,,,,,2382.3417315840015,p,0.8672608750021027,2383.2778430420003,,,,,,249790,B,2024-11-04_11h37.36.918,EPIDM,2023.1.2,None,
7380.jpg,1220.jpg,1 Point,1 Point,513 points,PS2_L9.csv,,,,,,,,,,,,,,,,,,,,,,,,,,,,,0,8,8,8,0,13,13,13,,,,,,,,,,,,,,,,,,,2387.5196512090006,p,0.8727232500023092,2388.444836958999,1,1.0120182919999934,,,,249790,B,2024-11-04_11h37.36.918,EPIDM,2023.1.2,None,
1740.jpg,7480.jpg,0 Points,0 Points,513 points,PS2_L9.csv,,,,,,,,,,,,,,,,,,,,,,,,,,,,,0,8,8,8,0,14,14,14,,,,,,,,,,,,,,,,,,,2393.778206250001,q,0.7423157089979213,2394.5952429589997,,,,,,249790,B,2024-11-04_11h37.36.918,EPIDM,2023.1.2,None,
7285.jpg,4233.jpg,5 Points,5 Points,518 points,PS2_L9.csv,,,,,,,,,,,,,,,,,,,,,,,,,,,,,0,8,8,8,0,15,15,15,,,,,,,,,,,,,,,,,,,2398.834623999999,p,0.4213750839990098,2399.326871792,,,,,,249790,B,2024-11-04_11h37.36.918,EPIDM,2023.1.2,None,
6830.jpg,6212.jpg,4 Points,4 Points,522 points,PS2_L9.csv,,,,,,,,,,,,,,,,,,,,,,,,,,,,,0,8,8,8,0,16,16,16,,,,,,,,,,,,,,,,,,,2403.5622431250013,p,1.7095132499998726,2405.343199499999,,,,,,249790,B,2024-11-04_11h37.36.918,EPIDM,2023.1.2,None,
7830.jpg,2499.jpg,3 Points,3 Points,525 points,PS2_L9.csv,,,,,,,,,,,,,,,,,,,,,,,,,,,,,0,8,8,8,0,17,17,17,,,,,,,,,,,,,,,,,,,2409.5783781669998,q,0.8291867080006341,2410.4752001250017,,,,,,249790,B,2024-11-04_11h37.36.918,EPIDM,2023.1.2,None,
9520.jpg,1931.jpg,3 Points,3 Points,528 points,PS2_L9.csv,,,,,,,,,,,,,,,,,,,,,,,,,,,,,0,8,8,8,0,18,18,18,,,,,,,,,,,,,,,,,,,2414.7125982920006,q,1.1988665420030884,2415.9693022089996,,,,,,249790,B,2024-11-04_11h37.36.918,EPIDM,2023.1.2,None,
9160.jpg,1200.jpg,4 Points,4 Points,532 points,PS2_L9.csv,,,,,,,,,,,,,,,,,,,,,,,,,,,,,0,8,8,8,0,19,19,19,,,,,,,,,,,,,,,,,,,2420.2208375420014,q,1.0603064160022768,2421.3549035840006,,,,,,249790,B,2024-11-04_11h37.36.918,EPIDM,2023.1.2,None,
2020.jpg,1947.jpg,5 Points,5 Points,537 points,PS2_L9.csv,,,,,,,,,,,,,,,,,,,,,,,,,,,,,0,8,8,8,0,20,20,20,,,,,,,,,,,,,,,,,,,2425.590883583998,p,1.0490539170023112,2426.709275459001,,,,,,249790,B,2024-11-04_11h37.36.918,EPIDM,2023.1.2,None,
4535.jpg,1811.jpg,1 Point,1 Point,538 points,PS2_L9.csv,,,,,,,,,,,,,,,,,,,,,,,,,,,,,0,8,8,8,0,21,21,21,,,,,,,,,,,,,,,,,,,2430.9467467920003,q,0.9726805000027525,2431.9986820000013,,,,,,249790,B,2024-11-04_11h37.36.918,EPIDM,2023.1.2,None,
9910.jpg,6940.jpg,2 Points,2 Points,540 points,PS2_L9.csv,,,,,,,,,,,,,,,,,,,,,,,,,,,,,0,8,8,8,0,22,22,22,,,,,,,,,,,,,,,,,,,2436.2441357499993,q,1.7314410409999255,2438.0408430419993,,,,,,249790,B,2024-11-04_11h37.36.918,EPIDM,2023.1.2,None,
9480.jpg,9250.jpg,0 Points,0 Points,540 points,PS2_L9.csv,,,,,,,,,,,,,,,,,,,,,,,,,,,,,0,8,8,8,0,23,23,23,,,,,,,,,,,,,,,,,,,2442.2801277920007,p,1.5674891250018845,2443.9041644999998,,,2454.3876122090005,space,8.307054500000959,249790,B,2024-11-04_11h37.36.918,EPIDM,2023.1.2,None,
1660.jpg,2840.jpg,2 Points,2 Points,542 points,PS2_L10.csv,,,,,,,,,,,,,,,,,,,,,,,,,,,,,0,9,9,9,0,0,0,0,,,,,,,,,,,,,,,,,,,2465.997813375001,q,1.0809300000000803,2467.1553058339996,,,,,,249790,B,2024-11-04_11h37.36.918,EPIDM,2023.1.2,None,
2691.jpg,7640.jpg,0 Points,0 Points,542 points,PS2_L10.csv,,,,,,,,,,,,,,,,,,,,,,,,,,,,,0,9,9,9,0,1,1,1,,,,,,,,,,,,,,,,,,,2471.3926974589995,p,0.9339492079998308,2472.3931739590007,0,1.4850657080023666,,,,249790,B,2024-11-04_11h37.36.918,EPIDM,2023.1.2,None,
9180.jpg,9046.jpg,3 Points,3 Points,545 points,PS2_L10.csv,,,,,,,,,,,,,,,,,,,,,,,,,,,,,0,9,9,9,0,2,2,2,,,,,,,,,,,,,,,,,,,2478.1754244170006,q,0.5100409580009,2478.762226209001,,,,,,249790,B,2024-11-04_11h37.36.918,EPIDM,2023.1.2,None,
8041.jpg,2271.jpg,2 Points,2 Points,547 points,PS2_L10.csv,,,,,,,,,,,,,,,,,,,,,,,,,,,,,0,9,9,9,0,3,3,3,,,,,,,,,,,,,,,,,,,2483.0030587500005,q,1.106402249999519,2484.1842820839993,,,,,,249790,B,2024-11-04_11h37.36.918,EPIDM,2023.1.2,None,
1661.jpg,1321.jpg,3 Points,3 Points,550 points,PS2_L10.csv,,,,,,,,,,,,,,,,,,,,,,,,,,,,,0,9,9,9,0,4,4,4,,,,,,,,,,,,,,,,,,,2488.4293688340003,q,1.295823874999769,2489.794105000001,,,,,,249790,B,2024-11-04_11h37.36.918,EPIDM,2023.1.2,None,
9430.jpg,3010.jpg,5 Points,5 Points,555 points,PS2_L10.csv,,,,,,,,,,,,,,,,,,,,,,,,,,,,,0,9,9,9,0,5,5,5,,,,,,,,,,,,,,,,,,,2494.0388696670016,q,1.3266638339991914,2495.4220534170017,,,,,,249790,B,2024-11-04_11h37.36.918,EPIDM,2023.1.2,None,
2616.jpg,7238.jpg,4 Points,4 Points,559 points,PS2_L10.csv,,,,,,,,,,,,,,,,,,,,,,,,,,,,,0,9,9,9,0,6,6,6,,,,,,,,,,,,,,,,,,,2499.6718205840007,p,1.0210929170025338,2500.758241167001,,,,,,249790,B,2024-11-04_11h37.36.918,EPIDM,2023.1.2,None,
9470.jpg,9400.jpg,3 Points,3 Points,562 points,PS2_L10.csv,,,,,,,,,,,,,,,,,,,,,,,,,,,,,0,9,9,9,0,7,7,7,,,,,,,,,,,,,,,,,,,2505.0021509590006,q,1.211053292001452,2506.277592999999,,,,,,249790,B,2024-11-04_11h37.36.918,EPIDM,2023.1.2,None,
8260.jpg,8280.jpg,3 Points,3 Points,565 points,PS2_L10.csv,,,,,,,,,,,,,,,,,,,,,,,,,,,,,0,9,9,9,0,8,8,8,,,,,,,,,,,,,,,,,,,2510.531456208999,p,0.6902947500020673,2511.2839607919996,,,,,,249790,B,2024-11-04_11h37.36.918,EPIDM,2023.1.2,None,
9230.jpg,9181.jpg,0 Points,0 Points,565 points,PS2_L10.csv,,,,,,,,,,,,,,,,,,,,,,,,,,,,,0,9,9,9,0,9,9,9,,,,,,,,,,,,,,,,,,,2515.5317972500015,q,0.9615946250014531,2516.552948708999,,,,,,249790,B,2024-11-04_11h37.36.918,EPIDM,2023.1.2,None,
6834.jpg,9120.jpg,5 Points,5 Points,570 points,PS2_L10.csv,,,,,,,,,,,,,,,,,,,,,,,,,,,,,0,9,9,9,0,10,10,10,,,,,,,,,,,,,,,,,,,2520.8075586669984,q,1.965612541000155,2522.8373562089982,,,,,,249790,B,2024-11-04_11h37.36.918,EPIDM,2023.1.2,None,
2440.jpg,7351.jpg,4 Points,4 Points,574 points,PS2_L10.csv,,,,,,,,,,,,,,,,,,,,,,,,,,,,,0,9,9,9,0,11,11,11,,,,,,,,,,,,,,,,,,,2527.0973519590007,p,0.8350920410011895,2528.0082800419987,,,,,,249790,B,2024-11-04_11h37.36.918,EPIDM,2023.1.2,None,
9280.jpg,9390.jpg,1 Point,1 Point,575 points,PS2_L10.csv,,,,,,,,,,,,,,,,,,,,,,,,,,,,,0,9,9,9,0,12,12,12,,,,,,,,,,,,,,,,,,,2532.244992,p,0.8387644170034037,2533.157878334001,,,,,,249790,B,2024-11-04_11h37.36.918,EPIDM,2023.1.2,None,
7186.jpg,9182.jpg,2 Points,2 Points,577 points,PS2_L10.csv,,,,,,,,,,,,,,,,,,,,,,,,,,,,,0,9,9,9,0,13,13,13,,,,,,,,,,,,,,,,,,,2537.397634249999,q,1.2547750000012456,2538.737650916999,2,1.3258620420019724,,,,249790,B,2024-11-04_11h37.36.918,EPIDM,2023.1.2,None,
7820.jpg,1121.jpg,0 Points,0 Points,577 points,PS2_L10.csv,,,,,,,,,,,,,,,,,,,,,,,,,,,,,0,9,9,9,0,14,14,14,,,,,,,,,,,,,,,,,,,2544.387165791999,p,1.2724932499986608,2545.7319964589988,,,,,,249790,B,2024-11-04_11h37.36.918,EPIDM,2023.1.2,None,
1110.jpg,9331.jpg,2 Points,2 Points,579 points,PS2_L10.csv,,,,,,,,,,,,,,,,,,,,,,,,,,,,,0,9,9,9,0,15,15,15,,,,,,,,,,,,,,,,,,,2549.9645936669986,p,1.2314332500027376,2551.273360667001,,,,,,249790,B,2024-11-04_11h37.36.918,EPIDM,2023.1.2,None,
9001.jpg,9620.jpg,1 Point,1 Point,580 points,PS2_L10.csv,,,,,,,,,,,,,,,,,,,,,,,,,,,,,0,9,9,9,0,16,16,16,,,,,,,,,,,,,,,,,,,2555.5073358750014,q,0.8728826669976115,2556.451211959,,,,,,249790,B,2024-11-04_11h37.36.918,EPIDM,2023.1.2,None,
5535.jpg,8210.jpg,3 Points,3 Points,583 points,PS2_L10.csv,,,,,,,,,,,,,,,,,,,,,,,,,,,,,0,9,9,9,0,17,17,17,,,,,,,,,,,,,,,,,,,2560.680151749999,p,0.8038531670026714,2561.5540607500006,,,,,,249790,B,2024-11-04_11h37.36.918,EPIDM,2023.1.2,None,
7950.jpg,7187.jpg,1 Point,1 Point,584 points,PS2_L10.csv,,,,,,,,,,,,,,,,,,,,,,,,,,,,,0,9,9,9,0,18,18,18,,,,,,,,,,,,,,,,,,,2565.786533999999,q,0.5290380000005825,2566.382302000002,,,,,,249790,B,2024-11-04_11h37.36.918,EPIDM,2023.1.2,None,
3250.jpg,A053.jpg,3 Points,3 Points,587 points,PS2_L10.csv,,,,,,,,,,,,,,,,,,,,,,,,,,,,,0,9,9,9,0,19,19,19,,,,,,,,,,,,,,,,,,,2570.6305776670015,p,0.5252616249999846,2571.2650046249983,,,,,,249790,B,2024-11-04_11h37.36.918,EPIDM,2023.1.2,None,
2205.jpg,3053.jpg,4 Points,4 Points,591 points,PS2_L10.csv,,,,,,,,,,,,,,,,,,,,,,,,,,,,,0,9,9,9,0,20,20,20,,,,,,,,,,,,,,,,,,,2575.470681084,q,0.8603610410027613,2576.4364097920006,,,,,,249790,B,2024-11-04_11h37.36.918,EPIDM,2023.1.2,None,
5594.jpg,5750.jpg,5 Points,5 Points,596 points,PS2_L10.csv,,,,,,,,,,,,,,,,,,,,,,,,,,,,,0,9,9,9,0,21,21,21,,,,,,,,,,,,,,,,,,,2580.6503696670006,p,0.6809881669978495,2581.412990959001,,,,,,249790,B,2024-11-04_11h37.36.918,EPIDM,2023.1.2,None,
6900.jpg,8531.jpg,4 Points,4 Points,600 points,PS2_L10.csv,,,,,,,,,,,,,,,,,,,,,,,,,,,,,0,9,9,9,0,22,22,22,,,,,,,,,,,,,,,,,,,2585.661201084,p,0.8618347500014352,2586.5949102090017,,,,,,249790,B,2024-11-04_11h37.36.918,EPIDM,2023.1.2,None,
1019.jpg,2120.jpg,0 Points,0 Points,600 points,PS2_L10.csv,,,,,,,,,,,,,,,,,,,,,,,,,,,,,0,9,9,9,0,23,23,23,,,,,,,,,,,,,,,,,,,2590.833028500001,p,1.1697884170025645,2592.0716077920006,,,2602.5211961669993,space,2.6174284580010863,249790,B,2024-11-04_11h37.36.918,EPIDM,2023.1.2,None,
