L_Scene,R_Scene,Points_L,Points_R,PtTotal,blockFile,Instructions_Loop.thisRepN,Instructions_Loop.thisTrialN,Instructions_Loop.thisN,Instructions_Loop.thisIndex,Redo_Instructions_Loop.thisRepN,Redo_Instructions_Loop.thisTrialN,Redo_Instructions_Loop.thisN,Redo_Instructions_Loop.thisIndex,Practice_Encoding_Loop.thisRepN,Practice_Encoding_Loop.thisTrialN,Practice_Encoding_Loop.thisN,Practice_Encoding_Loop.thisIndex,Practice_Response_Fail_Loop.thisRepN,Practice_Response_Fail_Loop.thisTrialN,Practice_Response_Fail_Loop.thisN,Practice_Response_Fail_Loop.thisIndex,Practice_FB_Loop.thisRepN,Practice_FB_Loop.thisTrialN,Practice_FB_Loop.thisN,Practice_FB_Loop.thisIndex,Practice_Attention_Loop.thisRepN,Practice_Attention_Loop.thisTrialN,Practice_Attention_Loop.thisN,Practice_Attention_Loop.thisIndex,Practice_EncBrk_Loop.thisRepN,Practice_EncBrk_Loop.thisTrialN,Practice_EncBrk_Loop.thisN,Practice_EncBrk_Loop.thisIndex,Encoding_Loop.thisRepN,Encoding_Loop.thisTrialN,Encoding_Loop.thisN,Encoding_Loop.thisIndex,EncStim_Loop.thisRepN,EncStim_Loop.thisTrialN,EncStim_Loop.thisN,EncStim_Loop.thisIndex,Response_Fail_Loop.thisRepN,Response_Fail_Loop.thisTrialN,Response_Fail_Loop.thisN,Response_Fail_Loop.thisIndex,FB_Loop.thisRepN,FB_Loop.thisTrialN,FB_Loop.thisN,FB_Loop.thisIndex,Attention_Loop.thisRepN,Attention_Loop.thisTrialN,Attention_Loop.thisN,Attention_Loop.thisIndex,EncBrk_Loop.thisRepN,EncBrk_Loop.thisTrialN,EncBrk_Loop.thisN,EncBrk_Loop.thisIndex,Transition_Enc.keys,Transition_Enc.rt,Encoding_Resp.started,Encoding_Resp.keys,Encoding_Resp.rt,R_Point_FB_Stim.started,Encoding_Resp.stopped,Attn_resp.keys,Attn_resp.rt,Progress_Tracker.started,EncBrk_Resp.keys,EncBrk_Resp.rt,participant,Group,date,expName,psychopyVersion,frameRate,
,,,,,,,,,,,,,,,,,,,,,,,,,,,,,,,,,,,,,,,,,,,,,,,,,,,,,,,,,,space,7.2315735000011045,,,,,,,,,,,271120,A,2024-11-09_11h07.19.606,EPIDM,2023.1.2,None,
A060.jpg,F041.jpg,5 Points,5 Points,5 Points,,,,,,,,,,0,0,0,0,,,,,,,,,,,,,,,,,,,,,,,,,,,,,,,,,,,,,,,,,,,617.2395027079983,p,2.495236541995837,619.881251083003,,,,,,,271120,A,2024-11-09_11h07.19.606,EPIDM,2023.1.2,None,
O161.jpg,1812.jpg,2 Points,2 Points,7 Points,,,,,,,,,,0,1,1,1,,,,,,,,,,,,,,,,,,,,,,,,,,,,,,,,,,,,,,,,,,,624.0505384170028,p,3.4137958329956746,627.6023356250007,,,,,,,271120,A,2024-11-09_11h07.19.606,EPIDM,2023.1.2,None,
O013.jpg,A001.jpg,3 Points,3 Points,10 Points,,,,,,,,,,0,2,2,2,,,,,,,,,,,,,,,,,,,,,,,,,,,,,,,,,,,,,,,,,,,631.7671665829985,p,2.903002999999444,634.8362851249985,,,,,,,271120,A,2024-11-09_11h07.19.606,EPIDM,2023.1.2,None,
P036.jpg,F273.jpg,5 Points,5 Points,15 Points,,,,,,,,,,0,3,3,3,,,,,,,,,,,,,,,,,,,,,,,,,,,,,,,,,,,,,,,,,,,638.9743270000035,q,2.952598791998753,642.0910738750026,,,,,,,271120,A,2024-11-09_11h07.19.606,EPIDM,2023.1.2,None,
L130.jpg,2393.jpg,0 Points,0 Points,15 Points,,,,,,,,,,0,4,4,4,,,,,,,,,,,,,,,,,,,,,,,,,,,,,,,,,,,,,,,,,,,646.2356688330037,None,,,649.9375795419983,3,17.703066832997138,,,,271120,A,2024-11-09_11h07.19.606,EPIDM,2023.1.2,None,
F279.jpg,P033.jpg,3 Points,3 Points,18 Points,,,,,,,,,,0,5,5,5,,,,,,,,,,,,,,,,,,,,,,,,,,,,,,,,,,,,,,,,,,,671.486238999998,p,3.3677817509960732,675.021021833003,,,,,,,271120,A,2024-11-09_11h07.19.606,EPIDM,2023.1.2,None,
A104.jpg,2593.jpg,2 Points,2 Points,20 Points,,,,,,,,,,0,6,6,6,,,,,,,,,,,,,,,,,,,,,,,,,,,,,,,,,,,,,,,,,,,679.1696700419998,p,2.8525661669991678,682.1642486249984,,,,,,,271120,A,2024-11-09_11h07.19.606,EPIDM,2023.1.2,None,
2598.jpg,2605.jpg,0 Points,0 Points,20 Points,,,,,,,,,,0,7,7,7,,,,,,,,,,,,,,,,,,,,,,,,,,,,,,,,,,,,,,,,,,,686.335600917002,q,3.4300317500019446,689.824631042,,,,,,,271120,A,2024-11-09_11h07.19.606,EPIDM,2023.1.2,None,
L005.jpg,O011.jpg,1 Points,1 Points,21 Points,,,,,,,,,,0,8,8,8,,,,,,,,,,,,,,,,,,,,,,,,,,,,,,,,,,,,,,,,,,,694.0751926669982,None,,,697.7798868750033,,,,,,271120,A,2024-11-09_11h07.19.606,EPIDM,2023.1.2,None,
8186.jpg,F078.jpg,2 Points,2 Points,23 Points,,,,,,,,,,0,9,9,9,,,,,,,,,,,,,,,,,,,,,,,,,,,,,,,,,,,,,,,,,,,701.581476667001,p,1.824613666991354,703.5174017079989,,2,2.160666707997734,715.943108917003,space,4.414121333997173,271120,A,2024-11-09_11h07.19.606,EPIDM,2023.1.2,None,
,,,,,,,,,,,,,,,,,,,,,,,,,,,,,,,,,,,,,,,,,,,,,,,,,,,,,,,,,,space,16.506403792001947,,,,,,,,,,,271120,A,2024-11-09_11h07.19.606,EPIDM,2023.1.2,None,
1019.jpg,2120.jpg,0 Points,0 Points,0 Points,PS1_L1.csv,,,,,,,,,,,,,,,,,,,,,,,,,,,,,0,0,0,0,0,0,0,0,,,,,,,,,,,,,,,,,,,770.6601000829978,p,2.0641413339981227,772.8020111250007,,,,,,,271120,A,2024-11-09_11h07.19.606,EPIDM,2023.1.2,None,
6900.jpg,8531.jpg,4 Points,4 Points,4 Points,PS1_L1.csv,,,,,,,,,,,,,,,,,,,,,,,,,,,,,0,0,0,0,0,1,1,1,,,,,,,,,,,,,,,,,,,777.037260750003,p,2.3424407499987865,779.4554069170044,,4,1.8409549169955426,,,,271120,A,2024-11-09_11h07.19.606,EPIDM,2023.1.2,None,
5594.jpg,5750.jpg,5 Points,5 Points,9 Points,PS1_L1.csv,,,,,,,,,,,,,,,,,,,,,,,,,,,,,0,0,0,0,0,2,2,2,,,,,,,,,,,,,,,,,,,785.6060252919997,q,1.9807835829997202,787.6678680420009,,,,,,,271120,A,2024-11-09_11h07.19.606,EPIDM,2023.1.2,None,
2205.jpg,3053.jpg,4 Points,4 Points,13 Points,PS1_L1.csv,,,,,,,,,,,,,,,,,,,,,,,,,,,,,0,0,0,0,0,3,3,3,,,,,,,,,,,,,,,,,,,791.9052056670043,q,3.1402028749944293,795.1124202499996,,,,,,,271120,A,2024-11-09_11h07.19.606,EPIDM,2023.1.2,None,
3250.jpg,A053.jpg,3 Points,3 Points,16 Points,PS1_L1.csv,,,,,,,,,,,,,,,,,,,,,,,,,,,,,0,0,0,0,0,4,4,4,,,,,,,,,,,,,,,,,,,799.3604726670019,p,2.6268832499918062,802.0937444169977,,,,,,,271120,A,2024-11-09_11h07.19.606,EPIDM,2023.1.2,None,
7950.jpg,7187.jpg,1 Point,1 Point,17 Points,PS1_L1.csv,,,,,,,,,,,,,,,,,,,,,,,,,,,,,0,0,0,0,0,5,5,5,,,,,,,,,,,,,,,,,,,806.3033882079981,q,2.981060666999838,809.3902023749979,,,,,,,271120,A,2024-11-09_11h07.19.606,EPIDM,2023.1.2,None,
5535.jpg,8210.jpg,3 Points,3 Points,20 Points,PS1_L1.csv,,,,,,,,,,,,,,,,,,,,,,,,,,,,,0,0,0,0,0,6,6,6,,,,,,,,,,,,,,,,,,,813.5960469580023,p,2.487679958998342,816.1480512920025,,,,,,,271120,A,2024-11-09_11h07.19.606,EPIDM,2023.1.2,None,
9001.jpg,9620.jpg,1 Point,1 Point,21 Points,PS1_L1.csv,,,,,,,,,,,,,,,,,,,,,,,,,,,,,0,0,0,0,0,7,7,7,,,,,,,,,,,,,,,,,,,820.395903208002,q,2.415280625995365,822.9067421250002,,,,,,,271120,A,2024-11-09_11h07.19.606,EPIDM,2023.1.2,None,
1110.jpg,9331.jpg,2 Points,2 Points,23 Points,PS1_L1.csv,,,,,,,,,,,,,,,,,,,,,,,,,,,,,0,0,0,0,0,8,8,8,,,,,,,,,,,,,,,,,,,827.1404267920007,p,2.7752878750034142,829.9971661669988,,,,,,,271120,A,2024-11-09_11h07.19.606,EPIDM,2023.1.2,None,
7820.jpg,1121.jpg,0 Points,0 Points,23 Points,PS1_L1.csv,,,,,,,,,,,,,,,,,,,,,,,,,,,,,0,0,0,0,0,9,9,9,,,,,,,,,,,,,,,,,,,834.2327652079985,p,1.4021743339908426,835.7064761670044,,,,,,,271120,A,2024-11-09_11h07.19.606,EPIDM,2023.1.2,None,
7186.jpg,9182.jpg,2 Points,2 Points,25 Points,PS1_L1.csv,,,,,,,,,,,,,,,,,,,,,,,,,,,,,0,0,0,0,0,10,10,10,,,,,,,,,,,,,,,,,,,839.9361436670006,q,2.7153082500008168,842.7245278749979,,,,,,,271120,A,2024-11-09_11h07.19.606,EPIDM,2023.1.2,None,
9280.jpg,9390.jpg,1 Point,1 Point,26 Points,PS1_L1.csv,,,,,,,,,,,,,,,,,,,,,,,,,,,,,0,0,0,0,0,11,11,11,,,,,,,,,,,,,,,,,,,846.9531060829977,q,2.6101927919953596,849.6519047080001,,,,,,,271120,A,2024-11-09_11h07.19.606,EPIDM,2023.1.2,None,
2440.jpg,7351.jpg,4 Points,4 Points,30 Points,PS1_L1.csv,,,,,,,,,,,,,,,,,,,,,,,,,,,,,0,0,0,0,0,12,12,12,,,,,,,,,,,,,,,,,,,853.8885096250015,p,1.7217834999974002,855.6800854169996,,,,,,,271120,A,2024-11-09_11h07.19.606,EPIDM,2023.1.2,None,
6834.jpg,9120.jpg,5 Points,5 Points,35 Points,PS1_L1.csv,,,,,,,,,,,,,,,,,,,,,,,,,,,,,0,0,0,0,0,13,13,13,,,,,,,,,,,,,,,,,,,859.9211896249981,q,3.217144249996636,863.2055926250032,,5,1.6863742499990622,,,,271120,A,2024-11-09_11h07.19.606,EPIDM,2023.1.2,None,
9230.jpg,9181.jpg,0 Points,0 Points,35 Points,PS1_L1.csv,,,,,,,,,,,,,,,,,,,,,,,,,,,,,0,0,0,0,0,14,14,14,,,,,,,,,,,,,,,,,,,869.1998322920044,q,2.883091916992271,872.1362001669986,,,,,,,271120,A,2024-11-09_11h07.19.606,EPIDM,2023.1.2,None,
8260.jpg,8280.jpg,3 Points,3 Points,38 Points,PS1_L1.csv,,,,,,,,,,,,,,,,,,,,,,,,,,,,,0,0,0,0,0,15,15,15,,,,,,,,,,,,,,,,,,,876.3952863750019,p,1.5035607509998954,877.9649932920001,,,,,,,271120,A,2024-11-09_11h07.19.606,EPIDM,2023.1.2,None,
9470.jpg,9400.jpg,3 Points,3 Points,41 Points,PS1_L1.csv,,,,,,,,,,,,,,,,,,,,,,,,,,,,,0,0,0,0,0,16,16,16,,,,,,,,,,,,,,,,,,,882.2057325830028,p,2.6762407919959514,884.9442439170016,,,,,,,271120,A,2024-11-09_11h07.19.606,EPIDM,2023.1.2,None,
2616.jpg,7238.jpg,4 Points,4 Points,45 Points,PS1_L1.csv,,,,,,,,,,,,,,,,,,,,,,,,,,,,,0,0,0,0,0,17,17,17,,,,,,,,,,,,,,,,,,,889.1913376250013,q,1.8023309589989367,891.0638337499986,,,,,,,271120,A,2024-11-09_11h07.19.606,EPIDM,2023.1.2,None,
9430.jpg,3010.jpg,5 Points,5 Points,50 Points,PS1_L1.csv,,,,,,,,,,,,,,,,,,,,,,,,,,,,,0,0,0,0,0,18,18,18,,,,,,,,,,,,,,,,,,,895.313024791998,q,1.8966646669941838,897.2767068329995,,,,,,,271120,A,2024-11-09_11h07.19.606,EPIDM,2023.1.2,None,
1661.jpg,1321.jpg,3 Points,3 Points,53 Points,PS1_L1.csv,,,,,,,,,,,,,,,,,,,,,,,,,,,,,0,0,0,0,0,19,19,19,,,,,,,,,,,,,,,,,,,901.5213590830026,q,1.938335624996398,903.5142000830019,,,,,,,271120,A,2024-11-09_11h07.19.606,EPIDM,2023.1.2,None,
8041.jpg,2271.jpg,2 Points,2 Points,55 Points,PS1_L1.csv,,,,,,,,,,,,,,,,,,,,,,,,,,,,,0,0,0,0,0,20,20,20,,,,,,,,,,,,,,,,,,,907.7614969580027,q,1.6566398339928128,909.4903202920032,,,,,,,271120,A,2024-11-09_11h07.19.606,EPIDM,2023.1.2,None,
9180.jpg,9046.jpg,3 Points,3 Points,58 Points,PS1_L1.csv,,,,,,,,,,,,,,,,,,,,,,,,,,,,,0,0,0,0,0,21,21,21,,,,,,,,,,,,,,,,,,,913.7385862919982,p,1.9506702500002575,915.7565154999975,,,,,,,271120,A,2024-11-09_11h07.19.606,EPIDM,2023.1.2,None,
2691.jpg,7640.jpg,0 Points,0 Points,58 Points,PS1_L1.csv,,,,,,,,,,,,,,,,,,,,,,,,,,,,,0,0,0,0,0,22,22,22,,,,,,,,,,,,,,,,,,,919.998739583003,p,2.0015982919940143,922.0664632920016,,,,,,,271120,A,2024-11-09_11h07.19.606,EPIDM,2023.1.2,None,
1660.jpg,2840.jpg,2 Points,2 Points,60 Points,PS1_L1.csv,,,,,,,,,,,,,,,,,,,,,,,,,,,,,0,0,0,0,0,23,23,23,,,,,,,,,,,,,,,,,,,926.3176539580018,q,1.6760216669936199,928.0669695000033,,,,938.5371438330039,space,12.687432082995656,271120,A,2024-11-09_11h07.19.606,EPIDM,2023.1.2,None,
9480.jpg,9250.jpg,0 Points,0 Points,60 Points,PS1_L2.csv,,,,,,,,,,,,,,,,,,,,,,,,,,,,,0,1,1,1,0,0,0,0,,,,,,,,,,,,,,,,,,,954.5387076250045,p,1.8939948749903124,956.5006184169979,,,,,,,271120,A,2024-11-09_11h07.19.606,EPIDM,2023.1.2,None,
9910.jpg,6940.jpg,2 Points,2 Points,62 Points,PS1_L2.csv,,,,,,,,,,,,,,,,,,,,,,,,,,,,,0,1,1,1,0,1,1,1,,,,,,,,,,,,,,,,,,,960.7417639580017,q,2.387234667003213,963.1834748750043,,2,1.3198691669967957,,,,271120,A,2024-11-09_11h07.19.606,EPIDM,2023.1.2,None,
4535.jpg,1811.jpg,1 Point,1 Point,63 Points,PS1_L2.csv,,,,,,,,,,,,,,,,,,,,,,,,,,,,,0,1,1,1,0,2,2,2,,,,,,,,,,,,,,,,,,,968.8232880830037,q,1.3450695419960539,970.244811042001,,,,,,,271120,A,2024-11-09_11h07.19.606,EPIDM,2023.1.2,None,
2020.jpg,1947.jpg,5 Points,5 Points,68 Points,PS1_L2.csv,,,,,,,,,,,,,,,,,,,,,,,,,,,,,0,1,1,1,0,3,3,3,,,,,,,,,,,,,,,,,,,974.4765613330019,p,1.3317643339905771,975.8799160830022,,,,,,,271120,A,2024-11-09_11h07.19.606,EPIDM,2023.1.2,None,
9160.jpg,1200.jpg,4 Points,4 Points,72 Points,PS1_L2.csv,,,,,,,,,,,,,,,,,,,,,,,,,,,,,0,1,1,1,0,4,4,4,,,,,,,,,,,,,,,,,,,980.1189980830022,q,1.7620722919964464,981.9506880830013,,,,,,,271120,A,2024-11-09_11h07.19.606,EPIDM,2023.1.2,None,
9520.jpg,1931.jpg,3 Points,3 Points,75 Points,PS1_L2.csv,,,,,,,,,,,,,,,,,,,,,,,,,,,,,0,1,1,1,0,5,5,5,,,,,,,,,,,,,,,,,,,986.1860663330008,p,1.25548737499048,987.5052864169993,,,,,,,271120,A,2024-11-09_11h07.19.606,EPIDM,2023.1.2,None,
7830.jpg,2499.jpg,3 Points,3 Points,78 Points,PS1_L2.csv,,,,,,,,,,,,,,,,,,,,,,,,,,,,,0,1,1,1,0,6,6,6,,,,,,,,,,,,,,,,,,,991.7422464999981,q,1.9775280419999035,993.7848929169995,,,,,,,271120,A,2024-11-09_11h07.19.606,EPIDM,2023.1.2,None,
6830.jpg,6212.jpg,4 Points,4 Points,82 Points,PS1_L2.csv,,,,,,,,,,,,,,,,,,,,,,,,,,,,,0,1,1,1,0,7,7,7,,,,,,,,,,,,,,,,,,,998.0390916250035,q,3.1366107089997968,1001.2408322499978,,,,,,,271120,A,2024-11-09_11h07.19.606,EPIDM,2023.1.2,None,
7285.jpg,4233.jpg,5 Points,5 Points,87 Points,PS1_L2.csv,,,,,,,,,,,,,,,,,,,,,,,,,,,,,0,1,1,1,0,8,8,8,,,,,,,,,,,,,,,,,,,1005.4834996249992,q,2.3243994169970392,1007.8741459169978,,,,,,,271120,A,2024-11-09_11h07.19.606,EPIDM,2023.1.2,None,
1740.jpg,7480.jpg,0 Points,0 Points,87 Points,PS1_L2.csv,,,,,,,,,,,,,,,,,,,,,,,,,,,,,0,1,1,1,0,9,9,9,,,,,,,,,,,,,,,,,,,1012.1076217919981,q,1.0510249589933665,1013.2350653750036,,,,,,,271120,A,2024-11-09_11h07.19.606,EPIDM,2023.1.2,None,
7380.jpg,1220.jpg,1 Point,1 Point,88 Points,PS1_L2.csv,,,,,,,,,,,,,,,,,,,,,,,,,,,,,0,1,1,1,0,10,10,10,,,,,,,,,,,,,,,,,,,1017.4799459999995,p,2.0476040839930647,1019.585385792001,,,,,,,271120,A,2024-11-09_11h07.19.606,EPIDM,2023.1.2,None,
3061.jpg,2717.jpg,4 Points,4 Points,92 Points,PS1_L2.csv,,,,,,,,,,,,,,,,,,,,,,,,,,,,,0,1,1,1,0,11,11,11,,,,,,,,,,,,,,,,,,,1023.8381078329985,p,2.257020166995062,1026.1520835830015,,,,,,,271120,A,2024-11-09_11h07.19.606,EPIDM,2023.1.2,None,
5460.jpg,5800.jpg,0 Points,0 Points,92 Points,PS1_L2.csv,,,,,,,,,,,,,,,,,,,,,,,,,,,,,0,1,1,1,0,12,12,12,,,,,,,,,,,,,,,,,,,1030.4048370000019,q,1.8747942919944762,1032.3635162499995,,,,,,,271120,A,2024-11-09_11h07.19.606,EPIDM,2023.1.2,None,
2215.jpg,2512.jpg,1 Point,1 Point,93 Points,PS1_L2.csv,,,,,,,,,,,,,,,,,,,,,,,,,,,,,0,1,1,1,0,13,13,13,,,,,,,,,,,,,,,,,,,1036.5991695830016,p,2.074738791998243,1038.7444645420037,,1,1.1250608339978498,,,,271120,A,2024-11-09_11h07.19.606,EPIDM,2023.1.2,None,
3000.jpg,6200.jpg,5 Points,5 Points,98 Points,PS1_L2.csv,,,,,,,,,,,,,,,,,,,,,,,,,,,,,0,1,1,1,0,14,14,14,,,,,,,,,,,,,,,,,,,1044.1551380419987,p,2.2201202919968637,1046.4558915000016,,,,,,,271120,A,2024-11-09_11h07.19.606,EPIDM,2023.1.2,None,
1945.jpg,2800.jpg,4 Points,4 Points,102 Points,PS1_L2.csv,,,,,,,,,,,,,,,,,,,,,,,,,,,,,0,1,1,1,0,15,15,15,,,,,,,,,,,,,,,,,,,1050.6878846250038,q,1.903328041997156,1052.6613835419994,,,,,,,271120,A,2024-11-09_11h07.19.606,EPIDM,2023.1.2,None,
5660.jpg,5201.jpg,0 Points,0 Points,102 Points,PS1_L2.csv,,,,,,,,,,,,,,,,,,,,,,,,,,,,,0,1,1,1,0,16,16,16,,,,,,,,,,,,,,,,,,,1056.895199999999,p,1.75127291699755,1058.7223845420012,,,,,,,271120,A,2024-11-09_11h07.19.606,EPIDM,2023.1.2,None,
3266.jpg,7360.jpg,1 Point,1 Point,103 Points,PS1_L2.csv,,,,,,,,,,,,,,,,,,,,,,,,,,,,,0,1,1,1,0,17,17,17,,,,,,,,,,,,,,,,,,,1062.9541390419981,p,2.3653782089968445,1065.3983259169981,,,,,,,271120,A,2024-11-09_11h07.19.606,EPIDM,2023.1.2,None,
F149.jpg,3030.jpg,0 Points,0 Points,103 Points,PS1_L2.csv,,,,,,,,,,,,,,,,,,,,,,,,,,,,,0,1,1,1,0,18,18,18,,,,,,,,,,,,,,,,,,,1069.623634333002,q,2.590466124995146,1072.3247102079986,,,,,,,271120,A,2024-11-09_11h07.19.606,EPIDM,2023.1.2,None,
5410.jpg,1450.jpg,5 Points,5 Points,108 Points,PS1_L2.csv,,,,,,,,,,,,,,,,,,,,,,,,,,,,,0,1,1,1,0,19,19,19,,,,,,,,,,,,,,,,,,,1076.5262099169995,q,1.7526171669960604,1078.3345364999986,,,,,,,271120,A,2024-11-09_11h07.19.606,EPIDM,2023.1.2,None,
9101.jpg,9571.jpg,2 Points,2 Points,110 Points,PS1_L2.csv,,,,,,,,,,,,,,,,,,,,,,,,,,,,,0,1,1,1,0,20,20,20,,,,,,,,,,,,,,,,,,,1082.5878616670016,p,2.2671760839948547,1084.9306931669998,,,,,,,271120,A,2024-11-09_11h07.19.606,EPIDM,2023.1.2,None,
9110.jpg,3051.jpg,1 Point,1 Point,111 Points,PS1_L2.csv,,,,,,,,,,,,,,,,,,,,,,,,,,,,,0,1,1,1,0,21,21,21,,,,,,,,,,,,,,,,,,,1089.1742452920007,p,2.2973799579995102,1091.5561948329996,,,,,,,271120,A,2024-11-09_11h07.19.606,EPIDM,2023.1.2,None,
2100.jpg,7205.jpg,5 Points,5 Points,116 Points,PS1_L2.csv,,,,,,,,,,,,,,,,,,,,,,,,,,,,,0,1,1,1,0,22,22,22,,,,,,,,,,,,,,,,,,,1095.788224875003,p,2.888869333997718,1098.7550714169993,,,,,,,271120,A,2024-11-09_11h07.19.606,EPIDM,2023.1.2,None,
3160.jpg,6210.jpg,1 Point,1 Point,117 Points,PS1_L2.csv,,,,,,,,,,,,,,,,,,,,,,,,,,,,,0,1,1,1,0,23,23,23,,,,,,,,,,,,,,,,,,,1102.9869996249981,p,2.7710097919989494,1105.8348676250025,,,,1116.2988908749976,space,8.858275667000271,271120,A,2024-11-09_11h07.19.606,EPIDM,2023.1.2,None,
7283.jpg,1720.jpg,4 Points,4 Points,121 Points,PS1_L3.csv,,,,,,,,,,,,,,,,,,,,,,,,,,,,,0,2,2,2,0,0,0,0,,,,,,,,,,,,,,,,,,,1128.472513917004,p,1.9563048749987502,1130.5096080000003,,,,,,,271120,A,2024-11-09_11h07.19.606,EPIDM,2023.1.2,None,
6571.jpg,P237.jpg,2 Points,2 Points,123 Points,PS1_L3.csv,,,,,,,,,,,,,,,,,,,,,,,,,,,,,0,2,2,2,0,1,1,1,,,,,,,,,,,,,,,,,,,1134.7428704999984,q,3.190067834002548,1138.0601447080044,,2,1.5986825009968015,,,,271120,A,2024-11-09_11h07.19.606,EPIDM,2023.1.2,None,
6260.jpg,3062.jpg,3 Points,3 Points,126 Points,PS1_L3.csv,,,,,,,,,,,,,,,,,,,,,,,,,,,,,0,2,2,2,0,2,2,2,,,,,,,,,,,,,,,,,,,1143.953089292001,q,3.1640357919968665,1147.236925917001,,,,,,,271120,A,2024-11-09_11h07.19.606,EPIDM,2023.1.2,None,
6150.jpg,2206.jpg,0 Points,0 Points,126 Points,PS1_L3.csv,,,,,,,,,,,,,,,,,,,,,,,,,,,,,0,2,2,2,0,3,3,3,,,,,,,,,,,,,,,,,,,1151.4432622500026,q,1.961041958995338,1153.483158916999,,,,,,,271120,A,2024-11-09_11h07.19.606,EPIDM,2023.1.2,None,
9300.jpg,1050.jpg,4 Points,4 Points,130 Points,PS1_L3.csv,,,,,,,,,,,,,,,,,,,,,,,,,,,,,0,2,2,2,0,4,4,4,,,,,,,,,,,,,,,,,,,1157.726833624998,p,1.7416595009926823,1159.5367852499985,,,,,,,271120,A,2024-11-09_11h07.19.606,EPIDM,2023.1.2,None,
F365.jpg,3180.jpg,5 Points,5 Points,135 Points,PS1_L3.csv,,,,,,,,,,,,,,,,,,,,,,,,,,,,,0,2,2,2,0,5,5,5,,,,,,,,,,,,,,,,,,,1163.7804679170004,p,2.6955650839954615,1166.5833818329993,,,,,,,271120,A,2024-11-09_11h07.19.606,EPIDM,2023.1.2,None,
2320.jpg,2791.jpg,4 Points,4 Points,139 Points,PS1_L3.csv,,,,,,,,,,,,,,,,,,,,,,,,,,,,,0,2,2,2,0,6,6,6,,,,,,,,,,,,,,,,,,,1170.7983440829994,q,2.3576287510004477,1173.2302070000005,,,,,,,271120,A,2024-11-09_11h07.19.606,EPIDM,2023.1.2,None,
8311.jpg,4609.jpg,2 Points,2 Points,141 Points,PS1_L3.csv,,,,,,,,,,,,,,,,,,,,,,,,,,,,,0,2,2,2,0,7,7,7,,,,,,,,,,,,,,,,,,,1177.4760205420025,q,2.2397340839961544,1179.7886655420007,,,,,,,271120,A,2024-11-09_11h07.19.606,EPIDM,2023.1.2,None,
9042.jpg,2753.jpg,0 Points,0 Points,141 Points,PS1_L3.csv,,,,,,,,,,,,,,,,,,,,,,,,,,,,,0,2,2,2,0,8,8,8,,,,,,,,,,,,,,,,,,,1184.056002833,p,2.7147370419988874,1186.8362538330039,,,,,,,271120,A,2024-11-09_11h07.19.606,EPIDM,2023.1.2,None,
5471.jpg,7352.jpg,2 Points,2 Points,143 Points,PS1_L3.csv,,,,,,,,,,,,,,,,,,,,,,,,,,,,,0,2,2,2,0,9,9,9,,,,,,,,,,,,,,,,,,,1191.0865345420025,q,1.589954333998321,1192.7424700420015,,,,,,,271120,A,2024-11-09_11h07.19.606,EPIDM,2023.1.2,None,
P222.jpg,9401.jpg,2 Points,2 Points,145 Points,PS1_L3.csv,,,,,,,,,,,,,,,,,,,,,,,,,,,,,0,2,2,2,0,10,10,10,,,,,,,,,,,,,,,,,,,1196.989182792,p,2.174352291993273,1199.263898707999,,,,,,,271120,A,2024-11-09_11h07.19.606,EPIDM,2023.1.2,None,
1610.jpg,F203.jpg,0 Points,0 Points,145 Points,PS1_L3.csv,,,,,,,,,,,,,,,,,,,,,,,,,,,,,0,2,2,2,0,11,11,11,,,,,,,,,,,,,,,,,,,1203.4714454999994,q,1.819412624994584,1205.413000958004,,,,,,,271120,A,2024-11-09_11h07.19.606,EPIDM,2023.1.2,None,
9405.jpg,6250.2.jpg,3 Points,3 Points,148 Points,PS1_L3.csv,,,,,,,,,,,,,,,,,,,,,,,,,,,,,0,2,2,2,0,12,12,12,,,,,,,,,,,,,,,,,,,1209.622100792003,p,1.989553999999771,1211.694535708004,,,,,,,271120,A,2024-11-09_11h07.19.606,EPIDM,2023.1.2,None,
1090.jpg,P217.jpg,5 Points,5 Points,153 Points,PS1_L3.csv,,,,,,,,,,,,,,,,,,,,,,,,,,,,,0,2,2,2,0,13,13,13,,,,,,,,,,,,,,,,,,,1215.925765083004,p,2.15741066699411,1218.1915079169994,,5,1.349224833000335,,,,271120,A,2024-11-09_11h07.19.606,EPIDM,2023.1.2,None,
P233.jpg,3060.jpg,1 Point,1 Point,154 Points,PS1_L3.csv,,,,,,,,,,,,,,,,,,,,,,,,,,,,,0,2,2,2,0,14,14,14,,,,,,,,,,,,,,,,,,,1223.8413658749996,q,2.611208333997638,1226.6015667079992,,,,,,,271120,A,2024-11-09_11h07.19.606,EPIDM,2023.1.2,None,
8040.jpg,7185.jpg,1 Point,1 Point,155 Points,PS1_L3.csv,,,,,,,,,,,,,,,,,,,,,,,,,,,,,0,2,2,2,0,15,15,15,,,,,,,,,,,,,,,,,,,1230.764568999999,q,2.0219668749996345,1232.8631554169988,,,,,,,271120,A,2024-11-09_11h07.19.606,EPIDM,2023.1.2,None,
6550.jpg,9582.jpg,5 Points,5 Points,160 Points,PS1_L3.csv,,,,,,,,,,,,,,,,,,,,,,,,,,,,,0,2,2,2,0,16,16,16,,,,,,,,,,,,,,,,,,,1237.096852458002,p,2.2660770419970504,1239.4389849580039,,,,,,,271120,A,2024-11-09_11h07.19.606,EPIDM,2023.1.2,None,
P077.jpg,A041.jpg,1 Point,1 Point,161 Points,PS1_L3.csv,,,,,,,,,,,,,,,,,,,,,,,,,,,,,0,2,2,2,0,17,17,17,,,,,,,,,,,,,,,,,,,1243.688039624998,q,1.5702800419967389,1245.388802333,,,,,,,271120,A,2024-11-09_11h07.19.606,EPIDM,2023.1.2,None,
4770.jpg,4275.jpg,3 Points,3 Points,164 Points,PS1_L3.csv,,,,,,,,,,,,,,,,,,,,,,,,,,,,,0,2,2,2,0,18,18,18,,,,,,,,,,,,,,,,,,,1249.5576754580034,p,1.859894583998539,1251.5379048329996,,,,,,,271120,A,2024-11-09_11h07.19.606,EPIDM,2023.1.2,None,
9594.jpg,1080.jpg,4 Points,4 Points,168 Points,PS1_L3.csv,,,,,,,,,,,,,,,,,,,,,,,,,,,,,0,2,2,2,0,19,19,19,,,,,,,,,,,,,,,,,,,1255.735181832999,q,1.5714866249982151,1257.3799335420044,,,,,,,271120,A,2024-11-09_11h07.19.606,EPIDM,2023.1.2,None,
2606.jpg,2480.jpg,1 Point,1 Point,169 Points,PS1_L3.csv,,,,,,,,,,,,,,,,,,,,,,,,,,,,,0,2,2,2,0,20,20,20,,,,,,,,,,,,,,,,,,,1261.6135730829992,q,1.589101416990161,1263.2686584170006,,,,,,,271120,A,2024-11-09_11h07.19.606,EPIDM,2023.1.2,None,
1052.jpg,1201.jpg,3 Points,3 Points,172 Points,PS1_L3.csv,,,,,,,,,,,,,,,,,,,,,,,,,,,,,0,2,2,2,0,21,21,21,,,,,,,,,,,,,,,,,,,1267.5040785829988,p,1.3476061670007766,1268.914430249999,,,,,,,271120,A,2024-11-09_11h07.19.606,EPIDM,2023.1.2,None,
F369.jpg,3100.jpg,2 Points,2 Points,174 Points,PS1_L3.csv,,,,,,,,,,,,,,,,,,,,,,,,,,,,,0,2,2,2,0,22,22,22,,,,,,,,,,,,,,,,,,,1273.156697792001,q,1.1578510420004022,1274.4207839579976,,,,,,,271120,A,2024-11-09_11h07.19.606,EPIDM,2023.1.2,None,
2620.jpg,2594.jpg,0 Points,0 Points,174 Points,PS1_L3.csv,,,,,,,,,,,,,,,,,,,,,,,,,,,,,0,2,2,2,0,23,23,23,,,,,,,,,,,,,,,,,,,1278.6399612500027,p,1.6984079589965404,1280.432693374998,,,,1290.8740734169987,space,12.990599541997653,271120,A,2024-11-09_11h07.19.606,EPIDM,2023.1.2,None,
P019.jpg,F158.jpg,3 Points,3 Points,177 Points,PS1_L4.csv,,,,,,,,,,,,,,,,,,,,,,,,,,,,,0,3,3,3,0,0,0,0,,,,,,,,,,,,,,,,,,,1307.1763250420045,p,1.639837708993582,1308.9529190419998,,,,,,,271120,A,2024-11-09_11h07.19.606,EPIDM,2023.1.2,None,
7620.jpg,5395.jpg,1 Point,1 Point,178 Points,PS1_L4.csv,,,,,,,,,,,,,,,,,,,,,,,,,,,,,0,3,3,3,0,1,1,1,,,,,,,,,,,,,,,,,,,1313.1225612920025,q,2.2222402919942397,1315.4472358330022,,1,1.189798957995663,,,,271120,A,2024-11-09_11h07.19.606,EPIDM,2023.1.2,None,
5970.jpg,3300.jpg,0 Points,0 Points,178 Points,PS1_L4.csv,,,,,,,,,,,,,,,,,,,,,,,,,,,,,0,3,3,3,0,2,2,2,,,,,,,,,,,,,,,,,,,1320.909575167003,q,1.957366082999215,1322.9375392920047,,,,,,,271120,A,2024-11-09_11h07.19.606,EPIDM,2023.1.2,None,
5120.jpg,5520.jpg,2 Points,2 Points,180 Points,PS1_L4.csv,,,,,,,,,,,,,,,,,,,,,,,,,,,,,0,3,3,3,0,3,3,3,,,,,,,,,,,,,,,,,,,1327.1819580829979,p,2.067769249995763,1329.327566,,,,,,,271120,A,2024-11-09_11h07.19.606,EPIDM,2023.1.2,None,
9452.jpg,7184.jpg,4 Points,4 Points,184 Points,PS1_L4.csv,,,,,,,,,,,,,,,,,,,,,,,,,,,,,0,3,3,3,0,4,4,4,,,,,,,,,,,,,,,,,,,1333.5682340830026,p,2.0154092509983457,1335.6550040000002,,,,,,,271120,A,2024-11-09_11h07.19.606,EPIDM,2023.1.2,None,
6570.1.jpg,9432.jpg,5 Points,5 Points,189 Points,PS1_L4.csv,,,,,,,,,,,,,,,,,,,,,,,,,,,,,0,3,3,3,0,5,5,5,,,,,,,,,,,,,,,,,,,1339.8859024170015,p,2.0188150009998935,1341.9749520000041,,,,,,,271120,A,2024-11-09_11h07.19.606,EPIDM,2023.1.2,None,
2389.jpg,7320.jpg,0 Points,0 Points,189 Points,PS1_L4.csv,,,,,,,,,,,,,,,,,,,,,,,,,,,,,0,3,3,3,0,6,6,6,,,,,,,,,,,,,,,,,,,1346.2226132080032,q,2.1134500009939075,1348.4069582080047,,,,,,,271120,A,2024-11-09_11h07.19.606,EPIDM,2023.1.2,None,
9330.jpg,3015.jpg,5 Points,5 Points,194 Points,PS1_L4.csv,,,,,,,,,,,,,,,,,,,,,,,,,,,,,0,3,3,3,0,7,7,7,,,,,,,,,,,,,,,,,,,1352.6450037500035,q,2.0747333749968675,1354.788758374998,,,,,,,271120,A,2024-11-09_11h07.19.606,EPIDM,2023.1.2,None,
9560.jpg,3071.jpg,1 Point,1 Point,195 Points,PS1_L4.csv,,,,,,,,,,,,,,,,,,,,,,,,,,,,,0,3,3,3,0,8,8,8,,,,,,,,,,,,,,,,,,,1359.035857875002,q,1.4300549169929582,1360.533356,,,,,,,271120,A,2024-11-09_11h07.19.606,EPIDM,2023.1.2,None,
5994.jpg,5390.jpg,0 Points,0 Points,195 Points,PS1_L4.csv,,,,,,,,,,,,,,,,,,,,,,,,,,,,,0,3,3,3,0,9,9,9,,,,,,,,,,,,,,,,,,,1364.777165749998,p,1.983395875999122,1366.827411541999,,,,,,,271120,A,2024-11-09_11h07.19.606,EPIDM,2023.1.2,None,
2692.jpg,8231.jpg,4 Points,4 Points,199 Points,PS1_L4.csv,,,,,,,,,,,,,,,,,,,,,,,,,,,,,0,3,3,3,0,10,10,10,,,,,,,,,,,,,,,,,,,1371.080886417003,q,2.471501707994321,1373.6059636670034,,,,,,,271120,A,2024-11-09_11h07.19.606,EPIDM,2023.1.2,None,
F174.jpg,9404.jpg,5 Points,5 Points,204 Points,PS1_L4.csv,,,,,,,,,,,,,,,,,,,,,,,,,,,,,0,3,3,3,0,11,11,11,,,,,,,,,,,,,,,,,,,1377.8557964580032,p,1.727949501000694,1379.6930913329998,,,,,,,271120,A,2024-11-09_11h07.19.606,EPIDM,2023.1.2,None,
8010.jpg,2630.jpg,0 Points,0 Points,204 Points,PS1_L4.csv,,,,,,,,,,,,,,,,,,,,,,,,,,,,,0,3,3,3,0,12,12,12,,,,,,,,,,,,,,,,,,,1383.8975053329996,q,1.9020093339931918,1385.873190708,,,,,,,271120,A,2024-11-09_11h07.19.606,EPIDM,2023.1.2,None,
7175.jpg,7490.jpg,2 Points,2 Points,206 Points,PS1_L4.csv,,,,,,,,,,,,,,,,,,,,,,,,,,,,,0,3,3,3,0,13,13,13,,,,,,,,,,,,,,,,,,,1390.1178788329998,q,2.7855807919913786,1392.9857937499983,,2,1.0840647090008133,,,,271120,A,2024-11-09_11h07.19.606,EPIDM,2023.1.2,None,
6561.jpg,1525.jpg,2 Points,2 Points,208 Points,PS1_L4.csv,,,,,,,,,,,,,,,,,,,,,,,,,,,,,0,3,3,3,0,14,14,14,,,,,,,,,,,,,,,,,,,1398.374927249999,q,1.9521492079948075,1400.400189125001,,,,,,,271120,A,2024-11-09_11h07.19.606,EPIDM,2023.1.2,None,
9070.jpg,9420.jpg,2 Points,2 Points,210 Points,PS1_L4.csv,,,,,,,,,,,,,,,,,,,,,,,,,,,,,0,3,3,3,0,15,15,15,,,,,,,,,,,,,,,,,,,1404.642980333003,q,1.5954080839946982,1406.301393624999,,,,,,,271120,A,2024-11-09_11h07.19.606,EPIDM,2023.1.2,None,
2516.jpg,8500.jpg,4 Points,4 Points,214 Points,PS1_L4.csv,,,,,,,,,,,,,,,,,,,,,,,,,,,,,0,3,3,3,0,16,16,16,,,,,,,,,,,,,,,,,,,1410.5670179580047,q,1.2959054169987212,1411.936123792002,,,,,,,271120,A,2024-11-09_11h07.19.606,EPIDM,2023.1.2,None,
9140.jpg,2810.jpg,3 Points,3 Points,217 Points,PS1_L4.csv,,,,,,,,,,,,,,,,,,,,,,,,,,,,,0,3,3,3,0,17,17,17,,,,,,,,,,,,,,,,,,,1416.1820864170004,p,1.465520250996633,1417.7132176250016,,,,,,,271120,A,2024-11-09_11h07.19.606,EPIDM,2023.1.2,None,
7220.jpg,8090.jpg,2 Points,2 Points,219 Points,PS1_L4.csv,,,,,,,,,,,,,,,,,,,,,,,,,,,,,0,3,3,3,0,18,18,18,,,,,,,,,,,,,,,,,,,1421.9571436250044,p,2.082117541998741,1424.1153669170017,,,,,,,271120,A,2024-11-09_11h07.19.606,EPIDM,2023.1.2,None,
2661.jpg,2870.jpg,5 Points,5 Points,224 Points,PS1_L4.csv,,,,,,,,,,,,,,,,,,,,,,,,,,,,,0,3,3,3,0,19,19,19,,,,,,,,,,,,,,,,,,,1428.3595489580039,p,1.758385624991206,1430.1801345830027,,,,,,,271120,A,2024-11-09_11h07.19.606,EPIDM,2023.1.2,None,
6010.jpg,7361.jpg,2 Points,2 Points,226 Points,PS1_L4.csv,,,,,,,,,,,,,,,,,,,,,,,,,,,,,0,3,3,3,0,20,20,20,,,,,,,,,,,,,,,,,,,1434.4343061670006,q,3.1241382919979515,1437.6224985000008,,,,,,,271120,A,2024-11-09_11h07.19.606,EPIDM,2023.1.2,None,
7289.jpg,4534.jpg,0 Points,0 Points,226 Points,PS1_L4.csv,,,,,,,,,,,,,,,,,,,,,,,,,,,,,0,3,3,3,0,21,21,21,,,,,,,,,,,,,,,,,,,1441.8636119170042,q,1.2631437089949031,1443.2057740419987,,,,,,,271120,A,2024-11-09_11h07.19.606,EPIDM,2023.1.2,None,
1310.jpg,3181.jpg,4 Points,4 Points,230 Points,PS1_L4.csv,,,,,,,,,,,,,,,,,,,,,,,,,,,,,0,3,3,3,0,22,22,22,,,,,,,,,,,,,,,,,,,1447.4402011670027,p,1.7017289169962169,1449.212795708001,,,,,,,271120,A,2024-11-09_11h07.19.606,EPIDM,2023.1.2,None,
2383.jpg,1616.jpg,2 Points,2 Points,232 Points,PS1_L4.csv,,,,,,,,,,,,,,,,,,,,,,,,,,,,,0,3,3,3,0,23,23,23,,,,,,,,,,,,,,,,,,,1453.4529389579984,q,1.7852678339913837,1455.3146599169995,,,,1465.7985754170004,space,15.110695666997344,271120,A,2024-11-09_11h07.19.606,EPIDM,2023.1.2,None,
4510.jpg,2230.jpg,5 Points,5 Points,237 Points,PS1_L5.csv,,,,,,,,,,,,,,,,,,,,,,,,,,,,,0,4,4,4,0,0,0,0,,,,,,,,,,,,,,,,,,,1484.2191001669999,q,1.7860764169963659,1486.0847842500007,,,,,,,271120,A,2024-11-09_11h07.19.606,EPIDM,2023.1.2,None,
A025.jpg,1051.jpg,0 Points,0 Points,237 Points,PS1_L5.csv,,,,,,,,,,,,,,,,,,,,,,,,,,,,,0,4,4,4,0,1,1,1,,,,,,,,,,,,,,,,,,,1490.331767417003,p,1.5211312499959604,1491.9711043330026,,0,1.84201175099588,,,,271120,A,2024-11-09_11h07.19.606,EPIDM,2023.1.2,None,
7002.jpg,4660.jpg,4 Points,4 Points,241 Points,PS1_L5.csv,,,,,,,,,,,,,,,,,,,,,,,,,,,,,0,4,4,4,0,2,2,2,,,,,,,,,,,,,,,,,,,1498.1420209580028,q,1.5420238750011777,1499.7684329170006,,,,,,,271120,A,2024-11-09_11h07.19.606,EPIDM,2023.1.2,None,
2900.jpg,1101.jpg,3 Points,3 Points,244 Points,PS1_L5.csv,,,,,,,,,,,,,,,,,,,,,,,,,,,,,0,4,4,4,0,3,3,3,,,,,,,,,,,,,,,,,,,1504.0148589579985,q,1.302328124998894,1505.3957254999987,,,,,,,271120,A,2024-11-09_11h07.19.606,EPIDM,2023.1.2,None,
2485.jpg,7350.jpg,0 Points,0 Points,244 Points,PS1_L5.csv,,,,,,,,,,,,,,,,,,,,,,,,,,,,,0,4,4,4,0,4,4,4,,,,,,,,,,,,,,,,,,,1509.624423375004,q,1.8995714589982526,1511.5787644169977,,,,,,,271120,A,2024-11-09_11h07.19.606,EPIDM,2023.1.2,None,
6242.jpg,F034.jpg,4 Points,4 Points,248 Points,PS1_L5.csv,,,,,,,,,,,,,,,,,,,,,,,,,,,,,0,4,4,4,0,5,5,5,,,,,,,,,,,,,,,,,,,1515.8263382919977,q,2.3782319169986295,1518.323040125004,,,,,,,271120,A,2024-11-09_11h07.19.606,EPIDM,2023.1.2,None,
3170.jpg,6560.jpg,2 Points,2 Points,250 Points,PS1_L5.csv,,,,,,,,,,,,,,,,,,,,,,,,,,,,,0,4,4,4,0,6,6,6,,,,,,,,,,,,,,,,,,,1522.5237672919975,p,1.5761918749994948,1524.169421999999,,,,,,,271120,A,2024-11-09_11h07.19.606,EPIDM,2023.1.2,None,
8033.jpg,7270.jpg,3 Points,3 Points,253 Points,PS1_L5.csv,,,,,,,,,,,,,,,,,,,,,,,,,,,,,0,4,4,4,0,7,7,7,,,,,,,,,,,,,,,,,,,1528.4141066669981,p,1.831108583995956,1530.3233668750036,,,,,,,271120,A,2024-11-09_11h07.19.606,EPIDM,2023.1.2,None,
2597.jpg,5870.jpg,5 Points,5 Points,258 Points,PS1_L5.csv,,,,,,,,,,,,,,,,,,,,,,,,,,,,,0,4,4,4,0,8,8,8,,,,,,,,,,,,,,,,,,,1534.5618808330037,q,1.7351905420000548,1536.3759766250005,,,,,,,271120,A,2024-11-09_11h07.19.606,EPIDM,2023.1.2,None,
6312.jpg,3230.jpg,2 Points,2 Points,260 Points,PS1_L5.csv,,,,,,,,,,,,,,,,,,,,,,,,,,,,,0,4,4,4,0,9,9,9,,,,,,,,,,,,,,,,,,,1540.6066689170038,q,2.2605566259953775,1542.950953917003,,,,,,,271120,A,2024-11-09_11h07.19.606,EPIDM,2023.1.2,None,
3130.jpg,3500.jpg,4 Points,4 Points,264 Points,PS1_L5.csv,,,,,,,,,,,,,,,,,,,,,,,,,,,,,0,4,4,4,0,10,10,10,,,,,,,,,,,,,,,,,,,1547.1797845420006,p,1.383256374996563,1548.6425736250021,,,,,,,271120,A,2024-11-09_11h07.19.606,EPIDM,2023.1.2,None,
2749.jpg,7282.jpg,3 Points,3 Points,267 Points,PS1_L5.csv,,,,,,,,,,,,,,,,,,,,,,,,,,,,,0,4,4,4,0,11,11,11,,,,,,,,,,,,,,,,,,,1552.8776896670024,q,1.725763291993644,1554.7008555830034,,,,,,,271120,A,2024-11-09_11h07.19.606,EPIDM,2023.1.2,None,
5300.jpg,2372.jpg,1 Point,1 Point,268 Points,PS1_L5.csv,,,,,,,,,,,,,,,,,,,,,,,,,,,,,0,4,4,4,0,12,12,12,,,,,,,,,,,,,,,,,,,1558.9132404170014,q,1.4335854579985607,1560.4172767920027,,,,,,,271120,A,2024-11-09_11h07.19.606,EPIDM,2023.1.2,None,
6510.jpg,A074.jpg,2 Points,2 Points,270 Points,PS1_L5.csv,,,,,,,,,,,,,,,,,,,,,,,,,,,,,0,4,4,4,0,13,13,13,,,,,,,,,,,,,,,,,,,1564.6562510000003,p,1.8981360829930054,1566.6765289579998,,2,1.2273114589988836,,,,271120,A,2024-11-09_11h07.19.606,EPIDM,2023.1.2,None,
2260.jpg,2830.jpg,5 Points,5 Points,275 Points,PS1_L5.csv,,,,,,,,,,,,,,,,,,,,,,,,,,,,,0,4,4,4,0,14,14,14,,,,,,,,,,,,,,,,,,,1572.2091292920013,p,1.6351232509987312,1573.9184709580004,,,,,,,271120,A,2024-11-09_11h07.19.606,EPIDM,2023.1.2,None,
2710.jpg,9252.jpg,1 Point,1 Point,276 Points,PS1_L5.csv,,,,,,,,,,,,,,,,,,,,,,,,,,,,,0,4,4,4,0,15,15,15,,,,,,,,,,,,,,,,,,,1578.1501839999983,None,,,1581.8579823750042,,,,,,271120,A,2024-11-09_11h07.19.606,EPIDM,2023.1.2,None,
3064.jpg,3168.jpg,4 Points,4 Points,280 Points,PS1_L5.csv,,,,,,,,,,,,,,,,,,,,,,,,,,,,,0,4,4,4,0,16,16,16,,,,,,,,,,,,,,,,,,,1585.649835958,p,1.9531533749905066,1587.6604607920017,,,,,,,271120,A,2024-11-09_11h07.19.606,EPIDM,2023.1.2,None,
1640.jpg,5531.jpg,3 Points,3 Points,283 Points,PS1_L5.csv,,,,,,,,,,,,,,,,,,,,,,,,,,,,,0,4,4,4,0,17,17,17,,,,,,,,,,,,,,,,,,,1591.9119513750047,q,1.3224623339920072,1593.3131862500013,,,,,,,271120,A,2024-11-09_11h07.19.606,EPIDM,2023.1.2,None,
3530.jpg,6213.jpg,1 Point,1 Point,284 Points,PS1_L5.csv,,,,,,,,,,,,,,,,,,,,,,,,,,,,,0,4,4,4,0,18,18,18,,,,,,,,,,,,,,,,,,,1597.542058375002,p,1.7477545419969829,1599.3637409170042,,,,,,,271120,A,2024-11-09_11h07.19.606,EPIDM,2023.1.2,None,
9090.jpg,7580.jpg,3 Points,3 Points,287 Points,PS1_L5.csv,,,,,,,,,,,,,,,,,,,,,,,,,,,,,0,4,4,4,0,19,19,19,,,,,,,,,,,,,,,,,,,1603.5988566250016,p,1.9152649169991491,1605.5951016250037,,,,,,,271120,A,2024-11-09_11h07.19.606,EPIDM,2023.1.2,None,
8230.jpg,2682.jpg,5 Points,5 Points,292 Points,PS1_L5.csv,,,,,,,,,,,,,,,,,,,,,,,,,,,,,0,4,4,4,0,20,20,20,,,,,,,,,,,,,,,,,,,1609.8396414579984,p,1.578098999998474,1611.485138666998,,,,,,,271120,A,2024-11-09_11h07.19.606,EPIDM,2023.1.2,None,
9592.jpg,1300.jpg,2 Points,2 Points,294 Points,PS1_L5.csv,,,,,,,,,,,,,,,,,,,,,,,,,,,,,0,4,4,4,0,21,21,21,,,,,,,,,,,,,,,,,,,1615.725744125004,q,1.707796041999245,1617.5091717079995,,,,,,,271120,A,2024-11-09_11h07.19.606,EPIDM,2023.1.2,None,
2490.jpg,2590.jpg,4 Points,4 Points,298 Points,PS1_L5.csv,,,,,,,,,,,,,,,,,,,,,,,,,,,,,0,4,4,4,0,22,22,22,,,,,,,,,,,,,,,,,,,1621.7563419580038,p,1.9820600839957478,1623.808000541998,,,,,,,271120,A,2024-11-09_11h07.19.606,EPIDM,2023.1.2,None,
2190.jpg,7503.jpg,2 Points,2 Points,300 Points,PS1_L5.csv,,,,,,,,,,,,,,,,,,,,,,,,,,,,,0,4,4,4,0,23,23,23,,,,,,,,,,,,,,,,,,,1628.0597126670036,q,1.2775588329968741,1629.4118137080004,,,,1639.8480615000008,space,8.344257666998601,271120,A,2024-11-09_11h07.19.606,EPIDM,2023.1.2,None,
1930.jpg,9008.jpg,1 Point,1 Point,301 Points,PS1_L6.csv,,,,,,,,,,,,,,,,,,,,,,,,,,,,,0,5,5,5,0,0,0,0,,,,,,,,,,,,,,,,,,,1651.5087014169985,q,1.1421803339981125,1652.7291328749998,,,,,,,271120,A,2024-11-09_11h07.19.606,EPIDM,2023.1.2,None,
4613.jpg,2720.jpg,4 Points,4 Points,305 Points,PS1_L6.csv,,,,,,,,,,,,,,,,,,,,,,,,,,,,,0,5,5,5,0,1,1,1,,,,,,,,,,,,,,,,,,,1656.965227624998,q,1.827453791993321,1658.875449457999,,4,1.4116222509910585,,,,271120,A,2024-11-09_11h07.19.606,EPIDM,2023.1.2,None,
3280.jpg,9270.jpg,0 Points,0 Points,305 Points,PS1_L6.csv,,,,,,,,,,,,,,,,,,,,,,,,,,,,,0,5,5,5,0,2,2,2,,,,,,,,,,,,,,,,,,,1664.576613541998,q,1.6876759579972713,1666.3293919170028,,,,,,,271120,A,2024-11-09_11h07.19.606,EPIDM,2023.1.2,None,
6800.jpg,9190.jpg,0 Points,0 Points,305 Points,PS1_L6.csv,,,,,,,,,,,,,,,,,,,,,,,,,,,,,0,5,5,5,0,3,3,3,,,,,,,,,,,,,,,,,,,1670.5731529580007,p,1.187468791998981,1671.8179435420025,,,,,,,271120,A,2024-11-09_11h07.19.606,EPIDM,2023.1.2,None,
5600.jpg,9080.jpg,5 Points,5 Points,310 Points,PS1_L6.csv,,,,,,,,,,,,,,,,,,,,,,,,,,,,,0,5,5,5,0,4,4,4,,,,,,,,,,,,,,,,,,,1676.064228000003,q,1.1845808340003714,1677.3177244580002,,,,,,,271120,A,2024-11-09_11h07.19.606,EPIDM,2023.1.2,None,
P211.jpg,9041.jpg,4 Points,4 Points,314 Points,PS1_L6.csv,,,,,,,,,,,,,,,,,,,,,,,,,,,,,0,5,5,5,0,5,5,5,,,,,,,,,,,,,,,,,,,1681.5577656250025,p,2.02704620899749,1683.6922082919991,,,,,,,271120,A,2024-11-09_11h07.19.606,EPIDM,2023.1.2,None,
5200.jpg,5020.jpg,0 Points,0 Points,314 Points,PS1_L6.csv,,,,,,,,,,,,,,,,,,,,,,,,,,,,,0,5,5,5,0,6,6,6,,,,,,,,,,,,,,,,,,,1687.8936775420007,q,1.2175852919972385,1689.1840898750015,,,,,,,271120,A,2024-11-09_11h07.19.606,EPIDM,2023.1.2,None,
1850.jpg,5623.jpg,5 Points,5 Points,319 Points,PS1_L6.csv,,,,,,,,,,,,,,,,,,,,,,,,,,,,,0,5,5,5,0,7,7,7,,,,,,,,,,,,,,,,,,,1693.4267878329993,p,1.4531899589928798,1694.9672077080031,,,,,,,271120,A,2024-11-09_11h07.19.606,EPIDM,2023.1.2,None,
9440.jpg,6350.jpg,4 Points,4 Points,323 Points,PS1_L6.csv,,,,,,,,,,,,,,,,,,,,,,,,,,,,,0,5,5,5,0,8,8,8,,,,,,,,,,,,,,,,,,,1699.2106432920045,p,2.285156375000952,1701.5624471670017,,,,,,,271120,A,2024-11-09_11h07.19.606,EPIDM,2023.1.2,None,
5990.jpg,5780.jpg,3 Points,3 Points,326 Points,PS1_L6.csv,,,,,,,,,,,,,,,,,,,,,,,,,,,,,0,5,5,5,0,9,9,9,,,,,,,,,,,,,,,,,,,1705.8163686250045,p,1.1274842509956216,1707.0074486250014,,,,,,,271120,A,2024-11-09_11h07.19.606,EPIDM,2023.1.2,None,
6244.jpg,9265.jpg,0 Points,0 Points,326 Points,PS1_L6.csv,,,,,,,,,,,,,,,,,,,,,,,,,,,,,0,5,5,5,0,10,10,10,,,,,,,,,,,,,,,,,,,1711.2469540829989,q,2.1836738329948275,1713.4961758330028,,,,,,,271120,A,2024-11-09_11h07.19.606,EPIDM,2023.1.2,None,
5000.jpg,8180.jpg,4 Points,4 Points,330 Points,PS1_L6.csv,,,,,,,,,,,,,,,,,,,,,,,,,,,,,0,5,5,5,0,11,11,11,,,,,,,,,,,,,,,,,,,1717.743135292003,q,1.8400302509980975,1719.6627873329999,,,,,,,271120,A,2024-11-09_11h07.19.606,EPIDM,2023.1.2,None,
5982.jpg,5260.jpg,5 Points,5 Points,335 Points,PS1_L6.csv,,,,,,,,,,,,,,,,,,,,,,,,,,,,,0,5,5,5,0,12,12,12,,,,,,,,,,,,,,,,,,,1723.893393667,p,1.3536212499966496,1725.3281657500047,,,,,,,271120,A,2024-11-09_11h07.19.606,EPIDM,2023.1.2,None,
1301.jpg,1070.jpg,2 Points,2 Points,337 Points,PS1_L6.csv,,,,,,,,,,,,,,,,,,,,,,,,,,,,,0,5,5,5,0,13,13,13,,,,,,,,,,,,,,,,,,,1729.5563270420025,q,1.1072261669978616,1730.7338431669996,,2,1.1079381259987713,,,,271120,A,2024-11-09_11h07.19.606,EPIDM,2023.1.2,None,
7920.jpg,9102.jpg,3 Points,3 Points,340 Points,PS1_L6.csv,,,,,,,,,,,,,,,,,,,,,,,,,,,,,0,5,5,5,0,14,14,14,,,,,,,,,,,,,,,,,,,1736.149674417,p,1.3927084589959122,1737.6250700419987,,,,,,,271120,A,2024-11-09_11h07.19.606,EPIDM,2023.1.2,None,
5455.jpg,5220.jpg,0 Points,0 Points,340 Points,PS1_L6.csv,,,,,,,,,,,,,,,,,,,,,,,,,,,,,0,5,5,5,0,15,15,15,,,,,,,,,,,,,,,,,,,1741.867880124999,q,1.5560467499963124,1743.4878713750004,,,,,,,271120,A,2024-11-09_11h07.19.606,EPIDM,2023.1.2,None,
3350.jpg,3210.jpg,1 Point,1 Point,341 Points,PS1_L6.csv,,,,,,,,,,,,,,,,,,,,,,,,,,,,,0,5,5,5,0,16,16,16,,,,,,,,,,,,,,,,,,,1747.742193375001,q,1.8887941669963766,1749.6854716669986,,,,,,,271120,A,2024-11-09_11h07.19.606,EPIDM,2023.1.2,None,
2560.jpg,5270.jpg,4 Points,4 Points,345 Points,PS1_L6.csv,,,,,,,,,,,,,,,,,,,,,,,,,,,,,0,5,5,5,0,17,17,17,,,,,,,,,,,,,,,,,,,1753.9346754580038,p,1.3756116250006016,1755.3758194580005,,,,,,,271120,A,2024-11-09_11h07.19.606,EPIDM,2023.1.2,None,
9584.jpg,3400.jpg,2 Points,2 Points,347 Points,PS1_L6.csv,,,,,,,,,,,,,,,,,,,,,,,,,,,,,0,5,5,5,0,18,18,18,,,,,,,,,,,,,,,,,,,1759.6120860829978,q,1.4110249169971212,1761.1127198329996,,,,,,,271120,A,2024-11-09_11h07.19.606,EPIDM,2023.1.2,None,
5760.jpg,1602.jpg,1 Point,1 Point,348 Points,PS1_L6.csv,,,,,,,,,,,,,,,,,,,,,,,,,,,,,0,5,5,5,0,19,19,19,,,,,,,,,,,,,,,,,,,1765.3485833329978,p,1.6343716670016875,1767.0577304580002,,,,,,,271120,A,2024-11-09_11h07.19.606,EPIDM,2023.1.2,None,
7230.jpg,7570.jpg,5 Points,5 Points,353 Points,PS1_L6.csv,,,,,,,,,,,,,,,,,,,,,,,,,,,,,0,5,5,5,0,20,20,20,,,,,,,,,,,,,,,,,,,1771.3052100420027,q,2.053452499996638,1773.4316043330036,,,,,,,271120,A,2024-11-09_11h07.19.606,EPIDM,2023.1.2,None,
1022.jpg,6930.jpg,1 Point,1 Point,354 Points,PS1_L6.csv,,,,,,,,,,,,,,,,,,,,,,,,,,,,,0,5,5,5,0,21,21,21,,,,,,,,,,,,,,,,,,,1777.670875249998,p,1.45491320900328,1779.2000526249976,,,,,,,271120,A,2024-11-09_11h07.19.606,EPIDM,2023.1.2,None,
8340.jpg,7546.jpg,2 Points,2 Points,356 Points,PS1_L6.csv,,,,,,,,,,,,,,,,,,,,,,,,,,,,,0,5,5,5,0,22,22,22,,,,,,,,,,,,,,,,,,,1783.4331499580003,q,1.501032583990309,1784.9961967080017,,,,,,,271120,A,2024-11-09_11h07.19.606,EPIDM,2023.1.2,None,
6243.jpg,2752.jpg,2 Points,2 Points,358 Points,PS1_L6.csv,,,,,,,,,,,,,,,,,,,,,,,,,,,,,0,5,5,5,0,23,23,23,,,,,,,,,,,,,,,,,,,1789.2368827500031,p,1.4493407089976245,1790.7631208750026,,,,1801.222313541999,space,7.502646333996381,271120,A,2024-11-09_11h07.19.606,EPIDM,2023.1.2,None,
7280.jpg,7160.jpg,0 Points,0 Points,358 Points,PS1_L7.csv,,,,,,,,,,,,,,,,,,,,,,,,,,,,,0,6,6,6,0,0,0,0,,,,,,,,,,,,,,,,,,,1812.033385667004,q,1.0517718749979394,1813.163107708002,,,,,,,271120,A,2024-11-09_11h07.19.606,EPIDM,2023.1.2,None,
2580.jpg,8300.jpg,3 Points,3 Points,361 Points,PS1_L7.csv,,,,,,,,,,,,,,,,,,,,,,,,,,,,,0,6,6,6,0,1,1,1,,,,,,,,,,,,,,,,,,,1817.3836805000028,p,1.5658431670017308,1819.0321347920035,,3,1.21888779199071,,,,271120,A,2024-11-09_11h07.19.606,EPIDM,2023.1.2,None,
5972.jpg,6838.jpg,5 Points,5 Points,366 Points,PS1_L7.csv,,,,,,,,,,,,,,,,,,,,,,,,,,,,,0,6,6,6,0,2,2,2,,,,,,,,,,,,,,,,,,,1824.553352832998,q,1.8913510419952217,1826.5153294170013,,,,,,,271120,A,2024-11-09_11h07.19.606,EPIDM,2023.1.2,None,
5621.jpg,5534.jpg,3 Points,3 Points,369 Points,PS1_L7.csv,,,,,,,,,,,,,,,,,,,,,,,,,,,,,0,6,6,6,0,3,3,3,,,,,,,,,,,,,,,,,,,1830.7571663330018,q,1.6703800839968608,1832.5048535000024,,,,,,,271120,A,2024-11-09_11h07.19.606,EPIDM,2023.1.2,None,
8480.jpg,6410.jpg,1 Point,1 Point,370 Points,PS1_L7.csv,,,,,,,,,,,,,,,,,,,,,,,,,,,,,0,6,6,6,0,4,4,4,,,,,,,,,,,,,,,,,,,1836.7467254580042,p,1.7138892089933506,1838.5196157500031,,,,,,,271120,A,2024-11-09_11h07.19.606,EPIDM,2023.1.2,None,
2702.jpg,1590.jpg,5 Points,5 Points,375 Points,PS1_L7.csv,,,,,,,,,,,,,,,,,,,,,,,,,,,,,0,6,6,6,0,5,5,5,,,,,,,,,,,,,,,,,,,1842.7634882920029,p,1.5284528329939349,1844.3726783329985,,,,,,,271120,A,2024-11-09_11h07.19.606,EPIDM,2023.1.2,None,
1275.jpg,3150.jpg,1 Point,1 Point,376 Points,PS1_L7.csv,,,,,,,,,,,,,,,,,,,,,,,,,,,,,0,6,6,6,0,6,6,6,,,,,,,,,,,,,,,,,,,1848.6231067920016,q,1.5809109999972861,1850.2612435420015,,,,,,,271120,A,2024-11-09_11h07.19.606,EPIDM,2023.1.2,None,
1910.jpg,2575.jpg,2 Points,2 Points,378 Points,PS1_L7.csv,,,,,,,,,,,,,,,,,,,,,,,,,,,,,0,6,6,6,0,7,7,7,,,,,,,,,,,,,,,,,,,1854.5133074580008,q,1.9711426249996293,1856.5410214580043,,,,,,,271120,A,2024-11-09_11h07.19.606,EPIDM,2023.1.2,None,
2518.jpg,2381.jpg,1 Point,1 Point,382 Points,PS1_L7.csv,,,,,,,,,,,,,,,,,,,,,,,,,,,,,0,6,6,6,0,8,8,8,,,,,,,,,,,,,,,,,,,1860.7892456250047,p,1.5435659590002615,1862.3958234579986,,,,,,,271120,A,2024-11-09_11h07.19.606,EPIDM,2023.1.2,None,
6250.1.jpg,3301.jpg,0 Points,0 Points,382 Points,PS1_L7.csv,,,,,,,,,,,,,,,,,,,,,,,,,,,,,0,6,6,6,0,9,9,9,,,,,,,,,,,,,,,,,,,1866.6545568330039,q,2.1336305839940906,1868.851934541999,,,,,,,271120,A,2024-11-09_11h07.19.606,EPIDM,2023.1.2,None,
7234.jpg,5533.jpg,3 Points,3 Points,385 Points,PS1_L7.csv,,,,,,,,,,,,,,,,,,,,,,,,,,,,,0,6,6,6,0,10,10,10,,,,,,,,,,,,,,,,,,,1873.0893109579993,q,2.3473479589956696,1875.5047475419997,,,,,,,271120,A,2024-11-09_11h07.19.606,EPIDM,2023.1.2,None,
9920.jpg,3068.jpg,5 Points,5 Points,390 Points,PS1_L7.csv,,,,,,,,,,,,,,,,,,,,,,,,,,,,,0,6,6,6,0,11,11,11,,,,,,,,,,,,,,,,,,,1879.7429093329993,q,1.9006998329932685,1881.7105915420034,,,,,,,271120,A,2024-11-09_11h07.19.606,EPIDM,2023.1.2,None,
3022.jpg,2352.2.jpg,0 Points,0 Points,390 Points,PS1_L7.csv,,,,,,,,,,,,,,,,,,,,,,,,,,,,,0,6,6,6,0,12,12,12,,,,,,,,,,,,,,,,,,,1885.9541074579975,q,2.393956249994517,1888.422172874998,,,,,,,271120,A,2024-11-09_11h07.19.606,EPIDM,2023.1.2,None,
8250.jpg,1313.jpg,4 Points,4 Points,394 Points,PS1_L7.csv,,,,,,,,,,,,,,,,,,,,,,,,,,,,,0,6,6,6,0,13,13,13,,,,,,,,,,,,,,,,,,,1892.6679502920015,p,1.702903042001708,1894.4462502500028,,4,1.2035749169954215,,,,271120,A,2024-11-09_11h07.19.606,EPIDM,2023.1.2,None,
2690.jpg,9360.jpg,1 Point,1 Point,395 Points,PS1_L7.csv,,,,,,,,,,,,,,,,,,,,,,,,,,,,,0,6,6,6,0,14,14,14,,,,,,,,,,,,,,,,,,,1899.968959124999,p,1.8578970419912366,1901.908385542003,,,,,,,271120,A,2024-11-09_11h07.19.606,EPIDM,2023.1.2,None,
9570.jpg,6610.jpg,0 Points,0 Points,395 Points,PS1_L7.csv,,,,,,,,,,,,,,,,,,,,,,,,,,,,,0,6,6,6,0,15,15,15,,,,,,,,,,,,,,,,,,,1906.1422454580024,p,1.5236191249932745,1907.7507702919975,,,,,,,271120,A,2024-11-09_11h07.19.606,EPIDM,2023.1.2,None,
3110.jpg,9000.jpg,4 Points,4 Points,399 Points,PS1_L7.csv,,,,,,,,,,,,,,,,,,,,,,,,,,,,,0,6,6,6,0,16,16,16,,,,,,,,,,,,,,,,,,,1911.9977538750027,p,2.037749166993308,1914.0969664580043,,,,,,,271120,A,2024-11-09_11h07.19.606,EPIDM,2023.1.2,None,
8465.jpg,8400.jpg,1 Point,1 Point,400 Points,PS1_L7.csv,,,,,,,,,,,,,,,,,,,,,,,,,,,,,0,6,6,6,0,17,17,17,,,,,,,,,,,,,,,,,,,1918.3420983329997,q,1.7397352919942932,1920.153675417001,,,,,,,271120,A,2024-11-09_11h07.19.606,EPIDM,2023.1.2,None,
1540.jpg,2600.jpg,1 Point,1 Point,401 Points,PS1_L7.csv,,,,,,,,,,,,,,,,,,,,,,,,,,,,,0,6,6,6,0,18,18,18,,,,,,,,,,,,,,,,,,,1924.3965576249975,q,1.390223916998366,1925.848821958003,,,,,,,271120,A,2024-11-09_11h07.19.606,EPIDM,2023.1.2,None,
2276.jpg,6540.jpg,3 Points,3 Points,404 Points,PS1_L7.csv,,,,,,,,,,,,,,,,,,,,,,,,,,,,,0,6,6,6,0,19,19,19,,,,,,,,,,,,,,,,,,,1930.1088325829987,q,2.0531350419987575,1932.2232587920007,,,,,,,271120,A,2024-11-09_11h07.19.606,EPIDM,2023.1.2,None,
5030.jpg,1670.jpg,3 Points,3 Points,407 Points,PS1_L7.csv,,,,,,,,,,,,,,,,,,,,,,,,,,,,,0,6,6,6,0,20,20,20,,,,,,,,,,,,,,,,,,,1936.462349458001,q,1.2755846669970197,1937.8107513330033,,,,,,,271120,A,2024-11-09_11h07.19.606,EPIDM,2023.1.2,None,
9040.jpg,1120.jpg,3 Points,3 Points,410 Points,PS1_L7.csv,,,,,,,,,,,,,,,,,,,,,,,,,,,,,0,6,6,6,0,21,21,21,,,,,,,,,,,,,,,,,,,1942.0553535,p,1.4272407079988625,1943.5471715000022,,,,,,,271120,A,2024-11-09_11h07.19.606,EPIDM,2023.1.2,None,
3220.jpg,3063.jpg,5 Points,5 Points,415 Points,PS1_L7.csv,,,,,,,,,,,,,,,,,,,,,,,,,,,,,0,6,6,6,0,22,22,22,,,,,,,,,,,,,,,,,,,1947.7856792919993,q,2.3209197920004954,1950.1768973330036,,,,,,,271120,A,2024-11-09_11h07.19.606,EPIDM,2023.1.2,None,
8117.jpg,2880.jpg,5 Points,5 Points,420 Points,PS1_L7.csv,,,,,,,,,,,,,,,,,,,,,,,,,,,,,0,6,6,6,0,23,23,23,,,,,,,,,,,,,,,,,,,1954.4203152499977,q,1.5333571669907542,1956.0301965830004,,,,1966.5411523750008,space,6.564428333993419,271120,A,2024-11-09_11h07.19.606,EPIDM,2023.1.2,None,
4274.jpg,8160.jpg,2 Points,2 Points,422 Points,PS1_L8.csv,,,,,,,,,,,,,,,,,,,,,,,,,,,,,0,7,7,7,0,0,0,0,,,,,,,,,,,,,,,,,,,1976.4124171670046,p,0.9318225419992814,1977.4238154170016,,,,,,,271120,A,2024-11-09_11h07.19.606,EPIDM,2023.1.2,None,
6314.jpg,O022.jpg,2 Points,2 Points,424 Points,PS1_L8.csv,,,,,,,,,,,,,,,,,,,,,,,,,,,,,0,7,7,7,0,1,1,1,,,,,,,,,,,,,,,,,,,1981.6568480420028,q,2.3045025009996607,1984.0573751249976,,2,0.8554322079944541,,,,271120,A,2024-11-09_11h07.19.606,EPIDM,2023.1.2,None,
1560.jpg,8185.jpg,0 Points,0 Points,424 Points,PS1_L8.csv,,,,,,,,,,,,,,,,,,,,,,,,,,,,,0,7,7,7,0,2,2,2,,,,,,,,,,,,,,,,,,,1989.2333299169986,p,1.6401909580017673,1990.9367060420045,,,,,,,271120,A,2024-11-09_11h07.19.606,EPIDM,2023.1.2,None,
2850.jpg,4532.jpg,3 Points,3 Points,427 Points,PS1_L8.csv,,,,,,,,,,,,,,,,,,,,,,,,,,,,,0,7,7,7,0,3,3,3,,,,,,,,,,,,,,,,,,,1995.173327083001,q,1.3554827089974424,1996.6002776669993,,,,,,,271120,A,2024-11-09_11h07.19.606,EPIDM,2023.1.2,None,
1390.jpg,9421.jpg,2 Points,2 Points,429 Points,PS1_L8.csv,,,,,,,,,,,,,,,,,,,,,,,,,,,,,0,7,7,7,0,4,4,4,,,,,,,,,,,,,,,,,,,2000.8359978750013,q,1.6516126259957673,2002.566548625,,,,,,,271120,A,2024-11-09_11h07.19.606,EPIDM,2023.1.2,None,
9800.jpg,9433.jpg,1 Point,1 Point,430 Points,PS1_L8.csv,,,,,,,,,,,,,,,,,,,,,,,,,,,,,0,7,7,7,0,5,5,5,,,,,,,,,,,,,,,,,,,2006.8192838750037,p,2.525847041993984,2009.4238647079983,,,,,,,271120,A,2024-11-09_11h07.19.606,EPIDM,2023.1.2,None,
8161.jpg,1900.jpg,4 Points,4 Points,434 Points,PS1_L8.csv,,,,,,,,,,,,,,,,,,,,,,,,,,,,,0,7,7,7,0,6,6,6,,,,,,,,,,,,,,,,,,,2013.6620966670016,q,2.233958374999929,2015.9715378330002,,,,,,,271120,A,2024-11-09_11h07.19.606,EPIDM,2023.1.2,None,
1112.jpg,6230.jpg,3 Points,3 Points,437 Points,PS1_L8.csv,,,,,,,,,,,,,,,,,,,,,,,,,,,,,0,7,7,7,0,7,7,7,,,,,,,,,,,,,,,,,,,2020.2185836670033,q,2.133898791995307,2022.421067125004,,,,,,,271120,A,2024-11-09_11h07.19.606,EPIDM,2023.1.2,None,
1111.jpg,1040.jpg,0 Points,0 Points,437 Points,PS1_L8.csv,,,,,,,,,,,,,,,,,,,,,,,,,,,,,0,7,7,7,0,8,8,8,,,,,,,,,,,,,,,,,,,2026.6623063330044,p,1.3704926670034183,2028.1133261249997,,,,,,,271120,A,2024-11-09_11h07.19.606,EPIDM,2023.1.2,None,
5622.jpg,9156.jpg,4 Points,4 Points,441 Points,PS1_L8.csv,,,,,,,,,,,,,,,,,,,,,,,,,,,,,0,7,7,7,0,9,9,9,,,,,,,,,,,,,,,,,,,2032.3526275830009,p,2.1194150839946815,2034.5419793330002,,,,,,,271120,A,2024-11-09_11h07.19.606,EPIDM,2023.1.2,None,
2681.jpg,7100.jpg,3 Points,3 Points,444 Points,PS1_L8.csv,,,,,,,,,,,,,,,,,,,,,,,,,,,,,0,7,7,7,0,10,10,10,,,,,,,,,,,,,,,,,,,2038.7840978750028,p,1.5116085839981679,2040.3661278750005,,,,,,,271120,A,2024-11-09_11h07.19.606,EPIDM,2023.1.2,None,
6821.jpg,9622.jpg,2 Points,2 Points,446 Points,PS1_L8.csv,,,,,,,,,,,,,,,,,,,,,,,,,,,,,0,7,7,7,0,11,11,11,,,,,,,,,,,,,,,,,,,2044.601580542003,q,3.1973982919953414,2047.8610101669983,,,,,,,271120,A,2024-11-09_11h07.19.606,EPIDM,2023.1.2,None,
9490.jpg,9210.jpg,1 Point,1 Point,447 Points,PS1_L8.csv,,,,,,,,,,,,,,,,,,,,,,,,,,,,,0,7,7,7,0,12,12,12,,,,,,,,,,,,,,,,,,,2052.1055528750003,p,2.5972179169984884,2054.764051416998,,,,,,,271120,A,2024-11-09_11h07.19.606,EPIDM,2023.1.2,None,
4605.jpg,1510.jpg,4 Points,4 Points,451 Points,PS1_L8.csv,,,,,,,,,,,,,,,,,,,,,,,,,,,,,0,7,7,7,0,13,13,13,,,,,,,,,,,,,,,,,,,2059.0112910419994,p,1.683149083997705,2060.765648875,,4,1.3483565839997027,,,,271120,A,2024-11-09_11h07.19.606,EPIDM,2023.1.2,None,
2240.jpg,5010.jpg,5 Points,5 Points,456 Points,PS1_L8.csv,,,,,,,,,,,,,,,,,,,,,,,,,,,,,0,7,7,7,0,14,14,14,,,,,,,,,,,,,,,,,,,2066.435086042002,q,1.3147636669964413,2067.833321124999,,,,,,,271120,A,2024-11-09_11h07.19.606,EPIDM,2023.1.2,None,
3102.jpg,F032.jpg,1 Point,1 Point,457 Points,PS1_L8.csv,,,,,,,,,,,,,,,,,,,,,,,,,,,,,0,7,7,7,0,15,15,15,,,,,,,,,,,,,,,,,,,2072.067635958003,p,1.2029128749927622,2073.384596666998,,,,,,,271120,A,2024-11-09_11h07.19.606,EPIDM,2023.1.2,None,
4100.jpg,6570.2.jpg,3 Points,3 Points,460 Points,PS1_L8.csv,,,,,,,,,,,,,,,,,,,,,,,,,,,,,0,7,7,7,0,16,16,16,,,,,,,,,,,,,,,,,,,2077.5930450829983,q,1.4697759999980917,2079.1789897499984,,,,,,,271120,A,2024-11-09_11h07.19.606,EPIDM,2023.1.2,None,
2650.jpg,4531.jpg,5 Points,5 Points,465 Points,PS1_L8.csv,,,,,,,,,,,,,,,,,,,,,,,,,,,,,0,7,7,7,0,17,17,17,,,,,,,,,,,,,,,,,,,2083.374424499998,q,1.5912764169988804,2085.043703042,,,,,,,271120,A,2024-11-09_11h07.19.606,EPIDM,2023.1.2,None,
9320.jpg,9007.jpg,0 Points,0 Points,465 Points,PS1_L8.csv,,,,,,,,,,,,,,,,,,,,,,,,,,,,,0,7,7,7,0,18,18,18,,,,,,,,,,,,,,,,,,,2089.2833318330013,p,2.565694208999048,2091.918640249998,,,,,,,271120,A,2024-11-09_11h07.19.606,EPIDM,2023.1.2,None,
8460.jpg,8330.jpg,0 Points,0 Points,465 Points,PS1_L8.csv,,,,,,,,,,,,,,,,,,,,,,,,,,,,,0,7,7,7,0,19,19,19,,,,,,,,,,,,,,,,,,,2096.1670322920036,p,1.664758125996741,2097.8990062080047,,,,,,,271120,A,2024-11-09_11h07.19.606,EPIDM,2023.1.2,None,
2570.jpg,5500.jpg,3 Points,3 Points,468 Points,PS1_L8.csv,,,,,,,,,,,,,,,,,,,,,,,,,,,,,0,7,7,7,0,20,20,20,,,,,,,,,,,,,,,,,,,2102.140499125002,p,1.6018482919971575,2103.8157090000022,,,,,,,271120,A,2024-11-09_11h07.19.606,EPIDM,2023.1.2,None,
6190.jpg,3120.jpg,5 Points,5 Points,473 Points,PS1_L8.csv,,,,,,,,,,,,,,,,,,,,,,,,,,,,,0,7,7,7,0,21,21,21,,,,,,,,,,,,,,,,,,,2108.0569915419983,q,1.0609427499948652,2109.197438791998,,,,,,,271120,A,2024-11-09_11h07.19.606,EPIDM,2023.1.2,None,
2200.jpg,4598.jpg,1 Point,1 Point,474 Points,PS1_L8.csv,,,,,,,,,,,,,,,,,,,,,,,,,,,,,0,7,7,7,0,22,22,22,,,,,,,,,,,,,,,,,,,2113.4296527920014,q,1.9993615009952919,2115.5108827500007,,,,,,,271120,A,2024-11-09_11h07.19.606,EPIDM,2023.1.2,None,
1303.jpg,2000.jpg,0 Points,0 Points,474 Points,PS1_L8.csv,,,,,,,,,,,,,,,,,,,,,,,,,,,,,0,7,7,7,0,23,23,23,,,,,,,,,,,,,,,,,,,2119.7429963329996,p,1.2794654589961283,2121.0967436670035,,,,2131.556342750002,space,13.713056082997355,271120,A,2024-11-09_11h07.19.606,EPIDM,2023.1.2,None,
9010.jpg,9253.jpg,0 Points,0 Points,474 Points,PS1_L9.csv,,,,,,,,,,,,,,,,,,,,,,,,,,,,,0,8,8,8,0,0,0,0,,,,,,,,,,,,,,,,,,,2148.5749279169977,q,1.0059177090006415,2149.6646582920002,,,,,,,271120,A,2024-11-09_11h07.19.606,EPIDM,2023.1.2,None,
1302.jpg,2700.jpg,3 Points,3 Points,477 Points,PS1_L9.csv,,,,,,,,,,,,,,,,,,,,,,,,,,,,,0,8,8,8,0,1,1,1,,,,,,,,,,,,,,,,,,,2153.899311207999,q,1.8178863329958403,2155.788804333002,,3,0.9374360840010922,,,,271120,A,2024-11-09_11h07.19.606,EPIDM,2023.1.2,None,
2030.jpg,2495.jpg,0 Points,0 Points,477 Points,PS1_L9.csv,,,,,,,,,,,,,,,,,,,,,,,,,,,,,0,8,8,8,0,2,2,2,,,,,,,,,,,,,,,,,,,2161.039531000002,q,1.1251385840005241,2162.2368387919996,,,,,,,271120,A,2024-11-09_11h07.19.606,EPIDM,2023.1.2,None,
2110.jpg,7260.jpg,5 Points,5 Points,482 Points,PS1_L9.csv,,,,,,,,,,,,,,,,,,,,,,,,,,,,,0,8,8,8,0,3,3,3,,,,,,,,,,,,,,,,,,,2166.4827429170036,p,1.8493875420026598,2168.4053685420004,,,,,,,271120,A,2024-11-09_11h07.19.606,EPIDM,2023.1.2,None,
2053.jpg,9415.jpg,4 Points,4 Points,486 Points,PS1_L9.csv,,,,,,,,,,,,,,,,,,,,,,,,,,,,,0,8,8,8,0,4,4,4,,,,,,,,,,,,,,,,,,,2172.639948750002,p,2.1898262919930858,2174.897565583,,,,,,,271120,A,2024-11-09_11h07.19.606,EPIDM,2023.1.2,None,
6211.jpg,9611.jpg,3 Points,3 Points,489 Points,PS1_L9.csv,,,,,,,,,,,,,,,,,,,,,,,,,,,,,0,8,8,8,0,5,5,5,,,,,,,,,,,,,,,,,,,2179.144572833,p,2.195689082996978,2181.405824082998,,,,,,,271120,A,2024-11-09_11h07.19.606,EPIDM,2023.1.2,None,
8350.jpg,7190.jpg,5 Points,5 Points,494 Points,PS1_L9.csv,,,,,,,,,,,,,,,,,,,,,,,,,,,,,0,8,8,8,0,6,6,6,,,,,,,,,,,,,,,,,,,2185.682181875003,q,1.6174464169962448,2187.3801838330037,,,,,,,271120,A,2024-11-09_11h07.19.606,EPIDM,2023.1.2,None,
9340.jpg,6910.jpg,0 Points,0 Points,494 Points,PS1_L9.csv,,,,,,,,,,,,,,,,,,,,,,,,,,,,,0,8,8,8,0,7,7,7,,,,,,,,,,,,,,,,,,,2191.619637750002,q,2.4248071670008358,2194.1154886670047,,,,,,,271120,A,2024-11-09_11h07.19.606,EPIDM,2023.1.2,None,
4533.jpg,2385.jpg,3 Points,3 Points,497 Points,PS1_L9.csv,,,,,,,,,,,,,,,,,,,,,,,,,,,,,0,8,8,8,0,8,8,8,,,,,,,,,,,,,,,,,,,2198.347964958004,q,1.5757799169950886,2200.0072571249984,,,,,,,271120,A,2024-11-09_11h07.19.606,EPIDM,2023.1.2,None,
5940.jpg,9411.jpg,0 Points,0 Points,497 Points,PS1_L9.csv,,,,,,,,,,,,,,,,,,,,,,,,,,,,,0,8,8,8,0,9,9,9,,,,,,,,,,,,,,,,,,,2204.2420727499994,p,1.9294555419983226,2206.242785333001,,,,,,,271120,A,2024-11-09_11h07.19.606,EPIDM,2023.1.2,None,
2220.jpg,2010.jpg,5 Points,5 Points,502 Points,PS1_L9.csv,,,,,,,,,,,,,,,,,,,,,,,,,,,,,0,8,8,8,0,10,10,10,,,,,,,,,,,,,,,,,,,2210.4805493750027,p,1.3311655419965973,2211.884851667004,,,,,,,271120,A,2024-11-09_11h07.19.606,EPIDM,2023.1.2,None,
9500.jpg,6360.jpg,1 Point,1 Point,503 Points,PS1_L9.csv,,,,,,,,,,,,,,,,,,,,,,,,,,,,,0,8,8,8,0,11,11,11,,,,,,,,,,,,,,,,,,,2216.1209903749987,p,1.2019539169923519,2217.3989483330006,,,,,,,271120,A,2024-11-09_11h07.19.606,EPIDM,2023.1.2,None,
2092.jpg,2210.jpg,0 Points,0 Points,503 Points,PS1_L9.csv,,,,,,,,,,,,,,,,,,,,,,,,,,,,,0,8,8,8,0,12,12,12,,,,,,,,,,,,,,,,,,,2221.6350793750025,p,1.9192963759996928,2223.624137167004,,,,,,,271120,A,2024-11-09_11h07.19.606,EPIDM,2023.1.2,None,
9530.jpg,9220.jpg,1 Point,1 Point,504 Points,PS1_L9.csv,,,,,,,,,,,,,,,,,,,,,,,,,,,,,0,8,8,8,0,13,13,13,,,,,,,,,,,,,,,,,,,2227.877058124999,p,2.205954708995705,2230.150297,,1,1.2082719589961926,,,,271120,A,2024-11-09_11h07.19.606,EPIDM,2023.1.2,None,
9254.jpg,9290.jpg,2 Points,2 Points,506 Points,PS1_L9.csv,,,,,,,,,,,,,,,,,,,,,,,,,,,,,0,8,8,8,0,14,14,14,,,,,,,,,,,,,,,,,,,2235.665465500002,p,1.6651530000017374,2237.3892790000027,,,,,,,271120,A,2024-11-09_11h07.19.606,EPIDM,2023.1.2,None,
4608.jpg,8320.jpg,1 Point,1 Point,507 Points,PS1_L9.csv,,,,,,,,,,,,,,,,,,,,,,,,,,,,,0,8,8,8,0,15,15,15,,,,,,,,,,,,,,,,,,,2241.639836041999,p,2.4051866669979063,2244.1136812080003,,,,,,,271120,A,2024-11-09_11h07.19.606,EPIDM,2023.1.2,None,
7237.jpg,8510.jpg,4 Points,4 Points,511 Points,PS1_L9.csv,,,,,,,,,,,,,,,,,,,,,,,,,,,,,0,8,8,8,0,16,16,16,,,,,,,,,,,,,,,,,,,2248.359530499998,q,1.3317941249988507,2249.7661460419986,,,,,,,271120,A,2024-11-09_11h07.19.606,EPIDM,2023.1.2,None,
9417.jpg,6530.jpg,1 Point,1 Point,512 Points,PS1_L9.csv,,,,,,,,,,,,,,,,,,,,,,,,,,,,,0,8,8,8,0,17,17,17,,,,,,,,,,,,,,,,,,,2254.0088680830013,q,1.6026369169921963,2255.6828603750037,,,,,,,271120,A,2024-11-09_11h07.19.606,EPIDM,2023.1.2,None,
6831.jpg,2141.jpg,5 Points,5 Points,517 Points,PS1_L9.csv,,,,,,,,,,,,,,,,,,,,,,,,,,,,,0,8,8,8,0,18,18,18,,,,,,,,,,,,,,,,,,,2259.9258459580014,p,2.1161399170014192,2262.1127449580017,,,,,,,271120,A,2024-11-09_11h07.19.606,EPIDM,2023.1.2,None,
4689.jpg,7009.jpg,5 Points,5 Points,522 Points,PS1_L9.csv,,,,,,,,,,,,,,,,,,,,,,,,,,,,,0,8,8,8,0,19,19,19,,,,,,,,,,,,,,,,,,,2266.3499009580046,p,1.3399713749968214,2267.7676810830017,,,,,,,271120,A,2024-11-09_11h07.19.606,EPIDM,2023.1.2,None,
2751.jpg,6313.jpg,3 Points,3 Points,525 Points,PS1_L9.csv,,,,,,,,,,,,,,,,,,,,,,,,,,,,,0,8,8,8,0,20,20,20,,,,,,,,,,,,,,,,,,,2272.008625417002,q,2.2489752499968745,2274.3485025420014,,,,,,,271120,A,2024-11-09_11h07.19.606,EPIDM,2023.1.2,None,
4621.jpg,3550.jpg,2 Points,2 Points,527 Points,PS1_L9.csv,,,,,,,,,,,,,,,,,,,,,,,,,,,,,0,8,8,8,0,21,21,21,,,,,,,,,,,,,,,,,,,2278.5836384580034,q,1.258380749997741,2279.9021610420023,,,,,,,271120,A,2024-11-09_11h07.19.606,EPIDM,2023.1.2,None,
8220.jpg,2410.jpg,4 Points,4 Points,531 Points,PS1_L9.csv,,,,,,,,,,,,,,,,,,,,,,,,,,,,,0,8,8,8,0,22,22,22,,,,,,,,,,,,,,,,,,,2284.1531840419993,q,1.7133440830002655,2285.934815958004,,,,,,,271120,A,2024-11-09_11h07.19.606,EPIDM,2023.1.2,None,
1113.jpg,1240.jpg,3 Points,3 Points,534 Points,PS1_L9.csv,,,,,,,,,,,,,,,,,,,,,,,,,,,,,0,8,8,8,0,23,23,23,,,,,,,,,,,,,,,,,,,2290.1823310830005,p,1.282612249997328,2291.5485962079983,,,,2302.0083259169987,space,12.872752791990933,271120,A,2024-11-09_11h07.19.606,EPIDM,2023.1.2,None,
2750.jpg,9050.jpg,4 Points,4 Points,538 Points,PS1_L10.csv,,,,,,,,,,,,,,,,,,,,,,,,,,,,,0,9,9,9,0,0,0,0,,,,,,,,,,,,,,,,,,,2318.1876375830034,p,1.22076658399601,2319.481103750004,,,,,,,271120,A,2024-11-09_11h07.19.606,EPIDM,2023.1.2,None,
2312.jpg,2722.jpg,1 Points,1 Points,539 Points,PS1_L10.csv,,,,,,,,,,,,,,,,,,,,,,,,,,,,,0,9,9,9,0,1,1,1,,,,,,,,,,,,,,,,,,,2323.7184289170036,q,1.6266378340005758,2325.408151125004,,1,1.0854852919947007,,,,271120,A,2024-11-09_11h07.19.606,EPIDM,2023.1.2,None,
8232.jpg,4279.jpg,5 Points,5 Points,544 Points,PS1_L10.csv,,,,,,,,,,,,,,,,,,,,,,,,,,,,,0,9,9,9,0,2,2,2,,,,,,,,,,,,,,,,,,,2330.804933625004,q,1.9796004589952645,2332.8609376669992,,,,,,,271120,A,2024-11-09_11h07.19.606,EPIDM,2023.1.2,None,
6000.jpg,6836.jpg,4 Points,4 Points,548 Points,PS1_L10.csv,,,,,,,,,,,,,,,,,,,,,,,,,,,,,0,9,9,9,0,3,3,3,,,,,,,,,,,,,,,,,,,2337.0945127500017,q,1.6415825419971952,2338.8043557920028,,,,,,,271120,A,2024-11-09_11h07.19.606,EPIDM,2023.1.2,None,
4536.jpg,2280.jpg,4 Points,4 Points,552 Points,PS1_L10.csv,,,,,,,,,,,,,,,,,,,,,,,,,,,,,0,9,9,9,0,4,4,4,,,,,,,,,,,,,,,,,,,2343.0473757500004,p,1.3997539169940865,2344.5240017079996,,,,,,,271120,A,2024-11-09_11h07.19.606,EPIDM,2023.1.2,None,
6241.jpg,9561.jpg,3 Points,3 Points,555 Points,PS1_L10.csv,,,,,,,,,,,,,,,,,,,,,,,,,,,,,0,9,9,9,0,5,5,5,,,,,,,,,,,,,,,,,,,2348.767781708004,p,1.4320295009965776,2350.276703292002,,,,,,,271120,A,2024-11-09_11h07.19.606,EPIDM,2023.1.2,None,
1942.jpg,2890.jpg,1 Points,1 Points,556 Points,PS1_L10.csv,,,,,,,,,,,,,,,,,,,,,,,,,,,,,0,9,9,9,0,6,6,6,,,,,,,,,,,,,,,,,,,2354.5114612920006,q,1.6727945419988828,2356.2409172500047,,,,,,,271120,A,2024-11-09_11h07.19.606,EPIDM,2023.1.2,None,
6020.jpg,6300.jpg,2 Points,2 Points,558 Points,PS1_L10.csv,,,,,,,,,,,,,,,,,,,,,,,,,,,,,0,9,9,9,0,7,7,7,,,,,,,,,,,,,,,,,,,2360.485894958001,p,1.5538111670030048,2362.1009035000025,,,,,,,271120,A,2024-11-09_11h07.19.606,EPIDM,2023.1.2,None,
7170.jpg,2170.jpg,2 Points,2 Points,560 Points,PS1_L10.csv,,,,,,,,,,,,,,,,,,,,,,,,,,,,,0,9,9,9,0,8,8,8,,,,,,,,,,,,,,,,,,,2366.344149333003,p,1.5998222920025,2368.0077122500006,,,,,,,271120,A,2024-11-09_11h07.19.606,EPIDM,2023.1.2,None,
5510.jpg,2514.jpg,5 Points,5 Points,565 Points,PS1_L10.csv,,,,,,,,,,,,,,,,,,,,,,,,,,,,,0,9,9,9,0,9,9,9,,,,,,,,,,,,,,,,,,,2372.252291458004,p,2.147438041996793,2374.4687524580004,,,,,,,271120,A,2024-11-09_11h07.19.606,EPIDM,2023.1.2,None,
6840.jpg,3080.jpg,1 Points,1 Points,566 Points,PS1_L10.csv,,,,,,,,,,,,,,,,,,,,,,,,,,,,,0,9,9,9,0,10,10,10,,,,,,,,,,,,,,,,,,,2378.7143581249984,q,1.3888468329969328,2380.1689747920027,,,,,,,271120,A,2024-11-09_11h07.19.606,EPIDM,2023.1.2,None,
7195.jpg,2487.jpg,2 Points,2 Points,568 Points,PS1_L10.csv,,,,,,,,,,,,,,,,,,,,,,,,,,,,,0,9,9,9,0,11,11,11,,,,,,,,,,,,,,,,,,,2384.4248208330027,p,1.6130687089971616,2386.121971917004,,,,,,,271120,A,2024-11-09_11h07.19.606,EPIDM,2023.1.2,None,
5971.jpg,9912.jpg,5 Points,5 Points,573 Points,PS1_L10.csv,,,,,,,,,,,,,,,,,,,,,,,,,,,,,0,9,9,9,0,12,12,12,,,,,,,,,,,,,,,,,,,2390.3629969579997,q,2.051973541994812,2392.475803333,,,,,,,271120,A,2024-11-09_11h07.19.606,EPIDM,2023.1.2,None,
2520.jpg,8503.jpg,2 Points,2 Points,575 Points,PS1_L10.csv,,,,,,,,,,,,,,,,,,,,,,,,,,,,,0,9,9,9,0,13,13,13,,,,,,,,,,,,,,,,,,,2396.7300688329997,p,1.660530834000383,2398.4715445830007,,2,1.1504138759992202,,,,271120,A,2024-11-09_11h07.19.606,EPIDM,2023.1.2,None,
5480.jpg,8200.jpg,4 Points,4 Points,579 Points,PS1_L10.csv,,,,,,,,,,,,,,,,,,,,,,,,,,,,,0,9,9,9,0,14,14,14,,,,,,,,,,,,,,,,,,,2403.926754250002,q,1.095669291993545,2405.1035239580015,,,,,,,271120,A,2024-11-09_11h07.19.606,EPIDM,2023.1.2,None,
6370.jpg,1270.jpg,4 Points,4 Points,583 Points,PS1_L10.csv,,,,,,,,,,,,,,,,,,,,,,,,,,,,,0,9,9,9,0,15,15,15,,,,,,,,,,,,,,,,,,,2409.342602208002,p,1.0556977499945788,2410.4764802499994,,,,,,,271120,A,2024-11-09_11h07.19.606,EPIDM,2023.1.2,None,
5130.jpg,1810.jpg,3 Points,3 Points,586 Points,PS1_L10.csv,,,,,,,,,,,,,,,,,,,,,,,,,,,,,0,9,9,9,0,16,16,16,,,,,,,,,,,,,,,,,,,2414.713071833001,p,1.4456266249981127,2416.243881333001,,,,,,,271120,A,2024-11-09_11h07.19.606,EPIDM,2023.1.2,None,
4250.jpg,7060.jpg,5 Points,5 Points,591 Points,PS1_L10.csv,,,,,,,,,,,,,,,,,,,,,,,,,,,,,0,9,9,9,0,17,17,17,,,,,,,,,,,,,,,,,,,2420.4718041669985,q,1.4228295419961796,2421.9677822079975,,,,,,,271120,A,2024-11-09_11h07.19.606,EPIDM,2023.1.2,None,
9373.jpg,9410.jpg,0 Points,0 Points,591 Points,PS1_L10.csv,,,,,,,,,,,,,,,,,,,,,,,,,,,,,0,9,9,9,0,18,18,18,,,,,,,,,,,,,,,,,,,2426.2022252079987,p,1.9319657509986428,2428.207946374998,,,,,,,271120,A,2024-11-09_11h07.19.606,EPIDM,2023.1.2,None,
2221.jpg,2270.jpg,2 Points,2 Points,593 Points,PS1_L10.csv,,,,,,,,,,,,,,,,,,,,,,,,,,,,,0,9,9,9,0,19,19,19,,,,,,,,,,,,,,,,,,,2432.442690666998,p,1.443287166992377,2433.9492332500013,,,,,,,271120,A,2024-11-09_11h07.19.606,EPIDM,2023.1.2,None,
1650.jpg,2130.jpg,1 Points,1 Points,594 Points,PS1_L10.csv,,,,,,,,,,,,,,,,,,,,,,,,,,,,,0,9,9,9,0,20,20,20,,,,,,,,,,,,,,,,,,,2438.1854056250013,q,1.5170235010009492,2439.770067833,,,,,,,271120,A,2024-11-09_11h07.19.606,EPIDM,2023.1.2,None,
1280.jpg,9402.jpg,2 Points,2 Points,596 Points,PS1_L10.csv,,,,,,,,,,,,,,,,,,,,,,,,,,,,,0,9,9,9,0,21,21,21,,,,,,,,,,,,,,,,,,,2444.0076782079996,q,1.7655186249976396,2445.8319165830035,,,,,,,271120,A,2024-11-09_11h07.19.606,EPIDM,2023.1.2,None,
2214.jpg,4500.jpg,3 Points,3 Points,599 Points,PS1_L10.csv,,,,,,,,,,,,,,,,,,,,,,,,,,,,,0,9,9,9,0,22,22,22,,,,,,,,,,,,,,,,,,,2450.0823172500022,q,1.49907366700063,2451.661148332998,,,,,,,271120,A,2024-11-09_11h07.19.606,EPIDM,2023.1.2,None,
7284.jpg,8021.jpg,4 Points,4 Points,603 Points,PS1_L10.csv,,,,,,,,,,,,,,,,,,,,,,,,,,,,,0,9,9,9,0,23,23,23,,,,,,,,,,,,,,,,,,,2455.901003500003,p,1.5520714999947813,2457.525302125003,,,,2467.9980446250047,space,12.93405175099906,271120,A,2024-11-09_11h07.19.606,EPIDM,2023.1.2,None,
