L_Scene,R_Scene,Points_L,Points_R,PtTotal,blockFile,Instructions_Loop.thisRepN,Instructions_Loop.thisTrialN,Instructions_Loop.thisN,Instructions_Loop.thisIndex,Redo_Instructions_Loop.thisRepN,Redo_Instructions_Loop.thisTrialN,Redo_Instructions_Loop.thisN,Redo_Instructions_Loop.thisIndex,Practice_Encoding_Loop.thisRepN,Practice_Encoding_Loop.thisTrialN,Practice_Encoding_Loop.thisN,Practice_Encoding_Loop.thisIndex,Practice_Response_Fail_Loop.thisRepN,Practice_Response_Fail_Loop.thisTrialN,Practice_Response_Fail_Loop.thisN,Practice_Response_Fail_Loop.thisIndex,Practice_FB_Loop.thisRepN,Practice_FB_Loop.thisTrialN,Practice_FB_Loop.thisN,Practice_FB_Loop.thisIndex,Practice_Attention_Loop.thisRepN,Practice_Attention_Loop.thisTrialN,Practice_Attention_Loop.thisN,Practice_Attention_Loop.thisIndex,Practice_EncBrk_Loop.thisRepN,Practice_EncBrk_Loop.thisTrialN,Practice_EncBrk_Loop.thisN,Practice_EncBrk_Loop.thisIndex,Encoding_Loop.thisRepN,Encoding_Loop.thisTrialN,Encoding_Loop.thisN,Encoding_Loop.thisIndex,EncStim_Loop.thisRepN,EncStim_Loop.thisTrialN,EncStim_Loop.thisN,EncStim_Loop.thisIndex,Response_Fail_Loop.thisRepN,Response_Fail_Loop.thisTrialN,Response_Fail_Loop.thisN,Response_Fail_Loop.thisIndex,FB_Loop.thisRepN,FB_Loop.thisTrialN,FB_Loop.thisN,FB_Loop.thisIndex,Attention_Loop.thisRepN,Attention_Loop.thisTrialN,Attention_Loop.thisN,Attention_Loop.thisIndex,EncBrk_Loop.thisRepN,EncBrk_Loop.thisTrialN,EncBrk_Loop.thisN,EncBrk_Loop.thisIndex,Transition_Enc.keys,Transition_Enc.rt,Encoding_Resp.started,Encoding_Resp.keys,Encoding_Resp.rt,R_Point_FB_Stim.started,Attn_resp.keys,Attn_resp.rt,Progress_Tracker.started,EncBrk_Resp.keys,EncBrk_Resp.rt,Encoding_Resp.stopped,participant,Group,date,expName,psychopyVersion,frameRate,
,,,,,,,,,,,,,,,,,,,,,,,,,,,,,,,,,,,,,,,,,,,,,,,,,,,,,,,,,,space,6.458050665998599,,,,,,,,,,,272533,B,2024-11-09_16h22.02.766,EPIDM,2023.1.2,None,
A060.jpg,F041.jpg,5 Points,5 Points,5 Points,,,,,,,,,,0,0,0,0,,,,,,,,,,,,,,,,,,,,,,,,,,,,,,,,,,,,,,,,,,,1062.9653017090022,q,3.477473708000616,1066.6024216680016,,,,,,,272533,B,2024-11-09_16h22.02.766,EPIDM,2023.1.2,None,
O161.jpg,1812.jpg,2 Points,2 Points,7 Points,,,,,,,,,,0,1,1,1,,,,,,,,,,,,,,,,,,,,,,,,,,,,,,,,,,,,,,,,,,,1070.7705122510015,q,1.1196870830026455,1072.034536168001,,,,,,,272533,B,2024-11-09_16h22.02.766,EPIDM,2023.1.2,None,
O013.jpg,A001.jpg,3 Points,3 Points,10 Points,,,,,,,,,,0,2,2,2,,,,,,,,,,,,,,,,,,,,,,,,,,,,,,,,,,,,,,,,,,,1076.2111717510052,p,1.5351388740018592,1077.9237624180023,,,,,,,272533,B,2024-11-09_16h22.02.766,EPIDM,2023.1.2,None,
P036.jpg,F273.jpg,5 Points,5 Points,15 Points,,,,,,,,,,0,3,3,3,,,,,,,,,,,,,,,,,,,,,,,,,,,,,,,,,,,,,,,,,,,1082.0496841260028,q,2.0477495829982217,1084.2637953759986,,,,,,,272533,B,2024-11-09_16h22.02.766,EPIDM,2023.1.2,None,
L130.jpg,2393.jpg,0 Points,0 Points,15 Points,,,,,,,,,,0,4,4,4,,,,,,,,,,,,,,,,,,,,,,,,,,,,,,,,,,,,,,,,,,,1088.4113224180037,q,1.7349089159979485,1090.2845026680006,0,4.017180666000058,,,,,272533,B,2024-11-09_16h22.02.766,EPIDM,2023.1.2,None,
F279.jpg,P033.jpg,3 Points,3 Points,18 Points,,,,,,,,,,0,5,5,5,,,,,,,,,,,,,,,,,,,,,,,,,,,,,,,,,,,,,,,,,,,1098.5944432510005,q,2.134337998999399,1100.8719178760002,,,,,,,272533,B,2024-11-09_16h22.02.766,EPIDM,2023.1.2,None,
A104.jpg,2593.jpg,2 Points,2 Points,20 Points,,,,,,,,,,0,6,6,6,,,,,,,,,,,,,,,,,,,,,,,,,,,,,,,,,,,,,,,,,,,1105.0620000010022,q,2.411908250003762,1107.6058806680012,,,,,,,272533,B,2024-11-09_16h22.02.766,EPIDM,2023.1.2,None,
2598.jpg,2605.jpg,0 Points,0 Points,20 Points,,,,,,,,,,0,7,7,7,,,,,,,,,,,,,,,,,,,,,,,,,,,,,,,,,,,,,,,,,,,1111.779124667999,p,1.0298349580043578,1112.907593543001,,,,,,,272533,B,2024-11-09_16h22.02.766,EPIDM,2023.1.2,None,
L005.jpg,O011.jpg,1 Points,1 Points,21 Points,,,,,,,,,,0,8,8,8,,,,,,,,,,,,,,,,,,,,,,,,,,,,,,,,,,,,,,,,,,,1117.1284629180009,q,1.7533842910052044,1119.026741501002,,,,,,,272533,B,2024-11-09_16h22.02.766,EPIDM,2023.1.2,None,
8186.jpg,F078.jpg,2 Points,2 Points,23 Points,,,,,,,,,,0,9,9,9,,,,,,,,,,,,,,,,,,,,,,,,,,,,,,,,,,,,,,,,,,,1123.2117830839998,q,1.758102207997581,1125.1023610839984,2,1.8703848750010366,1137.2048341260015,space,25.458961625001393,,272533,B,2024-11-09_16h22.02.766,EPIDM,2023.1.2,None,
,,,,,,,,,,,,,,,,,,,,,,,,,,,,,,,,,,,,,,,,,,,,,,,,,,,,,,,,,,space,2.475990916005685,,,,,,,,,,,272533,B,2024-11-09_16h22.02.766,EPIDM,2023.1.2,None,
7284.jpg,8021.jpg,4 Points,4 Points,4 Points,PS2_L1.csv,,,,,,,,,,,,,,,,,,,,,,,,,,,,,0,0,0,0,0,0,0,0,,,,,,,,,,,,,,,,,,,1175.8530082510042,p,1.0273961249986314,1176.9758689180017,,,,,,,272533,B,2024-11-09_16h22.02.766,EPIDM,2023.1.2,None,
2214.jpg,4500.jpg,3 Points,3 Points,7 points,PS2_L1.csv,,,,,,,,,,,,,,,,,,,,,,,,,,,,,0,0,0,0,0,1,1,1,,,,,,,,,,,,,,,,,,,1181.2004915010039,q,1.1193542500041076,1182.3959360840017,3,2.1749843750003492,,,,,272533,B,2024-11-09_16h22.02.766,EPIDM,2023.1.2,None,
1280.jpg,9402.jpg,2 Points,2 Points,9 points,PS2_L1.csv,,,,,,,,,,,,,,,,,,,,,,,,,,,,,0,0,0,0,0,2,2,2,,,,,,,,,,,,,,,,,,,1188.8796227089988,p,2.280398041002627,1191.2292382509986,,,,,,,272533,B,2024-11-09_16h22.02.766,EPIDM,2023.1.2,None,
1650.jpg,2130.jpg,1 Points,1 Points,10 points,PS2_L1.csv,,,,,,,,,,,,,,,,,,,,,,,,,,,,,0,0,0,0,0,3,3,3,,,,,,,,,,,,,,,,,,,1195.4673845840007,q,0.8206068739964394,1196.363896709001,,,,,,,272533,B,2024-11-09_16h22.02.766,EPIDM,2023.1.2,None,
2221.jpg,2270.jpg,2 Points,2 Points,12 points,PS2_L1.csv,,,,,,,,,,,,,,,,,,,,,,,,,,,,,0,0,0,0,0,4,4,4,,,,,,,,,,,,,,,,,,,1200.599853667998,q,1.016086957999505,1201.681355876004,,,,,,,272533,B,2024-11-09_16h22.02.766,EPIDM,2023.1.2,None,
9373.jpg,9410.jpg,0 Points,0 Points,12 points,PS2_L1.csv,,,,,,,,,,,,,,,,,,,,,,,,,,,,,0,0,0,0,0,5,5,5,,,,,,,,,,,,,,,,,,,1205.9357435010024,p,2.007861624995712,1208.0121110840046,,,,,,,272533,B,2024-11-09_16h22.02.766,EPIDM,2023.1.2,None,
4250.jpg,7060.jpg,5 Points,5 Points,17 points,PS2_L1.csv,,,,,,,,,,,,,,,,,,,,,,,,,,,,,0,0,0,0,0,6,6,6,,,,,,,,,,,,,,,,,,,1212.2591040840052,q,1.2201056239937316,1213.555581667999,,,,,,,272533,B,2024-11-09_16h22.02.766,EPIDM,2023.1.2,None,
5130.jpg,1810.jpg,3 Points,3 Points,20 points,PS2_L1.csv,,,,,,,,,,,,,,,,,,,,,,,,,,,,,0,0,0,0,0,7,7,7,,,,,,,,,,,,,,,,,,,1217.7890931680013,p,0.9465977489962825,1218.812724084004,,,,,,,272533,B,2024-11-09_16h22.02.766,EPIDM,2023.1.2,None,
6370.jpg,1270.jpg,4 Points,4 Points,24 points,PS2_L1.csv,,,,,,,,,,,,,,,,,,,,,,,,,,,,,0,0,0,0,0,8,8,8,,,,,,,,,,,,,,,,,,,1223.0353010430044,q,0.9971258330042474,1224.1180635429992,,,,,,,272533,B,2024-11-09_16h22.02.766,EPIDM,2023.1.2,None,
5480.jpg,8200.jpg,4 Points,4 Points,28 points,PS2_L1.csv,,,,,,,,,,,,,,,,,,,,,,,,,,,,,0,0,0,0,0,9,9,9,,,,,,,,,,,,,,,,,,,1228.3520008339983,q,1.6160557490002248,1230.0455485010025,,,,,,,272533,B,2024-11-09_16h22.02.766,EPIDM,2023.1.2,None,
2520.jpg,8503.jpg,2 Points,2 Points,30 points,PS2_L1.csv,,,,,,,,,,,,,,,,,,,,,,,,,,,,,0,0,0,0,0,10,10,10,,,,,,,,,,,,,,,,,,,1234.279140833998,p,0.8723142489980091,1235.2349907509997,,,,,,,272533,B,2024-11-09_16h22.02.766,EPIDM,2023.1.2,None,
5971.jpg,9912.jpg,5 Points,5 Points,35 points,PS2_L1.csv,,,,,,,,,,,,,,,,,,,,,,,,,,,,,0,0,0,0,0,11,11,11,,,,,,,,,,,,,,,,,,,1239.4706268340015,q,1.2884885820021736,1240.8221752509999,,,,,,,272533,B,2024-11-09_16h22.02.766,EPIDM,2023.1.2,None,
7195.jpg,2487.jpg,2 Points,2 Points,37 points,PS2_L1.csv,,,,,,,,,,,,,,,,,,,,,,,,,,,,,0,0,0,0,0,12,12,12,,,,,,,,,,,,,,,,,,,1245.0707909589983,p,0.8805001240034471,1246.0142623339998,,,,,,,272533,B,2024-11-09_16h22.02.766,EPIDM,2023.1.2,None,
6840.jpg,3080.jpg,1 Points,1 Points,38 points,PS2_L1.csv,,,,,,,,,,,,,,,,,,,,,,,,,,,,,0,0,0,0,0,13,13,13,,,,,,,,,,,,,,,,,,,1250.2520009590007,q,1.4033816659939475,1251.731599001003,1,2.8850808330025757,,,,,272533,B,2024-11-09_16h22.02.766,EPIDM,2023.1.2,None,
5510.jpg,2514.jpg,5 Points,5 Points,43 points,PS2_L1.csv,,,,,,,,,,,,,,,,,,,,,,,,,,,,,0,0,0,0,0,14,14,14,,,,,,,,,,,,,,,,,,,1258.9230413760015,None,,,,,,,,1262.6225571260002,272533,B,2024-11-09_16h22.02.766,EPIDM,2023.1.2,None,
7170.jpg,2170.jpg,2 Points,2 Points,45 points,PS2_L1.csv,,,,,,,,,,,,,,,,,,,,,,,,,,,,,0,0,0,0,0,15,15,15,,,,,,,,,,,,,,,,,,,1266.4356962930033,p,0.8274412079990725,1267.3324428339984,,,,,,,272533,B,2024-11-09_16h22.02.766,EPIDM,2023.1.2,None,
6020.jpg,6300.jpg,2 Points,2 Points,47 points,PS2_L1.csv,,,,,,,,,,,,,,,,,,,,,,,,,,,,,0,0,0,0,0,16,16,16,,,,,,,,,,,,,,,,,,,1271.5722335430037,p,1.7699325409994344,1273.4104771679995,,,,,,,272533,B,2024-11-09_16h22.02.766,EPIDM,2023.1.2,None,
1942.jpg,2890.jpg,1 Points,1 Points,48 points,PS2_L1.csv,,,,,,,,,,,,,,,,,,,,,,,,,,,,,0,0,0,0,0,17,17,17,,,,,,,,,,,,,,,,,,,1277.6758876259992,q,1.1640186660006293,1278.9107521680053,,,,,,,272533,B,2024-11-09_16h22.02.766,EPIDM,2023.1.2,None,
6241.jpg,9561.jpg,3 Points,3 Points,51 points,PS2_L1.csv,,,,,,,,,,,,,,,,,,,,,,,,,,,,,0,0,0,0,0,18,18,18,,,,,,,,,,,,,,,,,,,1283.1546124590022,q,1.8849360819949652,1285.112618584004,,,,,,,272533,B,2024-11-09_16h22.02.766,EPIDM,2023.1.2,None,
4536.jpg,2280.jpg,4 Points,4 Points,55 points,PS2_L1.csv,,,,,,,,,,,,,,,,,,,,,,,,,,,,,0,0,0,0,0,19,19,19,,,,,,,,,,,,,,,,,,,1289.3511451259983,q,1.0886900830009836,1290.507505501002,,,,,,,272533,B,2024-11-09_16h22.02.766,EPIDM,2023.1.2,None,
6000.jpg,6836.jpg,4 Points,4 Points,59 points,PS2_L1.csv,,,,,,,,,,,,,,,,,,,,,,,,,,,,,0,0,0,0,0,20,20,20,,,,,,,,,,,,,,,,,,,1294.7560725840012,q,1.3143190409973613,1296.133663626002,,,,,,,272533,B,2024-11-09_16h22.02.766,EPIDM,2023.1.2,None,
8232.jpg,4279.jpg,5 Points,5 Points,64 points,PS2_L1.csv,,,,,,,,,,,,,,,,,,,,,,,,,,,,,0,0,0,0,0,21,21,21,,,,,,,,,,,,,,,,,,,1300.3920395430032,p,1.7421915410013753,1302.2091177930051,,,,,,,272533,B,2024-11-09_16h22.02.766,EPIDM,2023.1.2,None,
2312.jpg,2722.jpg,1 Points,1 Points,65 points,PS2_L1.csv,,,,,,,,,,,,,,,,,,,,,,,,,,,,,0,0,0,0,0,22,22,22,,,,,,,,,,,,,,,,,,,1306.4341460010037,p,1.5719213320044219,1308.073216126002,,,,,,,272533,B,2024-11-09_16h22.02.766,EPIDM,2023.1.2,None,
2750.jpg,9050.jpg,4 Points,4 Points,69 points,PS2_L1.csv,,,,,,,,,,,,,,,,,,,,,,,,,,,,,0,0,0,0,0,23,23,23,,,,,,,,,,,,,,,,,,,1312.3115587089997,p,2.3657375820039306,1314.7428570839984,,,1325.2242215430015,space,6.325424041002407,,272533,B,2024-11-09_16h22.02.766,EPIDM,2023.1.2,None,
1113.jpg,1240.jpg,3 Points,3 Points,72 points,PS2_L2.csv,,,,,,,,,,,,,,,,,,,,,,,,,,,,,0,1,1,1,0,0,0,0,,,,,,,,,,,,,,,,,,,1334.8613461679997,q,1.184178998999414,1336.1207211680012,,,,,,,272533,B,2024-11-09_16h22.02.766,EPIDM,2023.1.2,None,
8220.jpg,2410.jpg,4 Points,4 Points,76 points,PS2_L2.csv,,,,,,,,,,,,,,,,,,,,,,,,,,,,,0,1,1,1,0,1,1,1,,,,,,,,,,,,,,,,,,,1340.3604997510047,p,2.300963291003427,1342.7335302089996,4,2.444672874000389,,,,,272533,B,2024-11-09_16h22.02.766,EPIDM,2023.1.2,None,
4621.jpg,3550.jpg,2 Points,2 Points,78 points,PS2_L2.csv,,,,,,,,,,,,,,,,,,,,,,,,,,,,,0,1,1,1,0,2,2,2,,,,,,,,,,,,,,,,,,,1349.4867620430014,q,1.214359332996537,1350.7651112509993,,,,,,,272533,B,2024-11-09_16h22.02.766,EPIDM,2023.1.2,None,
2751.jpg,6313.jpg,3 Points,3 Points,81 points,PS2_L2.csv,,,,,,,,,,,,,,,,,,,,,,,,,,,,,0,1,1,1,0,3,3,3,,,,,,,,,,,,,,,,,,,1355.0049115010042,p,3.6566707069941913,1358.7417673340024,,,,,,,272533,B,2024-11-09_16h22.02.766,EPIDM,2023.1.2,None,
4689.jpg,7009.jpg,5 Points,5 Points,86 points,PS2_L2.csv,,,,,,,,,,,,,,,,,,,,,,,,,,,,,0,1,1,1,0,4,4,4,,,,,,,,,,,,,,,,,,,1362.9831177090018,q,1.838345541000308,1364.8980487510053,,,,,,,272533,B,2024-11-09_16h22.02.766,EPIDM,2023.1.2,None,
6831.jpg,2141.jpg,5 Points,5 Points,91 points,PS2_L2.csv,,,,,,,,,,,,,,,,,,,,,,,,,,,,,0,1,1,1,0,5,5,5,,,,,,,,,,,,,,,,,,,1369.132981458999,p,2.03990133300249,1371.2460027510024,,,,,,,272533,B,2024-11-09_16h22.02.766,EPIDM,2023.1.2,None,
9417.jpg,6530.jpg,1 Point,1 Point,92 points,PS2_L2.csv,,,,,,,,,,,,,,,,,,,,,,,,,,,,,0,1,1,1,0,6,6,6,,,,,,,,,,,,,,,,,,,1375.4861845429987,p,2.622520873999747,1378.1830357930012,,,,,,,272533,B,2024-11-09_16h22.02.766,EPIDM,2023.1.2,None,
7237.jpg,8510.jpg,4 Points,4 Points,96 points,PS2_L2.csv,,,,,,,,,,,,,,,,,,,,,,,,,,,,,0,1,1,1,0,7,7,7,,,,,,,,,,,,,,,,,,,1382.4152878340028,q,1.4291759989937418,1383.917521043004,,,,,,,272533,B,2024-11-09_16h22.02.766,EPIDM,2023.1.2,None,
4608.jpg,8320.jpg,1 Point,1 Point,97 points,PS2_L2.csv,,,,,,,,,,,,,,,,,,,,,,,,,,,,,0,1,1,1,0,8,8,8,,,,,,,,,,,,,,,,,,,1388.1563765430037,q,2.0804934999978286,1390.3028702090014,,,,,,,272533,B,2024-11-09_16h22.02.766,EPIDM,2023.1.2,None,
9254.jpg,9290.jpg,2 Points,2 Points,99 points,PS2_L2.csv,,,,,,,,,,,,,,,,,,,,,,,,,,,,,0,1,1,1,0,9,9,9,,,,,,,,,,,,,,,,,,,1394.5474500839991,p,1.9041352910062415,1396.5247814590039,,,,,,,272533,B,2024-11-09_16h22.02.766,EPIDM,2023.1.2,None,
9530.jpg,9220.jpg,1 Point,1 Point,100 points,PS2_L2.csv,,,,,,,,,,,,,,,,,,,,,,,,,,,,,0,1,1,1,0,10,10,10,,,,,,,,,,,,,,,,,,,1400.7610330430034,p,2.227033290997497,1403.0458995430017,,,,,,,272533,B,2024-11-09_16h22.02.766,EPIDM,2023.1.2,None,
2092.jpg,2210.jpg,0 Points,0 Points,100 points,PS2_L2.csv,,,,,,,,,,,,,,,,,,,,,,,,,,,,,0,1,1,1,0,11,11,11,,,,,,,,,,,,,,,,,,,1407.293897126001,q,1.9597686659981264,1409.323872001005,,,,,,,272533,B,2024-11-09_16h22.02.766,EPIDM,2023.1.2,None,
9500.jpg,6360.jpg,1 Point,1 Point,101 points,PS2_L2.csv,,,,,,,,,,,,,,,,,,,,,,,,,,,,,0,1,1,1,0,12,12,12,,,,,,,,,,,,,,,,,,,1413.589885125999,q,3.10312287400302,1416.7570684590028,,,,,,,272533,B,2024-11-09_16h22.02.766,EPIDM,2023.1.2,None,
2220.jpg,2010.jpg,5 Points,5 Points,106 points,PS2_L2.csv,,,,,,,,,,,,,,,,,,,,,,,,,,,,,0,1,1,1,0,13,13,13,,,,,,,,,,,,,,,,,,,1420.9960235430044,q,1.7835562489999575,1422.8553524180024,5,2.349477998999646,,,,,272533,B,2024-11-09_16h22.02.766,EPIDM,2023.1.2,None,
5940.jpg,9411.jpg,0 Points,0 Points,106 points,PS2_L2.csv,,,,,,,,,,,,,,,,,,,,,,,,,,,,,0,1,1,1,0,14,14,14,,,,,,,,,,,,,,,,,,,1429.5065962510052,p,3.049595999000303,1432.6246921260026,,,,,,,272533,B,2024-11-09_16h22.02.766,EPIDM,2023.1.2,None,
4533.jpg,2385.jpg,3 Points,3 Points,109 points,PS2_L2.csv,,,,,,,,,,,,,,,,,,,,,,,,,,,,,0,1,1,1,0,15,15,15,,,,,,,,,,,,,,,,,,,1436.8627803760028,q,0.5885709569993196,1437.531778043005,,,,,,,272533,B,2024-11-09_16h22.02.766,EPIDM,2023.1.2,None,
9340.jpg,6910.jpg,0 Points,0 Points,109 points,PS2_L2.csv,,,,,,,,,,,,,,,,,,,,,,,,,,,,,0,1,1,1,0,16,16,16,,,,,,,,,,,,,,,,,,,1441.7585753759995,p,2.085922332997143,1443.9243229589993,,,,,,,272533,B,2024-11-09_16h22.02.766,EPIDM,2023.1.2,None,
8350.jpg,7190.jpg,5 Points,5 Points,114 points,PS2_L2.csv,,,,,,,,,,,,,,,,,,,,,,,,,,,,,0,1,1,1,0,17,17,17,,,,,,,,,,,,,,,,,,,1448.1664846679996,q,1.093049623996194,1449.3391271680011,,,,,,,272533,B,2024-11-09_16h22.02.766,EPIDM,2023.1.2,None,
6211.jpg,9611.jpg,3 Points,3 Points,117 points ,PS2_L2.csv,,,,,,,,,,,,,,,,,,,,,,,,,,,,,0,1,1,1,0,18,18,18,,,,,,,,,,,,,,,,,,,1453.5748796260013,q,1.780304457002785,1455.4196010840024,,,,,,,272533,B,2024-11-09_16h22.02.766,EPIDM,2023.1.2,None,
2053.jpg,9415.jpg,4 Points,4 Points,121 points,PS2_L2.csv,,,,,,,,,,,,,,,,,,,,,,,,,,,,,0,1,1,1,0,19,19,19,,,,,,,,,,,,,,,,,,,1459.6622920840018,p,1.3490105829987442,1461.071317918002,,,,,,,272533,B,2024-11-09_16h22.02.766,EPIDM,2023.1.2,None,
2110.jpg,7260.jpg,5 Points,5 Points,126 points,PS2_L2.csv,,,,,,,,,,,,,,,,,,,,,,,,,,,,,0,1,1,1,0,20,20,20,,,,,,,,,,,,,,,,,,,1465.3256822090043,p,1.7108699579985114,1467.1105368760036,,,,,,,272533,B,2024-11-09_16h22.02.766,EPIDM,2023.1.2,None,
2030.jpg,2495.jpg,0 Points,0 Points,126 points,PS2_L2.csv,,,,,,,,,,,,,,,,,,,,,,,,,,,,,0,1,1,1,0,21,21,21,,,,,,,,,,,,,,,,,,,1471.3482263340047,q,0.6473595830029808,1472.074969418005,,,,,,,272533,B,2024-11-09_16h22.02.766,EPIDM,2023.1.2,None,
1302.jpg,2700.jpg,3 Points,3 Points,129 points,PS2_L2.csv,,,,,,,,,,,,,,,,,,,,,,,,,,,,,0,1,1,1,0,22,22,22,,,,,,,,,,,,,,,,,,,1476.308278043005,p,2.2382779570034472,1478.617977834001,,,,,,,272533,B,2024-11-09_16h22.02.766,EPIDM,2023.1.2,None,
9010.jpg,9253.jpg,0 Points,0 Points,129 points,PS2_L2.csv,,,,,,,,,,,,,,,,,,,,,,,,,,,,,0,1,1,1,0,23,23,23,,,,,,,,,,,,,,,,,,,1482.8539985840034,q,1.0692578329981188,1483.9972242090007,,,1494.4484335430025,space,3.809986749001837,,272533,B,2024-11-09_16h22.02.766,EPIDM,2023.1.2,None,
1303.jpg,2000.jpg,0 Points,0 Points,129 points,PS2_L3.csv,,,,,,,,,,,,,,,,,,,,,,,,,,,,,0,2,2,2,0,0,0,0,,,,,,,,,,,,,,,,,,,1501.5581568339985,p,1.2832464989987784,1502.9125457929986,,,,,,,272533,B,2024-11-09_16h22.02.766,EPIDM,2023.1.2,None,
2200.jpg,4598.jpg,1 Point,1 Point,130 points,PS2_L3.csv,,,,,,,,,,,,,,,,,,,,,,,,,,,,,0,2,2,2,0,1,1,1,,,,,,,,,,,,,,,,,,,1507.153964959005,q,1.9764801659985096,1509.2151131260034,1,2.005106541000714,,,,,272533,B,2024-11-09_16h22.02.766,EPIDM,2023.1.2,None,
6190.jpg,3120.jpg,5 Points,5 Points,135 points,PS2_L3.csv,,,,,,,,,,,,,,,,,,,,,,,,,,,,,0,2,2,2,0,2,2,2,,,,,,,,,,,,,,,,,,,1515.520444834001,q,1.5379407910004375,1517.1356610430012,,,,,,,272533,B,2024-11-09_16h22.02.766,EPIDM,2023.1.2,None,
2570.jpg,5500.jpg,3 Points,3 Points,138 points,PS2_L3.csv,,,,,,,,,,,,,,,,,,,,,,,,,,,,,0,2,2,2,0,3,3,3,,,,,,,,,,,,,,,,,,,1521.3676526260024,p,0.9140636659940355,1522.3601109590018,,,,,,,272533,B,2024-11-09_16h22.02.766,EPIDM,2023.1.2,None,
8460.jpg,8330.jpg,0 Points,0 Points,138 points,PS2_L3.csv,,,,,,,,,,,,,,,,,,,,,,,,,,,,,0,2,2,2,0,4,4,4,,,,,,,,,,,,,,,,,,,1526.5995832929984,q,1.6830424159998074,1528.3518514180032,,,,,,,272533,B,2024-11-09_16h22.02.766,EPIDM,2023.1.2,None,
9320.jpg,9007.jpg,0 Points,0 Points,138 points,PS2_L3.csv,,,,,,,,,,,,,,,,,,,,,,,,,,,,,0,2,2,2,0,5,5,5,,,,,,,,,,,,,,,,,,,1532.5937417509995,None,,,,,,,,1536.2946837089985,272533,B,2024-11-09_16h22.02.766,EPIDM,2023.1.2,None,
2650.jpg,4531.jpg,5 Points,5 Points,143 points,PS2_L3.csv,,,,,,,,,,,,,,,,,,,,,,,,,,,,,0,2,2,2,0,6,6,6,,,,,,,,,,,,,,,,,,,1540.0942462930034,q,0.8119302909981343,1540.9793440430003,,,,,,,272533,B,2024-11-09_16h22.02.766,EPIDM,2023.1.2,None,
4100.jpg,6570.2.jpg,3 Points,3 Points,146 points,PS2_L3.csv,,,,,,,,,,,,,,,,,,,,,,,,,,,,,0,2,2,2,0,7,7,7,,,,,,,,,,,,,,,,,,,1545.2113484590009,q,1.1496942909943755,1546.4362551259983,,,,,,,272533,B,2024-11-09_16h22.02.766,EPIDM,2023.1.2,None,
3102.jpg,F032.jpg,1 Point,1 Point,147 points,PS2_L3.csv,,,,,,,,,,,,,,,,,,,,,,,,,,,,,0,2,2,2,0,8,8,8,,,,,,,,,,,,,,,,,,,1550.6692239180047,p,0.6839275410020491,1551.4620282090036,,,,,,,272533,B,2024-11-09_16h22.02.766,EPIDM,2023.1.2,None,
2240.jpg,5010.jpg,5 Points,5 Points,152 points,PS2_L3.csv,,,,,,,,,,,,,,,,,,,,,,,,,,,,,0,2,2,2,0,9,9,9,,,,,,,,,,,,,,,,,,,1555.6597148340006,p,1.0775502910037176,1556.819381418005,,,,,,,272533,B,2024-11-09_16h22.02.766,EPIDM,2023.1.2,None,
4605.jpg,1510.jpg,4 Points,4 Points,156 points,PS2_L3.csv,,,,,,,,,,,,,,,,,,,,,,,,,,,,,0,2,2,2,0,10,10,10,,,,,,,,,,,,,,,,,,,1561.059722376005,q,1.9249354990024585,1563.062845501001,,,,,,,272533,B,2024-11-09_16h22.02.766,EPIDM,2023.1.2,None,
9490.jpg,9210.jpg,1 Point,1 Point,157 points,PS2_L3.csv,,,,,,,,,,,,,,,,,,,,,,,,,,,,,0,2,2,2,0,11,11,11,,,,,,,,,,,,,,,,,,,1567.2990215840036,p,0.925437416000932,1568.2872723340042,,,,,,,272533,B,2024-11-09_16h22.02.766,EPIDM,2023.1.2,None,
6821.jpg,9622.jpg,2 Points,2 Points,159 points,PS2_L3.csv,,,,,,,,,,,,,,,,,,,,,,,,,,,,,0,2,2,2,0,12,12,12,,,,,,,,,,,,,,,,,,,1572.535426000999,q,2.6421629569958895,1575.2435850430047,,,,,,,272533,B,2024-11-09_16h22.02.766,EPIDM,2023.1.2,None,
2681.jpg,7100.jpg,3 Points,3 Points,162 points,PS2_L3.csv,,,,,,,,,,,,,,,,,,,,,,,,,,,,,0,2,2,2,0,13,13,13,,,,,,,,,,,,,,,,,,,1579.4929131680037,p,1.804077665998193,1581.369671501001,3,1.6514682080014609,,,,,272533,B,2024-11-09_16h22.02.766,EPIDM,2023.1.2,None,
5622.jpg,9156.jpg,4 Points,4 Points,166 points,PS2_L3.csv,,,,,,,,,,,,,,,,,,,,,,,,,,,,,0,2,2,2,0,14,14,14,,,,,,,,,,,,,,,,,,,1587.3396950430033,q,2.421043706999626,1589.8354560430016,,,,,,,272533,B,2024-11-09_16h22.02.766,EPIDM,2023.1.2,None,
1111.jpg,1040.jpg,0 Points,0 Points,166 points,PS2_L3.csv,,,,,,,,,,,,,,,,,,,,,,,,,,,,,0,2,2,2,0,15,15,15,,,,,,,,,,,,,,,,,,,1594.0761818760002,p,1.1642600410050363,1595.311801501004,,,,,,,272533,B,2024-11-09_16h22.02.766,EPIDM,2023.1.2,None,
1112.jpg,6230.jpg,3 Points,3 Points,169 points,PS2_L3.csv,,,,,,,,,,,,,,,,,,,,,,,,,,,,,0,2,2,2,0,16,16,16,,,,,,,,,,,,,,,,,,,1599.5489644590052,q,2.195657916003256,1601.8213780010046,,,,,,,272533,B,2024-11-09_16h22.02.766,EPIDM,2023.1.2,None,
8161.jpg,1900.jpg,4 Points,4 Points,173 points,PS2_L3.csv,,,,,,,,,,,,,,,,,,,,,,,,,,,,,0,2,2,2,0,17,17,17,,,,,,,,,,,,,,,,,,,1606.059320584005,p,1.1011587910033995,1607.2333825430032,,,,,,,272533,B,2024-11-09_16h22.02.766,EPIDM,2023.1.2,None,
9800.jpg,9433.jpg,1 Point,1 Point,174 points,PS2_L3.csv,,,,,,,,,,,,,,,,,,,,,,,,,,,,,0,2,2,2,0,18,18,18,,,,,,,,,,,,,,,,,,,1611.4693117089992,p,2.282628332999593,1613.8257956680027,,,,,,,272533,B,2024-11-09_16h22.02.766,EPIDM,2023.1.2,None,
1390.jpg,9421.jpg,2 Points,2 Points,176 points,PS2_L3.csv,,,,,,,,,,,,,,,,,,,,,,,,,,,,,0,2,2,2,0,19,19,19,,,,,,,,,,,,,,,,,,,1618.072200376002,q,0.7992214159967261,1618.9387614590014,,,,,,,272533,B,2024-11-09_16h22.02.766,EPIDM,2023.1.2,None,
2850.jpg,4532.jpg,3 Points,3 Points,179 points,PS2_L3.csv,,,,,,,,,,,,,,,,,,,,,,,,,,,,,0,2,2,2,0,20,20,20,,,,,,,,,,,,,,,,,,,1623.1834377510022,p,1.7452612070046598,1625.0037701680048,,,,,,,272533,B,2024-11-09_16h22.02.766,EPIDM,2023.1.2,None,
1560.jpg,8185.jpg,0 Points,0 Points,179 points,PS2_L3.csv,,,,,,,,,,,,,,,,,,,,,,,,,,,,,0,2,2,2,0,21,21,21,,,,,,,,,,,,,,,,,,,1629.2412079179994,q,1.3432397079959628,1630.6504515429988,,,,,,,272533,B,2024-11-09_16h22.02.766,EPIDM,2023.1.2,None,
6314.jpg,O022.jpg,2 Points,2 Points,181 points,PS2_L3.csv,,,,,,,,,,,,,,,,,,,,,,,,,,,,,0,2,2,2,0,22,22,22,,,,,,,,,,,,,,,,,,,1634.8977670430031,q,1.7974092489967006,1636.803566251001,,,,,,,272533,B,2024-11-09_16h22.02.766,EPIDM,2023.1.2,None,
4274.jpg,8160.jpg,2 Points,2 Points,183 points,PS2_L3.csv,,,,,,,,,,,,,,,,,,,,,,,,,,,,,0,2,2,2,0,23,23,23,,,,,,,,,,,,,,,,,,,1641.0012697089987,q,1.6781028749974212,1642.790802209005,,,1653.2286380430014,space,2.506728831998771,,272533,B,2024-11-09_16h22.02.766,EPIDM,2023.1.2,None,
8117.jpg,2880.jpg,5 Points,5 Points,188 points,PS2_L4.csv,,,,,,,,,,,,,,,,,,,,,,,,,,,,,0,3,3,3,0,0,0,0,,,,,,,,,,,,,,,,,,,1659.051636750999,q,1.9865712909959257,1661.1161750009996,,,,,,,272533,B,2024-11-09_16h22.02.766,EPIDM,2023.1.2,None,
3220.jpg,3063.jpg,5 Points,5 Points,193 points,PS2_L4.csv,,,,,,,,,,,,,,,,,,,,,,,,,,,,,0,3,3,3,0,1,1,1,,,,,,,,,,,,,,,,,,,1665.358449709005,q,1.2650372490024893,1666.6920086680038,5,2.0309339580053347,,,,,272533,B,2024-11-09_16h22.02.766,EPIDM,2023.1.2,None,
9040.jpg,1120.jpg,3 Points,3 Points,196 points,PS2_L4.csv,,,,,,,,,,,,,,,,,,,,,,,,,,,,,0,3,3,3,0,2,2,2,,,,,,,,,,,,,,,,,,,1673.0406914589985,p,1.4054207489971304,1674.5183382510004,,,,,,,272533,B,2024-11-09_16h22.02.766,EPIDM,2023.1.2,None,
5030.jpg,1670.jpg,3 Points,3 Points,199 points,PS2_L4.csv,,,,,,,,,,,,,,,,,,,,,,,,,,,,,0,3,3,3,0,3,3,3,,,,,,,,,,,,,,,,,,,1678.7596487929986,q,0.8864894579965039,1679.718104959,,,,,,,272533,B,2024-11-09_16h22.02.766,EPIDM,2023.1.2,None,
2276.jpg,6540.jpg,3 Points,3 Points,202 points,PS2_L4.csv,,,,,,,,,,,,,,,,,,,,,,,,,,,,,0,3,3,3,0,4,4,4,,,,,,,,,,,,,,,,,,,1683.9668202090033,q,2.065047957999923,1686.0825854590003,,,,,,,272533,B,2024-11-09_16h22.02.766,EPIDM,2023.1.2,None,
1540.jpg,2600.jpg,1 Point,1 Point,203 points,PS2_L4.csv,,,,,,,,,,,,,,,,,,,,,,,,,,,,,0,3,3,3,0,5,5,5,,,,,,,,,,,,,,,,,,,1690.3402809590043,p,1.7859632489999058,1692.1871155010012,,,,,,,272533,B,2024-11-09_16h22.02.766,EPIDM,2023.1.2,None,
8465.jpg,8400.jpg,1 Point,1 Point,204 points,PS2_L4.csv,,,,,,,,,,,,,,,,,,,,,,,,,,,,,0,3,3,3,0,6,6,6,,,,,,,,,,,,,,,,,,,1696.4253802509993,p,0.973660290997941,1697.4669864180032,,,,,,,272533,B,2024-11-09_16h22.02.766,EPIDM,2023.1.2,None,
3110.jpg,9000.jpg,4 Points,4 Points,208 points,PS2_L4.csv,,,,,,,,,,,,,,,,,,,,,,,,,,,,,0,3,3,3,0,7,7,7,,,,,,,,,,,,,,,,,,,1701.720093292999,p,1.7812497909981175,1703.5687385839992,,,,,,,272533,B,2024-11-09_16h22.02.766,EPIDM,2023.1.2,None,
9570.jpg,6610.jpg,0 Points,0 Points,208 points,PS2_L4.csv,,,,,,,,,,,,,,,,,,,,,,,,,,,,,0,3,3,3,0,8,8,8,,,,,,,,,,,,,,,,,,,1707.8231379179997,p,0.6471063740027603,1708.5419166680003,,,,,,,272533,B,2024-11-09_16h22.02.766,EPIDM,2023.1.2,None,
2690.jpg,9360.jpg,1 Point,1 Point,209 points,PS2_L4.csv,,,,,,,,,,,,,,,,,,,,,,,,,,,,,0,3,3,3,0,9,9,9,,,,,,,,,,,,,,,,,,,1712.7867064180027,p,1.4186097490019165,1714.2690268760052,,,,,,,272533,B,2024-11-09_16h22.02.766,EPIDM,2023.1.2,None,
8250.jpg,1313.jpg,4 Points,4 Points,213 points,PS2_L4.csv,,,,,,,,,,,,,,,,,,,,,,,,,,,,,0,3,3,3,0,10,10,10,,,,,,,,,,,,,,,,,,,1718.5159754589986,p,1.601251706997573,1720.1923038759996,,,,,,,272533,B,2024-11-09_16h22.02.766,EPIDM,2023.1.2,None,
3022.jpg,2352.2.jpg,0 Points,0 Points,213 points,PS2_L4.csv,,,,,,,,,,,,,,,,,,,,,,,,,,,,,0,3,3,3,0,11,11,11,,,,,,,,,,,,,,,,,,,1724.4287722510053,q,1.3363864999992074,1725.8335564180015,,,,,,,272533,B,2024-11-09_16h22.02.766,EPIDM,2023.1.2,None,
9920.jpg,3068.jpg,5 Points,5 Points,218 points,PS2_L4.csv,,,,,,,,,,,,,,,,,,,,,,,,,,,,,0,3,3,3,0,12,12,12,,,,,,,,,,,,,,,,,,,1730.0686892090016,q,1.368491165994783,1731.5014079590037,,,,,,,272533,B,2024-11-09_16h22.02.766,EPIDM,2023.1.2,None,
7234.jpg,5533.jpg,3 Points,3 Points,221 points,PS2_L4.csv,,,,,,,,,,,,,,,,,,,,,,,,,,,,,0,3,3,3,0,13,13,13,,,,,,,,,,,,,,,,,,,1735.7455254180022,p,2.2194621250018827,1738.0310129179998,3,1.5929859999960172,,,,,272533,B,2024-11-09_16h22.02.766,EPIDM,2023.1.2,None,
6250.1.jpg,3301.jpg,0 Points,0 Points,221 points,PS2_L4.csv,,,,,,,,,,,,,,,,,,,,,,,,,,,,,0,3,3,3,0,14,14,14,,,,,,,,,,,,,,,,,,,1743.9330369590025,q,0.8873766239994438,1744.8958400839983,,,,,,,272533,B,2024-11-09_16h22.02.766,EPIDM,2023.1.2,None,
2518.jpg,2381.jpg,1 Point,1 Point,222 points,PS2_L4.csv,,,,,,,,,,,,,,,,,,,,,,,,,,,,,0,3,3,3,0,15,15,15,,,,,,,,,,,,,,,,,,,1749.1281535009985,p,1.2844501240033424,1750.4853280009993,,,,,,,272533,B,2024-11-09_16h22.02.766,EPIDM,2023.1.2,None,
1910.jpg,2575.jpg,2 Points,2 Points,224 points,PS2_L4.csv,,,,,,,,,,,,,,,,,,,,,,,,,,,,,0,3,3,3,0,16,16,16,,,,,,,,,,,,,,,,,,,1754.731555751001,q,1.4171964159977506,1756.2081711260034,,,,,,,272533,B,2024-11-09_16h22.02.766,EPIDM,2023.1.2,None,
1275.jpg,3150.jpg,1 Point,1 Point,225 points,PS2_L4.csv,,,,,,,,,,,,,,,,,,,,,,,,,,,,,0,3,3,3,0,17,17,17,,,,,,,,,,,,,,,,,,,1760.4657223340037,q,2.2588274989975616,1762.7988784180052,,,,,,,272533,B,2024-11-09_16h22.02.766,EPIDM,2023.1.2,None,
2702.jpg,1590.jpg,5 Points,5 Points,230 points,PS2_L4.csv,,,,,,,,,,,,,,,,,,,,,,,,,,,,,0,3,3,3,0,18,18,18,,,,,,,,,,,,,,,,,,,1767.0427496679986,q,1.2967966249998426,1768.3833349589986,,,,,,,272533,B,2024-11-09_16h22.02.766,EPIDM,2023.1.2,None,
8480.jpg,6410.jpg,1 Point,1 Point,231 points,PS2_L4.csv,,,,,,,,,,,,,,,,,,,,,,,,,,,,,0,3,3,3,0,19,19,19,,,,,,,,,,,,,,,,,,,1772.638479168003,q,2.2624199580022832,1774.9798600430004,,,,,,,272533,B,2024-11-09_16h22.02.766,EPIDM,2023.1.2,None,
5621.jpg,5534.jpg,3 Points,3 Points,234 points,PS2_L4.csv,,,,,,,,,,,,,,,,,,,,,,,,,,,,,0,3,3,3,0,20,20,20,,,,,,,,,,,,,,,,,,,1779.2222977089987,q,1.117749791003007,1780.4134910010034,,,,,,,272533,B,2024-11-09_16h22.02.766,EPIDM,2023.1.2,None,
5972.jpg,6838.jpg,5 Points,5 Points,239 points,PS2_L4.csv,,,,,,,,,,,,,,,,,,,,,,,,,,,,,0,3,3,3,0,21,21,21,,,,,,,,,,,,,,,,,,,1784.652297751003,q,2.039581665994774,1786.7610466680053,,,,,,,272533,B,2024-11-09_16h22.02.766,EPIDM,2023.1.2,None,
2580.jpg,8300.jpg,3 Points,3 Points,242 points,PS2_L4.csv,,,,,,,,,,,,,,,,,,,,,,,,,,,,,0,3,3,3,0,22,22,22,,,,,,,,,,,,,,,,,,,1790.9957692930038,p,1.2086948750002193,1792.2846626259998,,,,,,,272533,B,2024-11-09_16h22.02.766,EPIDM,2023.1.2,None,
7280.jpg,7160.jpg,0 Points,0 Points,242 points,PS2_L4.csv,,,,,,,,,,,,,,,,,,,,,,,,,,,,,0,3,3,3,0,23,23,23,,,,,,,,,,,,,,,,,,,1796.5163079589984,q,0.9427809570042882,1797.545345958999,,,1808.0149020430035,space,12.124679625005228,,272533,B,2024-11-09_16h22.02.766,EPIDM,2023.1.2,None,
6243.jpg,2752.jpg,2 Points,2 Points,244 points,PS2_L5.csv,,,,,,,,,,,,,,,,,,,,,,,,,,,,,0,4,4,4,0,0,0,0,,,,,,,,,,,,,,,,,,,1823.4465237930053,p,0.8041737909952644,1824.3296455009986,,,,,,,272533,B,2024-11-09_16h22.02.766,EPIDM,2023.1.2,None,
8340.jpg,7546.jpg,2 Points,2 Points,246 points,PS2_L5.csv,,,,,,,,,,,,,,,,,,,,,,,,,,,,,0,4,4,4,0,1,1,1,,,,,,,,,,,,,,,,,,,1828.5615399590024,p,1.4262057909945725,1830.046219584001,2,1.8018709579991992,,,,,272533,B,2024-11-09_16h22.02.766,EPIDM,2023.1.2,None,
1022.jpg,6930.jpg,1 Point,1 Point,247 points,PS2_L5.csv,,,,,,,,,,,,,,,,,,,,,,,,,,,,,0,4,4,4,0,2,2,2,,,,,,,,,,,,,,,,,,,1836.1667265840006,q,1.6516378320011427,1837.887695876001,,,,,,,272533,B,2024-11-09_16h22.02.766,EPIDM,2023.1.2,None,
7230.jpg,7570.jpg,5 Points,5 Points,252 points,PS2_L5.csv,,,,,,,,,,,,,,,,,,,,,,,,,,,,,0,4,4,4,0,3,3,3,,,,,,,,,,,,,,,,,,,1842.1329427930032,q,2.2615529999966384,1844.4829195429993,,,,,,,272533,B,2024-11-09_16h22.02.766,EPIDM,2023.1.2,None,
5760.jpg,1602.jpg,1 Point,1 Point,253 points,PS2_L5.csv,,,,,,,,,,,,,,,,,,,,,,,,,,,,,0,4,4,4,0,4,4,4,,,,,,,,,,,,,,,,,,,1848.7198043340031,q,1.0825015829977929,1849.8662690429992,,,,,,,272533,B,2024-11-09_16h22.02.766,EPIDM,2023.1.2,None,
9584.jpg,3400.jpg,2 Points,2 Points,255 points,PS2_L5.csv,,,,,,,,,,,,,,,,,,,,,,,,,,,,,0,4,4,4,0,5,5,5,,,,,,,,,,,,,,,,,,,1854.1133450839989,q,2.3922123739976087,1856.5747261680008,,,,,,,272533,B,2024-11-09_16h22.02.766,EPIDM,2023.1.2,None,
2560.jpg,5270.jpg,4 Points,4 Points,259 points,PS2_L5.csv,,,,,,,,,,,,,,,,,,,,,,,,,,,,,0,4,4,4,0,6,6,6,,,,,,,,,,,,,,,,,,,1860.8198034590023,q,2.3577004990002024,1863.2500047930007,,,,,,,272533,B,2024-11-09_16h22.02.766,EPIDM,2023.1.2,None,
3350.jpg,3210.jpg,1 Point,1 Point,260 points,PS2_L5.csv,,,,,,,,,,,,,,,,,,,,,,,,,,,,,0,4,4,4,0,7,7,7,,,,,,,,,,,,,,,,,,,1867.4889242089994,p,1.681124416005332,1869.2386440010014,,,,,,,272533,B,2024-11-09_16h22.02.766,EPIDM,2023.1.2,None,
5455.jpg,5220.jpg,0 Points,0 Points,260 points,PS2_L5.csv,,,,,,,,,,,,,,,,,,,,,,,,,,,,,0,4,4,4,0,8,8,8,,,,,,,,,,,,,,,,,,,1873.4927959179986,p,1.7572241250018124,1875.3097894180028,,,,,,,272533,B,2024-11-09_16h22.02.766,EPIDM,2023.1.2,None,
7920.jpg,9102.jpg,3 Points,3 Points,263 points,PS2_L5.csv,,,,,,,,,,,,,,,,,,,,,,,,,,,,,0,4,4,4,0,9,9,9,,,,,,,,,,,,,,,,,,,1879.5663231260041,q,1.235261374997208,1880.875148543004,,,,,,,272533,B,2024-11-09_16h22.02.766,EPIDM,2023.1.2,None,
1301.jpg,1070.jpg,2 Points,2 Points,265 points,PS2_L5.csv,,,,,,,,,,,,,,,,,,,,,,,,,,,,,0,4,4,4,0,10,10,10,,,,,,,,,,,,,,,,,,,1885.1080619589993,p,1.3495594580017496,1886.5317336680018,,,,,,,272533,B,2024-11-09_16h22.02.766,EPIDM,2023.1.2,None,
5982.jpg,5260.jpg,5 Points,5 Points,270 points,PS2_L5.csv,,,,,,,,,,,,,,,,,,,,,,,,,,,,,0,4,4,4,0,11,11,11,,,,,,,,,,,,,,,,,,,1890.7581055010014,q,0.8911610829964047,1891.7235142089994,,,,,,,272533,B,2024-11-09_16h22.02.766,EPIDM,2023.1.2,None,
5000.jpg,8180.jpg,4 Points,4 Points,274 points,PS2_L5.csv,,,,,,,,,,,,,,,,,,,,,,,,,,,,,0,4,4,4,0,12,12,12,,,,,,,,,,,,,,,,,,,1895.961649293,p,1.35981124999671,1897.4050942930044,,,,,,,272533,B,2024-11-09_16h22.02.766,EPIDM,2023.1.2,None,
6244.jpg,9265.jpg,0 Points,0 Points,274 points,PS2_L5.csv,,,,,,,,,,,,,,,,,,,,,,,,,,,,,0,4,4,4,0,13,13,13,,,,,,,,,,,,,,,,,,,1901.6446313339984,q,1.2690182910009753,1902.9916599589997,0,2.054851041000802,,,,,272533,B,2024-11-09_16h22.02.766,EPIDM,2023.1.2,None,
5990.jpg,5780.jpg,3 Points,3 Points,277 points,PS2_L5.csv,,,,,,,,,,,,,,,,,,,,,,,,,,,,,0,4,4,4,0,14,14,14,,,,,,,,,,,,,,,,,,,1909.351983876004,p,1.1204887070052791,1910.5451125840045,,,,,,,272533,B,2024-11-09_16h22.02.766,EPIDM,2023.1.2,None,
9440.jpg,6350.jpg,4 Points,4 Points,281 points,PS2_L5.csv,,,,,,,,,,,,,,,,,,,,,,,,,,,,,0,4,4,4,0,15,15,15,,,,,,,,,,,,,,,,,,,1914.7945506260003,q,1.8225849580048816,1916.6745476680007,,,,,,,272533,B,2024-11-09_16h22.02.766,EPIDM,2023.1.2,None,
1850.jpg,5623.jpg,5 Points,5 Points,286 points,PS2_L5.csv,,,,,,,,,,,,,,,,,,,,,,,,,,,,,0,4,4,4,0,16,16,16,,,,,,,,,,,,,,,,,,,1920.918103959004,p,2.7624779579928145,1923.7560155840038,,,,,,,272533,B,2024-11-09_16h22.02.766,EPIDM,2023.1.2,None,
5200.jpg,5020.jpg,0 Points,0 Points,286 points,PS2_L5.csv,,,,,,,,,,,,,,,,,,,,,,,,,,,,,0,4,4,4,0,17,17,17,,,,,,,,,,,,,,,,,,,1928.0042939589985,q,1.1154952080032672,1929.1999249180008,,,,,,,272533,B,2024-11-09_16h22.02.766,EPIDM,2023.1.2,None,
P211.jpg,9041.jpg,4 Points,4 Points,290 points,PS2_L5.csv,,,,,,,,,,,,,,,,,,,,,,,,,,,,,0,4,4,4,0,18,18,18,,,,,,,,,,,,,,,,,,,1933.4370205009982,p,1.147044500001357,1934.6929608760038,,,,,,,272533,B,2024-11-09_16h22.02.766,EPIDM,2023.1.2,None,
5600.jpg,9080.jpg,5 Points,5 Points,295 points,PS2_L5.csv,,,,,,,,,,,,,,,,,,,,,,,,,,,,,0,4,4,4,0,19,19,19,,,,,,,,,,,,,,,,,,,1938.8945505010051,q,1.2258264160045655,1940.190264251003,,,,,,,272533,B,2024-11-09_16h22.02.766,EPIDM,2023.1.2,None,
6800.jpg,9190.jpg,0 Points,0 Points,295 points,PS2_L5.csv,,,,,,,,,,,,,,,,,,,,,,,,,,,,,0,4,4,4,0,20,20,20,,,,,,,,,,,,,,,,,,,1944.4244133340035,q,2.0482994160047383,1946.5426154180022,,,,,,,272533,B,2024-11-09_16h22.02.766,EPIDM,2023.1.2,None,
3280.jpg,9270.jpg,0 Points,0 Points,295 points,PS2_L5.csv,,,,,,,,,,,,,,,,,,,,,,,,,,,,,0,4,4,4,0,21,21,21,,,,,,,,,,,,,,,,,,,1950.7785711680044,p,0.966070499001944,1951.8009036680014,,,,,,,272533,B,2024-11-09_16h22.02.766,EPIDM,2023.1.2,None,
4613.jpg,2720.jpg,4 Points,4 Points,299 points,PS2_L5.csv,,,,,,,,,,,,,,,,,,,,,,,,,,,,,0,4,4,4,0,22,22,22,,,,,,,,,,,,,,,,,,,1956.0435272930044,q,1.2212180409987923,1957.3255731680038,,,,,,,272533,B,2024-11-09_16h22.02.766,EPIDM,2023.1.2,None,
1930.jpg,9008.jpg,1 Point,1 Point,300 points,PS2_L5.csv,,,,,,,,,,,,,,,,,,,,,,,,,,,,,0,4,4,4,0,23,23,23,,,,,,,,,,,,,,,,,,,1961.570374668001,q,1.270876208000118,1962.9153626679981,,,1973.3715419180007,space,5.242655624002509,,272533,B,2024-11-09_16h22.02.766,EPIDM,2023.1.2,None,
2190.jpg,7503.jpg,2 Points,2 Points,302 points,PS2_L6.csv,,,,,,,,,,,,,,,,,,,,,,,,,,,,,0,5,5,5,0,0,0,0,,,,,,,,,,,,,,,,,,,1981.9224772930029,q,2.756879166001454,1984.7596658340044,,,,,,,272533,B,2024-11-09_16h22.02.766,EPIDM,2023.1.2,None,
2490.jpg,2590.jpg,4 Points,4 Points,306 points,PS2_L6.csv,,,,,,,,,,,,,,,,,,,,,,,,,,,,,0,5,5,5,0,1,1,1,,,,,,,,,,,,,,,,,,,1989.0068821259993,p,1.024366875004489,1990.1154560840005,4,1.657330999005353,,,,,272533,B,2024-11-09_16h22.02.766,EPIDM,2023.1.2,None,
9592.jpg,1300.jpg,2 Points,2 Points,308 points,PS2_L6.csv,,,,,,,,,,,,,,,,,,,,,,,,,,,,,0,5,5,5,0,2,2,2,,,,,,,,,,,,,,,,,,,1996.0992554180048,q,1.1478801240009489,1997.3234169179996,,,,,,,272533,B,2024-11-09_16h22.02.766,EPIDM,2023.1.2,None,
8230.jpg,2682.jpg,5 Points,5 Points,313 points,PS2_L6.csv,,,,,,,,,,,,,,,,,,,,,,,,,,,,,0,5,5,5,0,3,3,3,,,,,,,,,,,,,,,,,,,2001.565860501003,p,1.961493832997803,2003.5923345010015,,,,,,,272533,B,2024-11-09_16h22.02.766,EPIDM,2023.1.2,None,
9090.jpg,7580.jpg,3 Points,3 Points,316 points,PS2_L6.csv,,,,,,,,,,,,,,,,,,,,,,,,,,,,,0,5,5,5,0,4,4,4,,,,,,,,,,,,,,,,,,,2007.843916376005,p,2.610654998999962,2010.5273434590054,,,,,,,272533,B,2024-11-09_16h22.02.766,EPIDM,2023.1.2,None,
3530.jpg,6213.jpg,1 Point,1 Point,317 points,PS2_L6.csv,,,,,,,,,,,,,,,,,,,,,,,,,,,,,0,5,5,5,0,5,5,5,,,,,,,,,,,,,,,,,,,2014.775405584005,p,1.4064446659976966,2016.252268625998,,,,,,,272533,B,2024-11-09_16h22.02.766,EPIDM,2023.1.2,None,
1640.jpg,5531.jpg,3 Points,3 Points,320 points,PS2_L6.csv,,,,,,,,,,,,,,,,,,,,,,,,,,,,,0,5,5,5,0,6,6,6,,,,,,,,,,,,,,,,,,,2020.4917488339997,q,1.0412143740031752,2021.615701543,,,,,,,272533,B,2024-11-09_16h22.02.766,EPIDM,2023.1.2,None,
3064.jpg,3168.jpg,4 Points,4 Points,324 points,PS2_L6.csv,,,,,,,,,,,,,,,,,,,,,,,,,,,,,0,5,5,5,0,7,7,7,,,,,,,,,,,,,,,,,,,2025.8511261680032,q,3.5145632080020732,2029.4383640840024,,,,,,,272533,B,2024-11-09_16h22.02.766,EPIDM,2023.1.2,None,
2710.jpg,9252.jpg,1 Point,1 Point,325 points,PS2_L6.csv,,,,,,,,,,,,,,,,,,,,,,,,,,,,,0,5,5,5,0,8,8,8,,,,,,,,,,,,,,,,,,,2033.674382918005,q,1.8440680830026395,2035.5886875840006,,,,,,,272533,B,2024-11-09_16h22.02.766,EPIDM,2023.1.2,None,
2260.jpg,2830.jpg,5 Points,5 Points,330 points,PS2_L6.csv,,,,,,,,,,,,,,,,,,,,,,,,,,,,,0,5,5,5,0,9,9,9,,,,,,,,,,,,,,,,,,,2039.8349468759989,p,0.8665236660017399,2040.777843418,,,,,,,272533,B,2024-11-09_16h22.02.766,EPIDM,2023.1.2,None,
6510.jpg,A074.jpg,2 Points,2 Points,332 points,PS2_L6.csv,,,,,,,,,,,,,,,,,,,,,,,,,,,,,0,5,5,5,0,10,10,10,,,,,,,,,,,,,,,,,,,2045.0245323760028,q,1.116999373996805,2046.2535275839982,,,,,,,272533,B,2024-11-09_16h22.02.766,EPIDM,2023.1.2,None,
5300.jpg,2372.jpg,1 Point,1 Point,333 points,PS2_L6.csv,,,,,,,,,,,,,,,,,,,,,,,,,,,,,0,5,5,5,0,11,11,11,,,,,,,,,,,,,,,,,,,2050.450728333999,p,2.002500581998902,2052.5209541680015,,,,,,,272533,B,2024-11-09_16h22.02.766,EPIDM,2023.1.2,None,
2749.jpg,7282.jpg,3 Points,3 Points,336 points,PS2_L6.csv,,,,,,,,,,,,,,,,,,,,,,,,,,,,,0,5,5,5,0,12,12,12,,,,,,,,,,,,,,,,,,,2056.7584152089985,p,1.3915842069982318,2058.228942626003,,,,,,,272533,B,2024-11-09_16h22.02.766,EPIDM,2023.1.2,None,
3130.jpg,3500.jpg,4 Points,4 Points,340 points,PS2_L6.csv,,,,,,,,,,,,,,,,,,,,,,,,,,,,,0,5,5,5,0,13,13,13,,,,,,,,,,,,,,,,,,,2062.4571519180026,p,1.8518435410005623,2064.3882110010018,4,1.9067732080002315,,,,,272533,B,2024-11-09_16h22.02.766,EPIDM,2023.1.2,None,
6312.jpg,3230.jpg,2 Points,2 Points,342 points,PS2_L6.csv,,,,,,,,,,,,,,,,,,,,,,,,,,,,,0,5,5,5,0,14,14,14,,,,,,,,,,,,,,,,,,,2070.6072016260005,q,1.5893164579974837,2072.2569014590044,,,,,,,272533,B,2024-11-09_16h22.02.766,EPIDM,2023.1.2,None,
2597.jpg,5870.jpg,5 Points,5 Points,347 points,PS2_L6.csv,,,,,,,,,,,,,,,,,,,,,,,,,,,,,0,5,5,5,0,15,15,15,,,,,,,,,,,,,,,,,,,2076.506603583999,q,2.417503791002673,2078.9918870840047,,,,,,,272533,B,2024-11-09_16h22.02.766,EPIDM,2023.1.2,None,
8033.jpg,7270.jpg,3 Points,3 Points,350 points,PS2_L6.csv,,,,,,,,,,,,,,,,,,,,,,,,,,,,,0,5,5,5,0,16,16,16,,,,,,,,,,,,,,,,,,,2083.230684209004,q,1.2866158739998355,2084.5931430010023,,,,,,,272533,B,2024-11-09_16h22.02.766,EPIDM,2023.1.2,None,
3170.jpg,6560.jpg,2 Points,2 Points,352 points,PS2_L6.csv,,,,,,,,,,,,,,,,,,,,,,,,,,,,,0,5,5,5,0,17,17,17,,,,,,,,,,,,,,,,,,,2088.8308948760023,p,0.8538675409945427,2089.7607850839995,,,,,,,272533,B,2024-11-09_16h22.02.766,EPIDM,2023.1.2,None,
6242.jpg,F034.jpg,4 Points,4 Points,356 points,PS2_L6.csv,,,,,,,,,,,,,,,,,,,,,,,,,,,,,0,5,5,5,0,18,18,18,,,,,,,,,,,,,,,,,,,2094.0103372090016,q,1.1946386659983546,2095.319969834003,,,,,,,272533,B,2024-11-09_16h22.02.766,EPIDM,2023.1.2,None,
2485.jpg,7350.jpg,0 Points,0 Points,356 points,PS2_L6.csv,,,,,,,,,,,,,,,,,,,,,,,,,,,,,0,5,5,5,0,19,19,19,,,,,,,,,,,,,,,,,,,2099.5196242090024,p,2.8292733740017866,2102.4295507510033,,,,,,,272533,B,2024-11-09_16h22.02.766,EPIDM,2023.1.2,None,
2900.jpg,1101.jpg,3 Points,3 Points,359 points,PS2_L6.csv,,,,,,,,,,,,,,,,,,,,,,,,,,,,,0,5,5,5,0,20,20,20,,,,,,,,,,,,,,,,,,,2106.6566300839986,p,1.0353324160023476,2107.765716793001,,,,,,,272533,B,2024-11-09_16h22.02.766,EPIDM,2023.1.2,None,
7002.jpg,4660.jpg,4 Points,4 Points,363 points,PS2_L6.csv,,,,,,,,,,,,,,,,,,,,,,,,,,,,,0,5,5,5,0,21,21,21,,,,,,,,,,,,,,,,,,,2112.009565418004,p,2.545608833002916,2114.637202126003,,,,,,,272533,B,2024-11-09_16h22.02.766,EPIDM,2023.1.2,None,
A025.jpg,1051.jpg,0 Points,0 Points,363 points,PS2_L6.csv,,,,,,,,,,,,,,,,,,,,,,,,,,,,,0,5,5,5,0,22,22,22,,,,,,,,,,,,,,,,,,,2118.867976334004,p,2.190838206995977,2121.1808299590048,,,,,,,272533,B,2024-11-09_16h22.02.766,EPIDM,2023.1.2,None,
4510.jpg,2230.jpg,5 Points,5 Points,368 points,PS2_L6.csv,,,,,,,,,,,,,,,,,,,,,,,,,,,,,0,5,5,5,0,23,23,23,,,,,,,,,,,,,,,,,,,2125.377059834005,q,1.5220661250059493,2126.975312126,,,2137.445758583999,space,8.644878666003933,,272533,B,2024-11-09_16h22.02.766,EPIDM,2023.1.2,None,
2383.jpg,1616.jpg,2 Points,2 Points,370 points,PS2_L7.csv,,,,,,,,,,,,,,,,,,,,,,,,,,,,,0,6,6,6,0,0,0,0,,,,,,,,,,,,,,,,,,,2149.4024300009987,q,0.7686569990037242,2150.259200876004,,,,,,,272533,B,2024-11-09_16h22.02.766,EPIDM,2023.1.2,None,
1310.jpg,3181.jpg,4 Points,4 Points,374 points,PS2_L7.csv,,,,,,,,,,,,,,,,,,,,,,,,,,,,,0,6,6,6,0,1,1,1,,,,,,,,,,,,,,,,,,,2154.487409125999,p,1.5400889570009895,2156.0839246680043,4,3.1307110819980153,,,,,272533,B,2024-11-09_16h22.02.766,EPIDM,2023.1.2,None,
7289.jpg,4534.jpg,0 Points,0 Points,374 points,PS2_L7.csv,,,,,,,,,,,,,,,,,,,,,,,,,,,,,0,6,6,6,0,2,2,2,,,,,,,,,,,,,,,,,,,2163.514518584001,p,1.495831291002105,2165.0828417930024,,,,,,,272533,B,2024-11-09_16h22.02.766,EPIDM,2023.1.2,None,
6010.jpg,7361.jpg,2 Points,2 Points,376 points,PS2_L7.csv,,,,,,,,,,,,,,,,,,,,,,,,,,,,,0,6,6,6,0,3,3,3,,,,,,,,,,,,,,,,,,,2169.3143617930036,q,1.039642540999921,2170.4310087090053,,,,,,,272533,B,2024-11-09_16h22.02.766,EPIDM,2023.1.2,None,
2661.jpg,2870.jpg,5 Points,5 Points,381 points,PS2_L7.csv,,,,,,,,,,,,,,,,,,,,,,,,,,,,,0,6,6,6,0,4,4,4,,,,,,,,,,,,,,,,,,,2174.664290708999,p,1.498533291000058,2176.2370483339982,,,,,,,272533,B,2024-11-09_16h22.02.766,EPIDM,2023.1.2,None,
7220.jpg,8090.jpg,2 Points,2 Points,383 points,PS2_L7.csv,,,,,,,,,,,,,,,,,,,,,,,,,,,,,0,6,6,6,0,5,5,5,,,,,,,,,,,,,,,,,,,2180.484047126003,p,1.1985523749972344,2181.7452267510016,,,,,,,272533,B,2024-11-09_16h22.02.766,EPIDM,2023.1.2,None,
9140.jpg,2810.jpg,3 Points,3 Points,386 points,PS2_L7.csv,,,,,,,,,,,,,,,,,,,,,,,,,,,,,0,6,6,6,0,6,6,6,,,,,,,,,,,,,,,,,,,2185.9883330010052,p,1.1256834579980932,2187.1700516260025,,,,,,,272533,B,2024-11-09_16h22.02.766,EPIDM,2023.1.2,None,
2516.jpg,8500.jpg,4 Points,4 Points,390 points,PS2_L7.csv,,,,,,,,,,,,,,,,,,,,,,,,,,,,,0,6,6,6,0,7,7,7,,,,,,,,,,,,,,,,,,,2191.4133096680016,q,2.884962666001229,2194.3643466680005,,,,,,,272533,B,2024-11-09_16h22.02.766,EPIDM,2023.1.2,None,
9070.jpg,9420.jpg,2 Points,2 Points,392 points,PS2_L7.csv,,,,,,,,,,,,,,,,,,,,,,,,,,,,,0,6,6,6,0,8,8,8,,,,,,,,,,,,,,,,,,,2198.610821126,q,0.8787656659987988,2199.562110209001,,,,,,,272533,B,2024-11-09_16h22.02.766,EPIDM,2023.1.2,None,
6561.jpg,1525.jpg,2 Points,2 Points,394 points,PS2_L7.csv,,,,,,,,,,,,,,,,,,,,,,,,,,,,,0,6,6,6,0,9,9,9,,,,,,,,,,,,,,,,,,,2203.801171126004,q,1.255827749002492,2205.120326793003,,,,,,,272533,B,2024-11-09_16h22.02.766,EPIDM,2023.1.2,None,
7175.jpg,7490.jpg,2 Points,2 Points,396 points,PS2_L7.csv,,,,,,,,,,,,,,,,,,,,,,,,,,,,,0,6,6,6,0,10,10,10,,,,,,,,,,,,,,,,,,,2209.370780668003,p,1.831371416003094,2211.2888887510053,,,,,,,272533,B,2024-11-09_16h22.02.766,EPIDM,2023.1.2,None,
8010.jpg,2630.jpg,0 Points,0 Points,396 points,PS2_L7.csv,,,,,,,,,,,,,,,,,,,,,,,,,,,,,0,6,6,6,0,11,11,11,,,,,,,,,,,,,,,,,,,2215.5280133339984,p,1.4093328329981887,2217.0038494590044,,,,,,,272533,B,2024-11-09_16h22.02.766,EPIDM,2023.1.2,None,
F174.jpg,9404.jpg,5 Points,5 Points,401 points,PS2_L7.csv,,,,,,,,,,,,,,,,,,,,,,,,,,,,,0,6,6,6,0,12,12,12,,,,,,,,,,,,,,,,,,,2221.240615834002,p,1.200069957994856,2222.5454059180047,,,,,,,272533,B,2024-11-09_16h22.02.766,EPIDM,2023.1.2,None,
2692.jpg,8231.jpg,4 Points,4 Points,405 points,PS2_L7.csv,,,,,,,,,,,,,,,,,,,,,,,,,,,,,0,6,6,6,0,13,13,13,,,,,,,,,,,,,,,,,,,2226.752261751004,p,3.4014167499990435,2230.255376334004,4,1.6943752910010517,,,,,272533,B,2024-11-09_16h22.02.766,EPIDM,2023.1.2,None,
5994.jpg,5390.jpg,0 Points,0 Points,405 points,PS2_L7.csv,,,,,,,,,,,,,,,,,,,,,,,,,,,,,0,6,6,6,0,14,14,14,,,,,,,,,,,,,,,,,,,2236.2127820430032,q,1.043442333000712,2237.3168316260053,,,,,,,272533,B,2024-11-09_16h22.02.766,EPIDM,2023.1.2,None,
9560.jpg,3071.jpg,1 Point,1 Point,406 points,PS2_L7.csv,,,,,,,,,,,,,,,,,,,,,,,,,,,,,0,6,6,6,0,15,15,15,,,,,,,,,,,,,,,,,,,2241.567661084002,q,0.7614921659987886,2242.402605043004,,,,,,,272533,B,2024-11-09_16h22.02.766,EPIDM,2023.1.2,None,
9330.jpg,3015.jpg,5 Points,5 Points,411 points,PS2_L7.csv,,,,,,,,,,,,,,,,,,,,,,,,,,,,,0,6,6,6,0,16,16,16,,,,,,,,,,,,,,,,,,,2246.649798834005,q,1.1833935829999973,2247.9041150429985,,,,,,,272533,B,2024-11-09_16h22.02.766,EPIDM,2023.1.2,None,
2389.jpg,7320.jpg,0 Points,0 Points,411 points,PS2_L7.csv,,,,,,,,,,,,,,,,,,,,,,,,,,,,,0,6,6,6,0,17,17,17,,,,,,,,,,,,,,,,,,,2252.1526452930048,q,2.8076627909977105,2255.036277584004,,,,,,,272533,B,2024-11-09_16h22.02.766,EPIDM,2023.1.2,None,
6570.1.jpg,9432.jpg,5 Points,5 Points,416 points,PS2_L7.csv,,,,,,,,,,,,,,,,,,,,,,,,,,,,,0,6,6,6,0,18,18,18,,,,,,,,,,,,,,,,,,,2259.275686834,p,0.6610146239981987,2260.0132896680007,,,,,,,272533,B,2024-11-09_16h22.02.766,EPIDM,2023.1.2,None,
9452.jpg,7184.jpg,4 Points,4 Points,420 points,PS2_L7.csv,,,,,,,,,,,,,,,,,,,,,,,,,,,,,0,6,6,6,0,19,19,19,,,,,,,,,,,,,,,,,,,2264.250308251001,p,1.9571590410050703,2266.280270875999,,,,,,,272533,B,2024-11-09_16h22.02.766,EPIDM,2023.1.2,None,
5120.jpg,5520.jpg,2 Points,2 Points,422 points,PS2_L7.csv,,,,,,,,,,,,,,,,,,,,,,,,,,,,,0,6,6,6,0,20,20,20,,,,,,,,,,,,,,,,,,,2270.5231005840033,p,1.4122620830021333,2272.008468459004,,,,,,,272533,B,2024-11-09_16h22.02.766,EPIDM,2023.1.2,None,
5970.jpg,3300.jpg,0 Points,0 Points,422 points,PS2_L7.csv,,,,,,,,,,,,,,,,,,,,,,,,,,,,,0,6,6,6,0,21,21,21,,,,,,,,,,,,,,,,,,,2276.250428584004,q,1.853869749000296,2278.1783403340014,,,,,,,272533,B,2024-11-09_16h22.02.766,EPIDM,2023.1.2,None,
7620.jpg,5395.jpg,1 Point,1 Point,423 points,PS2_L7.csv,,,,,,,,,,,,,,,,,,,,,,,,,,,,,0,6,6,6,0,22,22,22,,,,,,,,,,,,,,,,,,,2282.422807668001,p,2.792996623997169,2285.2772853339993,,,,,,,272533,B,2024-11-09_16h22.02.766,EPIDM,2023.1.2,None,
P019.jpg,F158.jpg,3 Points,3 Points,426 points,PS2_L7.csv,,,,,,,,,,,,,,,,,,,,,,,,,,,,,0,6,6,6,0,23,23,23,,,,,,,,,,,,,,,,,,,2289.5357977930034,p,1.343377999997756,2291.0199735429997,,,2301.421020959002,space,1.4665092909999657,,272533,B,2024-11-09_16h22.02.766,EPIDM,2023.1.2,None,
2620.jpg,2594.jpg,0 Points,0 Points,426 points,PS2_L8.csv,,,,,,,,,,,,,,,,,,,,,,,,,,,,,0,7,7,7,0,0,0,0,,,,,,,,,,,,,,,,,,,2306.193600001003,q,2.0616468739972333,2308.3630622089986,,,,,,,272533,B,2024-11-09_16h22.02.766,EPIDM,2023.1.2,None,
F369.jpg,3100.jpg,2 Points,2 Points,428 points,PS2_L8.csv,,,,,,,,,,,,,,,,,,,,,,,,,,,,,0,7,7,7,0,1,1,1,,,,,,,,,,,,,,,,,,,2312.574360751001,q,1.3444043749987031,2314.015501793001,2,1.215719457002706,,,,,272533,B,2024-11-09_16h22.02.766,EPIDM,2023.1.2,None,
1052.jpg,1201.jpg,3 Points,3 Points,431 points,PS2_L8.csv,,,,,,,,,,,,,,,,,,,,,,,,,,,,,0,7,7,7,0,2,2,2,,,,,,,,,,,,,,,,,,,2319.554042418,q,0.5560382500043488,2320.1865710839993,,,,,,,272533,B,2024-11-09_16h22.02.766,EPIDM,2023.1.2,None,
2606.jpg,2480.jpg,1 Point,1 Point,432 points,PS2_L8.csv,,,,,,,,,,,,,,,,,,,,,,,,,,,,,0,7,7,7,0,3,3,3,,,,,,,,,,,,,,,,,,,2324.434791833999,q,1.8353221240031417,2326.3310678339985,,,,,,,272533,B,2024-11-09_16h22.02.766,EPIDM,2023.1.2,None,
9594.jpg,1080.jpg,4 Points,4 Points,436 points,PS2_L8.csv,,,,,,,,,,,,,,,,,,,,,,,,,,,,,0,7,7,7,0,4,4,4,,,,,,,,,,,,,,,,,,,2330.576716168005,p,0.9003277490046457,2331.5579760840046,,,,,,,272533,B,2024-11-09_16h22.02.766,EPIDM,2023.1.2,None,
4770.jpg,4275.jpg,3 Points,3 Points,439 points,PS2_L8.csv,,,,,,,,,,,,,,,,,,,,,,,,,,,,,0,7,7,7,0,5,5,5,,,,,,,,,,,,,,,,,,,2335.7938549180035,q,1.387205207000079,2337.2595517510053,,,,,,,272533,B,2024-11-09_16h22.02.766,EPIDM,2023.1.2,None,
P077.jpg,A041.jpg,1 Point,1 Point,440 points,PS2_L8.csv,,,,,,,,,,,,,,,,,,,,,,,,,,,,,0,7,7,7,0,6,6,6,,,,,,,,,,,,,,,,,,,2341.484419751003,q,1.7205567909986712,2343.3536287509996,,,,,,,272533,B,2024-11-09_16h22.02.766,EPIDM,2023.1.2,None,
6550.jpg,9582.jpg,5 Points,5 Points,445 points,PS2_L8.csv,,,,,,,,,,,,,,,,,,,,,,,,,,,,,0,7,7,7,0,7,7,7,,,,,,,,,,,,,,,,,,,2347.5167651260053,p,1.511781956993218,2349.156852209002,,,,,,,272533,B,2024-11-09_16h22.02.766,EPIDM,2023.1.2,None,
8040.jpg,7185.jpg,1 Point,1 Point,446 points,PS2_L8.csv,,,,,,,,,,,,,,,,,,,,,,,,,,,,,0,7,7,7,0,8,8,8,,,,,,,,,,,,,,,,,,,2353.3570150840023,q,1.5765573739990941,2355.004374876,,,,,,,272533,B,2024-11-09_16h22.02.766,EPIDM,2023.1.2,None,
P233.jpg,3060.jpg,1 Point,1 Point,447 points,PS2_L8.csv,,,,,,,,,,,,,,,,,,,,,,,,,,,,,0,7,7,7,0,9,9,9,,,,,,,,,,,,,,,,,,,2359.2323484590015,q,2.4929618329988443,2361.835046209002,,,,,,,272533,B,2024-11-09_16h22.02.766,EPIDM,2023.1.2,None,
1090.jpg,P217.jpg,5 Points,5 Points,452 points,PS2_L8.csv,,,,,,,,,,,,,,,,,,,,,,,,,,,,,0,7,7,7,0,10,10,10,,,,,,,,,,,,,,,,,,,2366.031535084003,q,1.2002046249981504,2367.359520251004,,,,,,,272533,B,2024-11-09_16h22.02.766,EPIDM,2023.1.2,None,
9405.jpg,6250.2.jpg,3 Points,3 Points,455 points,PS2_L8.csv,,,,,,,,,,,,,,,,,,,,,,,,,,,,,0,7,7,7,0,11,11,11,,,,,,,,,,,,,,,,,,,2371.5497198340017,p,0.6475210819990025,2372.279940334003,,,,,,,272533,B,2024-11-09_16h22.02.766,EPIDM,2023.1.2,None,
1610.jpg,F203.jpg,0 Points,0 Points,455 points,PS2_L8.csv,,,,,,,,,,,,,,,,,,,,,,,,,,,,,0,7,7,7,0,12,12,12,,,,,,,,,,,,,,,,,,,2376.508706876004,p,1.8646215409971774,2378.4884791680015,,,,,,,272533,B,2024-11-09_16h22.02.766,EPIDM,2023.1.2,None,
P222.jpg,9401.jpg,2 Points,2 Points,457 points,PS2_L8.csv,,,,,,,,,,,,,,,,,,,,,,,,,,,,,0,7,7,7,0,13,13,13,,,,,,,,,,,,,,,,,,,2382.690711043004,p,0.9302622489994974,2383.730230168003,2,1.0948027909980738,,,,,272533,B,2024-11-09_16h22.02.766,EPIDM,2023.1.2,None,
5471.jpg,7352.jpg,2 Points,2 Points,459 points,PS2_L8.csv,,,,,,,,,,,,,,,,,,,,,,,,,,,,,0,7,7,7,0,14,14,14,,,,,,,,,,,,,,,,,,,2389.1243320010035,q,1.520122291003645,2390.715475709003,,,,,,,272533,B,2024-11-09_16h22.02.766,EPIDM,2023.1.2,None,
9042.jpg,2753.jpg,0 Points,0 Points,459 points,PS2_L8.csv,,,,,,,,,,,,,,,,,,,,,,,,,,,,,0,7,7,7,0,15,15,15,,,,,,,,,,,,,,,,,,,2394.9634569180052,p,1.136540123996383,2396.1639272930042,,,,,,,272533,B,2024-11-09_16h22.02.766,EPIDM,2023.1.2,None,
8311.jpg,4609.jpg,2 Points,2 Points,461 points,PS2_L8.csv,,,,,,,,,,,,,,,,,,,,,,,,,,,,,0,7,7,7,0,16,16,16,,,,,,,,,,,,,,,,,,,2400.418109709004,q,2.082620000001043,2402.573861334,,,,,,,272533,B,2024-11-09_16h22.02.766,EPIDM,2023.1.2,None,
2320.jpg,2791.jpg,4 Points,4 Points,465 points,PS2_L8.csv,,,,,,,,,,,,,,,,,,,,,,,,,,,,,0,7,7,7,0,17,17,17,,,,,,,,,,,,,,,,,,,2406.8241993340052,q,1.2834708750015125,2408.176553793004,,,,,,,272533,B,2024-11-09_16h22.02.766,EPIDM,2023.1.2,None,
F365.jpg,3180.jpg,5 Points,5 Points,470 points,PS2_L8.csv,,,,,,,,,,,,,,,,,,,,,,,,,,,,,0,7,7,7,0,18,18,18,,,,,,,,,,,,,,,,,,,2412.4315537510047,p,1.0525805409997702,2413.579768376003,,,,,,,272533,B,2024-11-09_16h22.02.766,EPIDM,2023.1.2,None,
9300.jpg,1050.jpg,4 Points,4 Points,474 points,PS2_L8.csv,,,,,,,,,,,,,,,,,,,,,,,,,,,,,0,7,7,7,0,19,19,19,,,,,,,,,,,,,,,,,,,2417.798175584001,p,0.6701029570031096,2418.5671927090007,,,,,,,272533,B,2024-11-09_16h22.02.766,EPIDM,2023.1.2,None,
6150.jpg,2206.jpg,0 Points,0 Points,474 points,PS2_L8.csv,,,,,,,,,,,,,,,,,,,,,,,,,,,,,0,7,7,7,0,20,20,20,,,,,,,,,,,,,,,,,,,2422.7848324590013,p,2.8903728739969665,2425.7522534180025,,,,,,,272533,B,2024-11-09_16h22.02.766,EPIDM,2023.1.2,None,
6260.jpg,3062.jpg,3 Points,3 Points,477 points,PS2_L8.csv,,,,,,,,,,,,,,,,,,,,,,,,,,,,,0,7,7,7,0,21,21,21,,,,,,,,,,,,,,,,,,,2429.9894879589992,q,0.9738630409992766,2431.032663584003,,,,,,,272533,B,2024-11-09_16h22.02.766,EPIDM,2023.1.2,None,
6571.jpg,P237.jpg,2 Points,2 Points,479 points,PS2_L8.csv,,,,,,,,,,,,,,,,,,,,,,,,,,,,,0,7,7,7,0,22,22,22,,,,,,,,,,,,,,,,,,,2435.273275918,q,1.6255799999998999,2437.0067869179984,,,,,,,272533,B,2024-11-09_16h22.02.766,EPIDM,2023.1.2,None,
7283.jpg,1720.jpg,4 Points,4 Points,483 points,PS2_L8.csv,,,,,,,,,,,,,,,,,,,,,,,,,,,,,0,7,7,7,0,23,23,23,,,,,,,,,,,,,,,,,,,2441.212239250999,p,1.382648248996702,2442.6692108339994,,,2453.1424020839986,space,3.7002805820011417,,272533,B,2024-11-09_16h22.02.766,EPIDM,2023.1.2,None,
3160.jpg,6210.jpg,1 Point,1 Point,484 points,PS2_L9.csv,,,,,,,,,,,,,,,,,,,,,,,,,,,,,0,8,8,8,0,0,0,0,,,,,,,,,,,,,,,,,,,2460.153518668005,p,0.6966845409988309,2460.9199053340053,,,,,,,272533,B,2024-11-09_16h22.02.766,EPIDM,2023.1.2,None,
2100.jpg,7205.jpg,5 Points,5 Points,489 points,PS2_L9.csv,,,,,,,,,,,,,,,,,,,,,,,,,,,,,0,8,8,8,0,1,1,1,,,,,,,,,,,,,,,,,,,2465.156319542999,p,1.7183652079984313,2466.9414038760005,5,1.7244185410017963,,,,,272533,B,2024-11-09_16h22.02.766,EPIDM,2023.1.2,None,
9110.jpg,3051.jpg,1 Point,1 Point,490 points,PS2_L9.csv,,,,,,,,,,,,,,,,,,,,,,,,,,,,,0,8,8,8,0,2,2,2,,,,,,,,,,,,,,,,,,,2472.993640667999,q,0.7532879579957807,2473.8307416680036,,,,,,,272533,B,2024-11-09_16h22.02.766,EPIDM,2023.1.2,None,
9101.jpg,9571.jpg,2 Points,2 Points,492 points,PS2_L9.csv,,,,,,,,,,,,,,,,,,,,,,,,,,,,,0,8,8,8,0,3,3,3,,,,,,,,,,,,,,,,,,,2478.0602315430006,q,1.470114415998978,2479.6047725009994,,,,,,,272533,B,2024-11-09_16h22.02.766,EPIDM,2023.1.2,None,
5410.jpg,1450.jpg,5 Points,5 Points,497 points,PS2_L9.csv,,,,,,,,,,,,,,,,,,,,,,,,,,,,,0,8,8,8,0,4,4,4,,,,,,,,,,,,,,,,,,,2483.8403456680026,q,0.7700510409995331,2484.667910918004,,,,,,,272533,B,2024-11-09_16h22.02.766,EPIDM,2023.1.2,None,
F149.jpg,3030.jpg,0 Points,0 Points,497 points,PS2_L9.csv,,,,,,,,,,,,,,,,,,,,,,,,,,,,,0,8,8,8,0,5,5,5,,,,,,,,,,,,,,,,,,,2488.917695543001,q,1.3563645829999587,2490.3727908340006,,,,,,,272533,B,2024-11-09_16h22.02.766,EPIDM,2023.1.2,None,
3266.jpg,7360.jpg,1 Point,1 Point,498 points,PS2_L9.csv,,,,,,,,,,,,,,,,,,,,,,,,,,,,,0,8,8,8,0,6,6,6,,,,,,,,,,,,,,,,,,,2494.5755361679985,p,1.2265415000001667,2495.9094320430013,,,,,,,272533,B,2024-11-09_16h22.02.766,EPIDM,2023.1.2,None,
5660.jpg,5201.jpg,0 Points,0 Points,498 points,PS2_L9.csv,,,,,,,,,,,,,,,,,,,,,,,,,,,,,0,8,8,8,0,7,7,7,,,,,,,,,,,,,,,,,,,2500.1125757510017,q,0.8568749999976717,2501.0532730429986,,,,,,,272533,B,2024-11-09_16h22.02.766,EPIDM,2023.1.2,None,
1945.jpg,2800.jpg,4 Points,4 Points,502 points,PS2_L9.csv,,,,,,,,,,,,,,,,,,,,,,,,,,,,,0,8,8,8,0,8,8,8,,,,,,,,,,,,,,,,,,,2505.288848959004,q,2.4651846660053707,2507.824722876001,,,,,,,272533,B,2024-11-09_16h22.02.766,EPIDM,2023.1.2,None,
3000.jpg,6200.jpg,5 Points,5 Points,507 points,PS2_L9.csv,,,,,,,,,,,,,,,,,,,,,,,,,,,,,0,8,8,8,0,9,9,9,,,,,,,,,,,,,,,,,,,2512.0663192930006,p,0.5108242909991532,2512.648822793002,,,,,,,272533,B,2024-11-09_16h22.02.766,EPIDM,2023.1.2,None,
2215.jpg,2512.jpg,1 Point,1 Point,508 points,PS2_L9.csv,,,,,,,,,,,,,,,,,,,,,,,,,,,,,0,8,8,8,0,10,10,10,,,,,,,,,,,,,,,,,,,2516.8824488340033,p,1.6547154579966445,2518.6030525430033,,,,,,,272533,B,2024-11-09_16h22.02.766,EPIDM,2023.1.2,None,
5460.jpg,5800.jpg,0 Points,0 Points,508 points,PS2_L9.csv,,,,,,,,,,,,,,,,,,,,,,,,,,,,,0,8,8,8,0,11,11,11,,,,,,,,,,,,,,,,,,,2522.8398624590045,q,0.9365729159981129,2523.8485705839994,,,,,,,272533,B,2024-11-09_16h22.02.766,EPIDM,2023.1.2,None,
3061.jpg,2717.jpg,4 Points,4 Points,512 points,PS2_L9.csv,,,,,,,,,,,,,,,,,,,,,,,,,,,,,0,8,8,8,0,12,12,12,,,,,,,,,,,,,,,,,,,2528.0797975840032,p,1.3124880410032347,2529.465842958998,,,,,,,272533,B,2024-11-09_16h22.02.766,EPIDM,2023.1.2,None,
7380.jpg,1220.jpg,1 Point,1 Point,513 points,PS2_L9.csv,,,,,,,,,,,,,,,,,,,,,,,,,,,,,0,8,8,8,0,13,13,13,,,,,,,,,,,,,,,,,,,2533.705727376,q,1.4227688329992816,2535.191676168004,1,2.2210096240014536,,,,,272533,B,2024-11-09_16h22.02.766,EPIDM,2023.1.2,None,
1740.jpg,7480.jpg,0 Points,0 Points,513 points,PS2_L9.csv,,,,,,,,,,,,,,,,,,,,,,,,,,,,,0,8,8,8,0,14,14,14,,,,,,,,,,,,,,,,,,,2541.7326357929996,q,2.851848375001282,2544.6570784180003,,,,,,,272533,B,2024-11-09_16h22.02.766,EPIDM,2023.1.2,None,
7285.jpg,4233.jpg,5 Points,5 Points,518 points,PS2_L9.csv,,,,,,,,,,,,,,,,,,,,,,,,,,,,,0,8,8,8,0,15,15,15,,,,,,,,,,,,,,,,,,,2548.8988606679995,p,2.3103140000021085,2551.294692376003,,,,,,,272533,B,2024-11-09_16h22.02.766,EPIDM,2023.1.2,None,
6830.jpg,6212.jpg,4 Points,4 Points,522 points,PS2_L9.csv,,,,,,,,,,,,,,,,,,,,,,,,,,,,,0,8,8,8,0,16,16,16,,,,,,,,,,,,,,,,,,,2555.5282244180053,q,2.2084786239938694,2557.811850168,,,,,,,272533,B,2024-11-09_16h22.02.766,EPIDM,2023.1.2,None,
7830.jpg,2499.jpg,3 Points,3 Points,525 points,PS2_L9.csv,,,,,,,,,,,,,,,,,,,,,,,,,,,,,0,8,8,8,0,17,17,17,,,,,,,,,,,,,,,,,,,2562.0589579590014,q,1.3664507499997853,2563.4939530429983,,,,,,,272533,B,2024-11-09_16h22.02.766,EPIDM,2023.1.2,None,
9520.jpg,1931.jpg,3 Points,3 Points,528 points,PS2_L9.csv,,,,,,,,,,,,,,,,,,,,,,,,,,,,,0,8,8,8,0,18,18,18,,,,,,,,,,,,,,,,,,,2567.7363849180038,p,1.895509290996415,2569.692675834005,,,,,,,272533,B,2024-11-09_16h22.02.766,EPIDM,2023.1.2,None,
9160.jpg,1200.jpg,4 Points,4 Points,532 points,PS2_L9.csv,,,,,,,,,,,,,,,,,,,,,,,,,,,,,0,8,8,8,0,19,19,19,,,,,,,,,,,,,,,,,,,2573.9440643339985,q,0.9196847490020446,2574.9374284590012,,,,,,,272533,B,2024-11-09_16h22.02.766,EPIDM,2023.1.2,None,
2020.jpg,1947.jpg,5 Points,5 Points,537 points,PS2_L9.csv,,,,,,,,,,,,,,,,,,,,,,,,,,,,,0,8,8,8,0,20,20,20,,,,,,,,,,,,,,,,,,,2579.1675512510046,p,1.8575711250014137,2581.0968446260013,,,,,,,272533,B,2024-11-09_16h22.02.766,EPIDM,2023.1.2,None,
4535.jpg,1811.jpg,1 Point,1 Point,538 points,PS2_L9.csv,,,,,,,,,,,,,,,,,,,,,,,,,,,,,0,8,8,8,0,21,21,21,,,,,,,,,,,,,,,,,,,2585.339662626,q,1.075411083002109,2586.4882365010053,,,,,,,272533,B,2024-11-09_16h22.02.766,EPIDM,2023.1.2,None,
9910.jpg,6940.jpg,2 Points,2 Points,540 points,PS2_L9.csv,,,,,,,,,,,,,,,,,,,,,,,,,,,,,0,8,8,8,0,22,22,22,,,,,,,,,,,,,,,,,,,2590.7335583759996,p,3.417849623998336,2594.215607834005,,,,,,,272533,B,2024-11-09_16h22.02.766,EPIDM,2023.1.2,None,
9480.jpg,9250.jpg,0 Points,0 Points,540 points,PS2_L9.csv,,,,,,,,,,,,,,,,,,,,,,,,,,,,,0,8,8,8,0,23,23,23,,,,,,,,,,,,,,,,,,,2598.4605402509987,q,2.250333000003593,2600.773540875998,,,2611.2512035430045,space,3.4021503319963813,,272533,B,2024-11-09_16h22.02.766,EPIDM,2023.1.2,None,
1660.jpg,2840.jpg,2 Points,2 Points,542 points,PS2_L10.csv,,,,,,,,,,,,,,,,,,,,,,,,,,,,,0,9,9,9,0,0,0,0,,,,,,,,,,,,,,,,,,,2617.966762876,q,1.9351560409995727,2619.973170584002,,,,,,,272533,B,2024-11-09_16h22.02.766,EPIDM,2023.1.2,None,
2691.jpg,7640.jpg,0 Points,0 Points,542 points,PS2_L10.csv,,,,,,,,,,,,,,,,,,,,,,,,,,,,,0,9,9,9,0,1,1,1,,,,,,,,,,,,,,,,,,,2624.2073076259985,p,2.1593698329961626,2626.4413716260024,0,1.7117899160002708,,,,,272533,B,2024-11-09_16h22.02.766,EPIDM,2023.1.2,None,
9180.jpg,9046.jpg,3 Points,3 Points,545 points,PS2_L10.csv,,,,,,,,,,,,,,,,,,,,,,,,,,,,,0,9,9,9,0,2,2,2,,,,,,,,,,,,,,,,,,,2632.462979418,p,3.238345999001467,2635.771736668001,,,,,,,272533,B,2024-11-09_16h22.02.766,EPIDM,2023.1.2,None,
8041.jpg,2271.jpg,2 Points,2 Points,547 points,PS2_L10.csv,,,,,,,,,,,,,,,,,,,,,,,,,,,,,0,9,9,9,0,3,3,3,,,,,,,,,,,,,,,,,,,2640.019065125998,q,0.5937643740035128,2640.687122001,,,,,,,272533,B,2024-11-09_16h22.02.766,EPIDM,2023.1.2,None,
1661.jpg,1321.jpg,3 Points,3 Points,550 points,PS2_L10.csv,,,,,,,,,,,,,,,,,,,,,,,,,,,,,0,9,9,9,0,4,4,4,,,,,,,,,,,,,,,,,,,2644.925482917999,p,1.9518155000041588,2646.9404515839997,,,,,,,272533,B,2024-11-09_16h22.02.766,EPIDM,2023.1.2,None,
9430.jpg,3010.jpg,5 Points,5 Points,555 points,PS2_L10.csv,,,,,,,,,,,,,,,,,,,,,,,,,,,,,0,9,9,9,0,5,5,5,,,,,,,,,,,,,,,,,,,2651.185019001001,q,1.1002360829952522,2652.3410322510026,,,,,,,272533,B,2024-11-09_16h22.02.766,EPIDM,2023.1.2,None,
2616.jpg,7238.jpg,4 Points,4 Points,559 points,PS2_L10.csv,,,,,,,,,,,,,,,,,,,,,,,,,,,,,0,9,9,9,0,6,6,6,,,,,,,,,,,,,,,,,,,2656.5914510010043,p,3.1498570410039974,2659.804457668004,,,,,,,272533,B,2024-11-09_16h22.02.766,EPIDM,2023.1.2,None,
9470.jpg,9400.jpg,3 Points,3 Points,562 points,PS2_L10.csv,,,,,,,,,,,,,,,,,,,,,,,,,,,,,0,9,9,9,0,7,7,7,,,,,,,,,,,,,,,,,,,2664.0512694179997,q,1.5375858749976032,2665.6553983760023,,,,,,,272533,B,2024-11-09_16h22.02.766,EPIDM,2023.1.2,None,
8260.jpg,8280.jpg,3 Points,3 Points,565 points,PS2_L10.csv,,,,,,,,,,,,,,,,,,,,,,,,,,,,,0,9,9,9,0,8,8,8,,,,,,,,,,,,,,,,,,,2669.8953879590044,q,1.8123054160023457,2671.774109042999,,,,,,,272533,B,2024-11-09_16h22.02.766,EPIDM,2023.1.2,None,
9230.jpg,9181.jpg,0 Points,0 Points,565 points,PS2_L10.csv,,,,,,,,,,,,,,,,,,,,,,,,,,,,,0,9,9,9,0,9,9,9,,,,,,,,,,,,,,,,,,,2676.0253942089985,q,1.499221457997919,2677.5963353760017,,,,,,,272533,B,2024-11-09_16h22.02.766,EPIDM,2023.1.2,None,
6834.jpg,9120.jpg,5 Points,5 Points,570 points,PS2_L10.csv,,,,,,,,,,,,,,,,,,,,,,,,,,,,,0,9,9,9,0,10,10,10,,,,,,,,,,,,,,,,,,,2681.851325001,q,3.433131541001785,2685.340653209001,,,,,,,272533,B,2024-11-09_16h22.02.766,EPIDM,2023.1.2,None,
2440.jpg,7351.jpg,4 Points,4 Points,574 points,PS2_L10.csv,,,,,,,,,,,,,,,,,,,,,,,,,,,,,0,9,9,9,0,11,11,11,,,,,,,,,,,,,,,,,,,2689.5980392929996,q,1.3747223739992478,2691.0538252510014,,,,,,,272533,B,2024-11-09_16h22.02.766,EPIDM,2023.1.2,None,
9280.jpg,9390.jpg,1 Point,1 Point,575 points,PS2_L10.csv,,,,,,,,,,,,,,,,,,,,,,,,,,,,,0,9,9,9,0,12,12,12,,,,,,,,,,,,,,,,,,,2695.2946740840052,p,1.6300510830042185,2697.0056743759997,,,,,,,272533,B,2024-11-09_16h22.02.766,EPIDM,2023.1.2,None,
7186.jpg,9182.jpg,2 Points,2 Points,577 points,PS2_L10.csv,,,,,,,,,,,,,,,,,,,,,,,,,,,,,0,9,9,9,0,13,13,13,,,,,,,,,,,,,,,,,,,2701.251873418005,q,1.448427040995739,2702.7776592090013,2,2.6166064580029342,,,,,272533,B,2024-11-09_16h22.02.766,EPIDM,2023.1.2,None,
7820.jpg,1121.jpg,0 Points,0 Points,577 points,PS2_L10.csv,,,,,,,,,,,,,,,,,,,,,,,,,,,,,0,9,9,9,0,14,14,14,,,,,,,,,,,,,,,,,,,2709.7029819180025,p,1.1329042490033316,2710.9059542930045,,,,,,,272533,B,2024-11-09_16h22.02.766,EPIDM,2023.1.2,None,
1110.jpg,9331.jpg,2 Points,2 Points,579 points,PS2_L10.csv,,,,,,,,,,,,,,,,,,,,,,,,,,,,,0,9,9,9,0,15,15,15,,,,,,,,,,,,,,,,,,,2715.1400726680004,q,0.904075416001433,2716.108182668002,,,,,,,272533,B,2024-11-09_16h22.02.766,EPIDM,2023.1.2,None,
9001.jpg,9620.jpg,1 Point,1 Point,580 points,PS2_L10.csv,,,,,,,,,,,,,,,,,,,,,,,,,,,,,0,9,9,9,0,16,16,16,,,,,,,,,,,,,,,,,,,2720.354365375999,q,1.8669192910019774,2722.3002617090024,,,,,,,272533,B,2024-11-09_16h22.02.766,EPIDM,2023.1.2,None,
5535.jpg,8210.jpg,3 Points,3 Points,583 points,PS2_L10.csv,,,,,,,,,,,,,,,,,,,,,,,,,,,,,0,9,9,9,0,17,17,17,,,,,,,,,,,,,,,,,,,2726.534023584005,p,1.5331682489995728,2728.140531959005,,,,,,,272533,B,2024-11-09_16h22.02.766,EPIDM,2023.1.2,None,
7950.jpg,7187.jpg,1 Point,1 Point,584 points,PS2_L10.csv,,,,,,,,,,,,,,,,,,,,,,,,,,,,,0,9,9,9,0,18,18,18,,,,,,,,,,,,,,,,,,,2732.3797675840033,q,1.2631590829987545,2733.714640418002,,,,,,,272533,B,2024-11-09_16h22.02.766,EPIDM,2023.1.2,None,
3250.jpg,A053.jpg,3 Points,3 Points,587 points,PS2_L10.csv,,,,,,,,,,,,,,,,,,,,,,,,,,,,,0,9,9,9,0,19,19,19,,,,,,,,,,,,,,,,,,,2737.9565900430025,p,2.3095495410016156,2740.3689262510015,,,,,,,272533,B,2024-11-09_16h22.02.766,EPIDM,2023.1.2,None,
2205.jpg,3053.jpg,4 Points,4 Points,591 points,PS2_L10.csv,,,,,,,,,,,,,,,,,,,,,,,,,,,,,0,9,9,9,0,20,20,20,,,,,,,,,,,,,,,,,,,2744.5809389179994,q,1.5499451240029885,2746.2275095430014,,,,,,,272533,B,2024-11-09_16h22.02.766,EPIDM,2023.1.2,None,
5594.jpg,5750.jpg,5 Points,5 Points,596 points,PS2_L10.csv,,,,,,,,,,,,,,,,,,,,,,,,,,,,,0,9,9,9,0,21,21,21,,,,,,,,,,,,,,,,,,,2750.4319865430007,p,1.7304321659976267,2752.245491709,,,,,,,272533,B,2024-11-09_16h22.02.766,EPIDM,2023.1.2,None,
6900.jpg,8531.jpg,4 Points,4 Points,600 points,PS2_L10.csv,,,,,,,,,,,,,,,,,,,,,,,,,,,,,0,9,9,9,0,22,22,22,,,,,,,,,,,,,,,,,,,2756.489592251004,p,1.47263104099693,2758.036313126002,,,,,,,272533,B,2024-11-09_16h22.02.766,EPIDM,2023.1.2,None,
1019.jpg,2120.jpg,0 Points,0 Points,600 points,PS2_L10.csv,,,,,,,,,,,,,,,,,,,,,,,,,,,,,0,9,9,9,0,23,23,23,,,,,,,,,,,,,,,,,,,2762.276252333999,q,1.0781549160019495,2763.4219115009982,,,2773.874279001,space,9.104154207001557,,272533,B,2024-11-09_16h22.02.766,EPIDM,2023.1.2,None,
