L_Scene,R_Scene,Points_L,Points_R,PtTotal,blockFile,Instructions_Loop.thisRepN,Instructions_Loop.thisTrialN,Instructions_Loop.thisN,Instructions_Loop.thisIndex,Redo_Instructions_Loop.thisRepN,Redo_Instructions_Loop.thisTrialN,Redo_Instructions_Loop.thisN,Redo_Instructions_Loop.thisIndex,Practice_Encoding_Loop.thisRepN,Practice_Encoding_Loop.thisTrialN,Practice_Encoding_Loop.thisN,Practice_Encoding_Loop.thisIndex,Practice_Response_Fail_Loop.thisRepN,Practice_Response_Fail_Loop.thisTrialN,Practice_Response_Fail_Loop.thisN,Practice_Response_Fail_Loop.thisIndex,Practice_FB_Loop.thisRepN,Practice_FB_Loop.thisTrialN,Practice_FB_Loop.thisN,Practice_FB_Loop.thisIndex,Practice_Attention_Loop.thisRepN,Practice_Attention_Loop.thisTrialN,Practice_Attention_Loop.thisN,Practice_Attention_Loop.thisIndex,Practice_EncBrk_Loop.thisRepN,Practice_EncBrk_Loop.thisTrialN,Practice_EncBrk_Loop.thisN,Practice_EncBrk_Loop.thisIndex,Encoding_Loop.thisRepN,Encoding_Loop.thisTrialN,Encoding_Loop.thisN,Encoding_Loop.thisIndex,EncStim_Loop.thisRepN,EncStim_Loop.thisTrialN,EncStim_Loop.thisN,EncStim_Loop.thisIndex,Response_Fail_Loop.thisRepN,Response_Fail_Loop.thisTrialN,Response_Fail_Loop.thisN,Response_Fail_Loop.thisIndex,FB_Loop.thisRepN,FB_Loop.thisTrialN,FB_Loop.thisN,FB_Loop.thisIndex,Attention_Loop.thisRepN,Attention_Loop.thisTrialN,Attention_Loop.thisN,Attention_Loop.thisIndex,EncBrk_Loop.thisRepN,EncBrk_Loop.thisTrialN,EncBrk_Loop.thisN,EncBrk_Loop.thisIndex,Transition_Enc.keys,Transition_Enc.rt,Encoding_Resp.started,Encoding_Resp.keys,Encoding_Resp.rt,R_Point_FB_Stim.started,Attn_resp.keys,Attn_resp.rt,Progress_Tracker.started,EncBrk_Resp.keys,EncBrk_Resp.rt,participant,Group,date,expName,psychopyVersion,frameRate,
,,,,,,,,,,,,,,,,,,,,,,,,,,,,,,,,,,,,,,,,,,,,,,,,,,,,,,,,,,space,9.55210366693791,,,,,,,,,,271216,B,2024-06-27_14h20.36.035,EPIDM,2023.1.2,None,
A060.jpg,F041.jpg,5 Points,5 Points,5 Points,,,,,,,,,,0,0,0,0,,,,,,,,,,,,,,,,,,,,,,,,,,,,,,,,,,,,,,,,,,,1165.6728937079897,p,2.8823007920291275,1168.7089820419205,,,,,,271216,B,2024-06-27_14h20.36.035,EPIDM,2023.1.2,None,
O161.jpg,1812.jpg,2 Points,2 Points,7 Points,,,,,,,,,,0,1,1,1,,,,,,,,,,,,,,,,,,,,,,,,,,,,,,,,,,,,,,,,,,,1172.8784066250082,p,2.653847749927081,1175.6679079169407,,,,,,271216,B,2024-06-27_14h20.36.035,EPIDM,2023.1.2,None,
O013.jpg,A001.jpg,3 Points,3 Points,10 Points,,,,,,,,,,0,2,2,2,,,,,,,,,,,,,,,,,,,,,,,,,,,,,,,,,,,,,,,,,,,1179.845685667009,q,3.118619667016901,1183.1086130830226,,,,,,271216,B,2024-06-27_14h20.36.035,EPIDM,2023.1.2,None,
P036.jpg,F273.jpg,5 Points,5 Points,15 Points,,,,,,,,,,0,3,3,3,,,,,,,,,,,,,,,,,,,,,,,,,,,,,,,,,,,,,,,,,,,1187.2756992919603,q,3.3524851669790223,1190.7908537499607,,,,,,271216,B,2024-06-27_14h20.36.035,EPIDM,2023.1.2,None,
L130.jpg,2393.jpg,0 Points,0 Points,15 Points,,,,,,,,,,0,4,4,4,,,,,,,,,,,,,,,,,,,,,,,,,,,,,,,,,,,,,,,,,,,1194.949648333015,p,1.4697243339614943,1196.5573133330327,0,8.347140791942365,,,,271216,B,2024-06-27_14h20.36.035,EPIDM,2023.1.2,None,
F279.jpg,P033.jpg,3 Points,3 Points,18 Points,,,,,,,,,,0,5,5,5,,,,,,,,,,,,,,,,,,,,,,,,,,,,,,,,,,,,,,,,,,,1209.1967145829694,None,,,,,,,,271216,B,2024-06-27_14h20.36.035,EPIDM,2023.1.2,None,
A104.jpg,2593.jpg,2 Points,2 Points,20 Points,,,,,,,,,,0,6,6,6,,,,,,,,,,,,,,,,,,,,,,,,,,,,,,,,,,,,,,,,,,,1216.6860342499567,q,1.6693367509869859,1218.4593657919904,,,,,,271216,B,2024-06-27_14h20.36.035,EPIDM,2023.1.2,None,
2598.jpg,2605.jpg,0 Points,0 Points,20 Points,,,,,,,,,,0,7,7,7,,,,,,,,,,,,,,,,,,,,,,,,,,,,,,,,,,,,,,,,,,,1222.6759402080206,p,2.554077375913039,1225.338641499984,,,,,,271216,B,2024-06-27_14h20.36.035,EPIDM,2023.1.2,None,
L005.jpg,O011.jpg,1 Points,1 Points,21 Points,,,,,,,,,,0,8,8,8,,,,,,,,,,,,,,,,,,,,,,,,,,,,,,,,,,,,,,,,,,,1229.5530304579297,None,,,,,,,,271216,B,2024-06-27_14h20.36.035,EPIDM,2023.1.2,None,
8186.jpg,F078.jpg,2 Points,2 Points,23 Points,,,,,,,,,,0,9,9,9,,,,,,,,,,,,,,,,,,,,,,,,,,,,,,,,,,,,,,,,,,,1237.0616144170053,q,1.2372857079608366,1238.414844624931,2,7.836126917041838,1256.5018594999565,space,19.05243995890487,271216,B,2024-06-27_14h20.36.035,EPIDM,2023.1.2,None,
,,,,,,,,,,,,,,,,,,,,,,,,,,,,,,,,,,,,,,,,,,,,,,,,,,,,,,,,,,space,4.518177250982262,,,,,,,,,,271216,B,2024-06-27_14h20.36.035,EPIDM,2023.1.2,None,
7284.jpg,8021.jpg,4 Points,4 Points,4 Points,PS2_L1.csv,,,,,,,,,,,,,,,,,,,,,,,,,,,,,0,0,0,0,0,0,0,0,,,,,,,,,,,,,,,,,,,1344.1589529999765,p,0.8590278340270743,1345.111015166971,,,,,,271216,B,2024-06-27_14h20.36.035,EPIDM,2023.1.2,None,
2214.jpg,4500.jpg,3 Points,3 Points,7 points,PS2_L1.csv,,,,,,,,,,,,,,,,,,,,,,,,,,,,,0,0,0,0,0,1,1,1,,,,,,,,,,,,,,,,,,,1349.3435220000101,p,1.3853094580117613,1350.800191791961,3,3.138937499956228,,,,271216,B,2024-06-27_14h20.36.035,EPIDM,2023.1.2,None,
1280.jpg,9402.jpg,2 Points,2 Points,9 points,PS2_L1.csv,,,,,,,,,,,,,,,,,,,,,,,,,,,,,0,0,0,0,0,2,2,2,,,,,,,,,,,,,,,,,,,1358.2702152499696,q,1.9074965419713408,1360.2470708750188,,,,,,271216,B,2024-06-27_14h20.36.035,EPIDM,2023.1.2,None,
1650.jpg,2130.jpg,1 Points,1 Points,10 points,PS2_L1.csv,,,,,,,,,,,,,,,,,,,,,,,,,,,,,0,0,0,0,0,3,3,3,,,,,,,,,,,,,,,,,,,1364.5132783330046,q,1.4718463759636506,1366.0533506670035,,,,,,271216,B,2024-06-27_14h20.36.035,EPIDM,2023.1.2,None,
2221.jpg,2270.jpg,2 Points,2 Points,12 points,PS2_L1.csv,,,,,,,,,,,,,,,,,,,,,,,,,,,,,0,0,0,0,0,4,4,4,,,,,,,,,,,,,,,,,,,1370.3029291669372,q,0.9140719169517979,1371.2768247920321,,,,,,271216,B,2024-06-27_14h20.36.035,EPIDM,2023.1.2,None,
9373.jpg,9410.jpg,0 Points,0 Points,12 points,PS2_L1.csv,,,,,,,,,,,,,,,,,,,,,,,,,,,,,0,0,0,0,0,5,5,5,,,,,,,,,,,,,,,,,,,1375.5299980830168,q,1.5664479170227423,1377.1633202499943,,,,,,271216,B,2024-06-27_14h20.36.035,EPIDM,2023.1.2,None,
4250.jpg,7060.jpg,5 Points,5 Points,17 points,PS2_L1.csv,,,,,,,,,,,,,,,,,,,,,,,,,,,,,0,0,0,0,0,6,6,6,,,,,,,,,,,,,,,,,,,1381.4058290829416,q,1.043380458955653,1382.5216578330146,,,,,,271216,B,2024-06-27_14h20.36.035,EPIDM,2023.1.2,None,
5130.jpg,1810.jpg,3 Points,3 Points,20 points,PS2_L1.csv,,,,,,,,,,,,,,,,,,,,,,,,,,,,,0,0,0,0,0,7,7,7,,,,,,,,,,,,,,,,,,,1386.7619860420236,p,0.8645129590295255,1387.7122964579612,,,,,,271216,B,2024-06-27_14h20.36.035,EPIDM,2023.1.2,None,
6370.jpg,1270.jpg,4 Points,4 Points,24 points,PS2_L1.csv,,,,,,,,,,,,,,,,,,,,,,,,,,,,,0,0,0,0,0,8,8,8,,,,,,,,,,,,,,,,,,,1391.9460163749754,p,1.134119833004661,1393.1573906249832,,,,,,271216,B,2024-06-27_14h20.36.035,EPIDM,2023.1.2,None,
5480.jpg,8200.jpg,4 Points,4 Points,28 points,PS2_L1.csv,,,,,,,,,,,,,,,,,,,,,,,,,,,,,0,0,0,0,0,9,9,9,,,,,,,,,,,,,,,,,,,1397.3918465420138,q,1.2808081259718165,1398.7447858749656,,,,,,271216,B,2024-06-27_14h20.36.035,EPIDM,2023.1.2,None,
2520.jpg,8503.jpg,2 Points,2 Points,30 points,PS2_L1.csv,,,,,,,,,,,,,,,,,,,,,,,,,,,,,0,0,0,0,0,10,10,10,,,,,,,,,,,,,,,,,,,1402.991705207969,p,0.7678389579523355,1403.8377582919784,,,,,,271216,B,2024-06-27_14h20.36.035,EPIDM,2023.1.2,None,
5971.jpg,9912.jpg,5 Points,5 Points,35 points,PS2_L1.csv,,,,,,,,,,,,,,,,,,,,,,,,,,,,,0,0,0,0,0,11,11,11,,,,,,,,,,,,,,,,,,,1408.0824302079855,q,1.2381984578678384,1409.3844772499288,,,,,,271216,B,2024-06-27_14h20.36.035,EPIDM,2023.1.2,None,
7195.jpg,2487.jpg,2 Points,2 Points,37 points,PS2_L1.csv,,,,,,,,,,,,,,,,,,,,,,,,,,,,,0,0,0,0,0,12,12,12,,,,,,,,,,,,,,,,,,,1413.6380702080205,p,1.554879626026377,1415.259687499958,,,,,,271216,B,2024-06-27_14h20.36.035,EPIDM,2023.1.2,None,
6840.jpg,3080.jpg,1 Points,1 Points,38 points,PS2_L1.csv,,,,,,,,,,,,,,,,,,,,,,,,,,,,,0,0,0,0,0,13,13,13,,,,,,,,,,,,,,,,,,,1419.5148165000137,q,1.5163662089034915,1421.1027734170202,1,3.6702616669936106,,,,271216,B,2024-06-27_14h20.36.035,EPIDM,2023.1.2,None,
5510.jpg,2514.jpg,5 Points,5 Points,43 points,PS2_L1.csv,,,,,,,,,,,,,,,,,,,,,,,,,,,,,0,0,0,0,0,14,14,14,,,,,,,,,,,,,,,,,,,1429.0874474169686,q,0.9446676250081509,1430.0961009169696,,,,,,271216,B,2024-06-27_14h20.36.035,EPIDM,2023.1.2,None,
7170.jpg,2170.jpg,2 Points,2 Points,45 points,PS2_L1.csv,,,,,,,,,,,,,,,,,,,,,,,,,,,,,0,0,0,0,0,15,15,15,,,,,,,,,,,,,,,,,,,1434.348617416923,q,0.9156224170001224,1435.3432915830053,,,,,,271216,B,2024-06-27_14h20.36.035,EPIDM,2023.1.2,None,
6020.jpg,6300.jpg,2 Points,2 Points,47 points,PS2_L1.csv,,,,,,,,,,,,,,,,,,,,,,,,,,,,,0,0,0,0,0,16,16,16,,,,,,,,,,,,,,,,,,,1439.5852473329287,p,1.2546453760005534,1440.899088999955,,,,,,271216,B,2024-06-27_14h20.36.035,EPIDM,2023.1.2,None,
1942.jpg,2890.jpg,1 Points,1 Points,48 points,PS2_L1.csv,,,,,,,,,,,,,,,,,,,,,,,,,,,,,0,0,0,0,0,17,17,17,,,,,,,,,,,,,,,,,,,1445.158343332936,q,0.7135462919250131,1445.95579983294,,,,,,271216,B,2024-06-27_14h20.36.035,EPIDM,2023.1.2,None,
6241.jpg,9561.jpg,3 Points,3 Points,51 points,PS2_L1.csv,,,,,,,,,,,,,,,,,,,,,,,,,,,,,0,0,0,0,0,18,18,18,,,,,,,,,,,,,,,,,,,1450.2045925830025,q,1.2915065420093015,1451.5686517920112,,,,,,271216,B,2024-06-27_14h20.36.035,EPIDM,2023.1.2,None,
4536.jpg,2280.jpg,4 Points,4 Points,55 points,PS2_L1.csv,,,,,,,,,,,,,,,,,,,,,,,,,,,,,0,0,0,0,0,19,19,19,,,,,,,,,,,,,,,,,,,1455.8209891249426,q,1.0819942499510944,1456.9781741669867,,,,,,271216,B,2024-06-27_14h20.36.035,EPIDM,2023.1.2,None,
6000.jpg,6836.jpg,4 Points,4 Points,59 points,PS2_L1.csv,,,,,,,,,,,,,,,,,,,,,,,,,,,,,0,0,0,0,0,20,20,20,,,,,,,,,,,,,,,,,,,1461.2196638329187,p,1.4827299589524046,1462.7742142499192,,,,,,271216,B,2024-06-27_14h20.36.035,EPIDM,2023.1.2,None,
8232.jpg,4279.jpg,5 Points,5 Points,64 points,PS2_L1.csv,,,,,,,,,,,,,,,,,,,,,,,,,,,,,0,0,0,0,0,21,21,21,,,,,,,,,,,,,,,,,,,1467.018235082971,q,0.7165277079911903,1467.808370542014,,,,,,271216,B,2024-06-27_14h20.36.035,EPIDM,2023.1.2,None,
2312.jpg,2722.jpg,1 Points,1 Points,65 points,PS2_L1.csv,,,,,,,,,,,,,,,,,,,,,,,,,,,,,0,0,0,0,0,22,22,22,,,,,,,,,,,,,,,,,,,1472.0607822919264,p,0.6662677919957787,1472.8085485419724,,,,,,271216,B,2024-06-27_14h20.36.035,EPIDM,2023.1.2,None,
2750.jpg,9050.jpg,4 Points,4 Points,69 points,PS2_L1.csv,,,,,,,,,,,,,,,,,,,,,,,,,,,,,0,0,0,0,0,23,23,23,,,,,,,,,,,,,,,,,,,1477.0607407499338,p,1.066227458883077,1478.207522291923,,,1488.6838370829355,space,37.274127124925144,271216,B,2024-06-27_14h20.36.035,EPIDM,2023.1.2,None,
1113.jpg,1240.jpg,3 Points,3 Points,72 points,PS2_L2.csv,,,,,,,,,,,,,,,,,,,,,,,,,,,,,0,1,1,1,0,0,0,0,,,,,,,,,,,,,,,,,,,1529.2726998330327,p,1.604792458936572,1530.9535390000092,,,,,,271216,B,2024-06-27_14h20.36.035,EPIDM,2023.1.2,None,
8220.jpg,2410.jpg,4 Points,4 Points,76 points,PS2_L2.csv,,,,,,,,,,,,,,,,,,,,,,,,,,,,,0,1,1,1,0,1,1,1,,,,,,,,,,,,,,,,,,,1535.2001090829726,p,1.3502668340224773,1536.6254397080047,4,2.4939677919028327,,,,271216,B,2024-06-27_14h20.36.035,EPIDM,2023.1.2,None,
4621.jpg,3550.jpg,2 Points,2 Points,78 points,PS2_L2.csv,,,,,,,,,,,,,,,,,,,,,,,,,,,,,0,1,1,1,0,2,2,2,,,,,,,,,,,,,,,,,,,1543.4434007080272,p,1.3378759579500183,1544.8483052919619,,,,,,271216,B,2024-06-27_14h20.36.035,EPIDM,2023.1.2,None,
2751.jpg,6313.jpg,3 Points,3 Points,81 points,PS2_L2.csv,,,,,,,,,,,,,,,,,,,,,,,,,,,,,0,1,1,1,0,3,3,3,,,,,,,,,,,,,,,,,,,1549.09975045803,p,1.3380728339543566,1550.5144474169938,,,,,,271216,B,2024-06-27_14h20.36.035,EPIDM,2023.1.2,None,
4689.jpg,7009.jpg,5 Points,5 Points,86 points,PS2_L2.csv,,,,,,,,,,,,,,,,,,,,,,,,,,,,,0,1,1,1,0,4,4,4,,,,,,,,,,,,,,,,,,,1554.7632833329262,q,0.9852434169733897,1555.830873082974,,,,,,271216,B,2024-06-27_14h20.36.035,EPIDM,2023.1.2,None,
6831.jpg,2141.jpg,5 Points,5 Points,91 points,PS2_L2.csv,,,,,,,,,,,,,,,,,,,,,,,,,,,,,0,1,1,1,0,5,5,5,,,,,,,,,,,,,,,,,,,1560.076205792022,q,2.3769152918830514,1562.5393370420206,,,,,,271216,B,2024-06-27_14h20.36.035,EPIDM,2023.1.2,None,
9417.jpg,6530.jpg,1 Point,1 Point,92 points,PS2_L2.csv,,,,,,,,,,,,,,,,,,,,,,,,,,,,,0,1,1,1,0,6,6,6,,,,,,,,,,,,,,,,,,,1566.7926725419238,p,1.9160391669720411,1568.7869326670188,,,,,,271216,B,2024-06-27_14h20.36.035,EPIDM,2023.1.2,None,
7237.jpg,8510.jpg,4 Points,4 Points,96 points,PS2_L2.csv,,,,,,,,,,,,,,,,,,,,,,,,,,,,,0,1,1,1,0,7,7,7,,,,,,,,,,,,,,,,,,,1573.033413041965,p,1.8040270840283483,1574.917912957957,,,,,,271216,B,2024-06-27_14h20.36.035,EPIDM,2023.1.2,None,
4608.jpg,8320.jpg,1 Point,1 Point,97 points,PS2_L2.csv,,,,,,,,,,,,,,,,,,,,,,,,,,,,,0,1,1,1,0,8,8,8,,,,,,,,,,,,,,,,,,,1579.1559669169364,q,0.5926213749917224,1579.810636124923,,,,,,271216,B,2024-06-27_14h20.36.035,EPIDM,2023.1.2,None,
9254.jpg,9290.jpg,2 Points,2 Points,99 points,PS2_L2.csv,,,,,,,,,,,,,,,,,,,,,,,,,,,,,0,1,1,1,0,9,9,9,,,,,,,,,,,,,,,,,,,1584.0589289169293,q,2.113938875030726,1586.2376952079358,,,,,,271216,B,2024-06-27_14h20.36.035,EPIDM,2023.1.2,None,
9530.jpg,9220.jpg,1 Point,1 Point,100 points,PS2_L2.csv,,,,,,,,,,,,,,,,,,,,,,,,,,,,,0,1,1,1,0,10,10,10,,,,,,,,,,,,,,,,,,,1590.495715457946,p,1.525526626035571,1592.0854882500134,,,,,,271216,B,2024-06-27_14h20.36.035,EPIDM,2023.1.2,None,
2092.jpg,2210.jpg,0 Points,0 Points,100 points,PS2_L2.csv,,,,,,,,,,,,,,,,,,,,,,,,,,,,,0,1,1,1,0,11,11,11,,,,,,,,,,,,,,,,,,,1596.3467319579795,q,1.170216124970466,1597.5776479999768,,,,,,271216,B,2024-06-27_14h20.36.035,EPIDM,2023.1.2,None,
9500.jpg,6360.jpg,1 Point,1 Point,101 points,PS2_L2.csv,,,,,,,,,,,,,,,,,,,,,,,,,,,,,0,1,1,1,0,12,12,12,,,,,,,,,,,,,,,,,,,1601.8256756670307,q,2.163403166923672,1604.062431667,,,,,,271216,B,2024-06-27_14h20.36.035,EPIDM,2023.1.2,None,
2220.jpg,2010.jpg,5 Points,5 Points,106 points,PS2_L2.csv,,,,,,,,,,,,,,,,,,,,,,,,,,,,,0,1,1,1,0,13,13,13,,,,,,,,,,,,,,,,,,,1608.3063847079175,p,1.4739509170176461,1609.8537394169252,5,2.2777267509372905,,,,271216,B,2024-06-27_14h20.36.035,EPIDM,2023.1.2,None,
5940.jpg,9411.jpg,0 Points,0 Points,106 points,PS2_L2.csv,,,,,,,,,,,,,,,,,,,,,,,,,,,,,0,1,1,1,0,14,14,14,,,,,,,,,,,,,,,,,,,1616.445399624994,q,2.198977541993372,1618.7185634999769,,,,,,271216,B,2024-06-27_14h20.36.035,EPIDM,2023.1.2,None,
4533.jpg,2385.jpg,3 Points,3 Points,109 points,PS2_L2.csv,,,,,,,,,,,,,,,,,,,,,,,,,,,,,0,1,1,1,0,15,15,15,,,,,,,,,,,,,,,,,,,1622.9713665830204,q,1.5049897079588845,1624.5595078750048,,,,,,271216,B,2024-06-27_14h20.36.035,EPIDM,2023.1.2,None,
9340.jpg,6910.jpg,0 Points,0 Points,109 points,PS2_L2.csv,,,,,,,,,,,,,,,,,,,,,,,,,,,,,0,1,1,1,0,16,16,16,,,,,,,,,,,,,,,,,,,1628.8046614170307,p,1.3193434169515967,1630.204552249983,,,,,,271216,B,2024-06-27_14h20.36.035,EPIDM,2023.1.2,None,
8350.jpg,7190.jpg,5 Points,5 Points,114 points,PS2_L2.csv,,,,,,,,,,,,,,,,,,,,,,,,,,,,,0,1,1,1,0,17,17,17,,,,,,,,,,,,,,,,,,,1634.454368458013,q,1.4621910840505734,1635.9903125419514,,,,,,271216,B,2024-06-27_14h20.36.035,EPIDM,2023.1.2,None,
6211.jpg,9611.jpg,3 Points,3 Points,117 points ,PS2_L2.csv,,,,,,,,,,,,,,,,,,,,,,,,,,,,,0,1,1,1,0,18,18,18,,,,,,,,,,,,,,,,,,,1640.228137374972,q,2.0403222509194165,1642.332762792008,,,,,,271216,B,2024-06-27_14h20.36.035,EPIDM,2023.1.2,None,
2053.jpg,9415.jpg,4 Points,4 Points,121 points,PS2_L2.csv,,,,,,,,,,,,,,,,,,,,,,,,,,,,,0,1,1,1,0,19,19,19,,,,,,,,,,,,,,,,,,,1646.5748261249391,p,1.4531776249641553,1648.08137695794,,,,,,271216,B,2024-06-27_14h20.36.035,EPIDM,2023.1.2,None,
2110.jpg,7260.jpg,5 Points,5 Points,126 points,PS2_L2.csv,,,,,,,,,,,,,,,,,,,,,,,,,,,,,0,1,1,1,0,20,20,20,,,,,,,,,,,,,,,,,,,1652.337054500007,q,1.1552545418962836,1653.5592854579445,,,,,,271216,B,2024-06-27_14h20.36.035,EPIDM,2023.1.2,None,
2030.jpg,2495.jpg,0 Points,0 Points,126 points,PS2_L2.csv,,,,,,,,,,,,,,,,,,,,,,,,,,,,,0,1,1,1,0,21,21,21,,,,,,,,,,,,,,,,,,,1657.8045410419581,q,0.9433125420473516,1658.8155778750079,,,,,,271216,B,2024-06-27_14h20.36.035,EPIDM,2023.1.2,None,
1302.jpg,2700.jpg,3 Points,3 Points,129 points,PS2_L2.csv,,,,,,,,,,,,,,,,,,,,,,,,,,,,,0,1,1,1,0,22,22,22,,,,,,,,,,,,,,,,,,,1663.0640654999297,q,2.0989673750009388,1665.2288803749252,,,,,,271216,B,2024-06-27_14h20.36.035,EPIDM,2023.1.2,None,
9010.jpg,9253.jpg,0 Points,0 Points,129 points,PS2_L2.csv,,,,,,,,,,,,,,,,,,,,,,,,,,,,,0,1,1,1,0,23,23,23,,,,,,,,,,,,,,,,,,,1669.4805984169943,p,1.1707963339285925,1670.7296700000297,,,1681.2281548749888,space,30.87043358304072,271216,B,2024-06-27_14h20.36.035,EPIDM,2023.1.2,None,
1303.jpg,2000.jpg,0 Points,0 Points,129 points,PS2_L3.csv,,,,,,,,,,,,,,,,,,,,,,,,,,,,,0,2,2,2,0,0,0,0,,,,,,,,,,,,,,,,,,,1715.410219833022,q,1.1444593749474734,1716.6208860420156,,,,,,271216,B,2024-06-27_14h20.36.035,EPIDM,2023.1.2,None,
2200.jpg,4598.jpg,1 Point,1 Point,130 points,PS2_L3.csv,,,,,,,,,,,,,,,,,,,,,,,,,,,,,0,2,2,2,0,1,1,1,,,,,,,,,,,,,,,,,,,1720.876845916966,p,1.045263584004715,1721.9897818749305,1,3.1820315420627594,,,,271216,B,2024-06-27_14h20.36.035,EPIDM,2023.1.2,None,
6190.jpg,3120.jpg,5 Points,5 Points,135 points,PS2_L3.csv,,,,,,,,,,,,,,,,,,,,,,,,,,,,,0,2,2,2,0,2,2,2,,,,,,,,,,,,,,,,,,,1729.4927597499918,q,1.572865376016125,1731.1458572079428,,,,,,271216,B,2024-06-27_14h20.36.035,EPIDM,2023.1.2,None,
2570.jpg,5500.jpg,3 Points,3 Points,138 points,PS2_L3.csv,,,,,,,,,,,,,,,,,,,,,,,,,,,,,0,2,2,2,0,3,3,3,,,,,,,,,,,,,,,,,,,1735.3837219999405,q,1.466192583902739,1736.922269832925,,,,,,271216,B,2024-06-27_14h20.36.035,EPIDM,2023.1.2,None,
8460.jpg,8330.jpg,0 Points,0 Points,138 points,PS2_L3.csv,,,,,,,,,,,,,,,,,,,,,,,,,,,,,0,2,2,2,0,4,4,4,,,,,,,,,,,,,,,,,,,1741.1628447920084,p,1.446500709047541,1742.6722224999685,,,,,,271216,B,2024-06-27_14h20.36.035,EPIDM,2023.1.2,None,
9320.jpg,9007.jpg,0 Points,0 Points,138 points,PS2_L3.csv,,,,,,,,,,,,,,,,,,,,,,,,,,,,,0,2,2,2,0,5,5,5,,,,,,,,,,,,,,,,,,,1746.9387519579614,p,1.6076272919308394,1748.613206833019,,,,,,271216,B,2024-06-27_14h20.36.035,EPIDM,2023.1.2,None,
2650.jpg,4531.jpg,5 Points,5 Points,143 points,PS2_L3.csv,,,,,,,,,,,,,,,,,,,,,,,,,,,,,0,2,2,2,0,6,6,6,,,,,,,,,,,,,,,,,,,1752.8660652500112,q,1.1034466669661924,1754.0501541249687,,,,,,271216,B,2024-06-27_14h20.36.035,EPIDM,2023.1.2,None,
4100.jpg,6570.2.jpg,3 Points,3 Points,146 points,PS2_L3.csv,,,,,,,,,,,,,,,,,,,,,,,,,,,,,0,2,2,2,0,7,7,7,,,,,,,,,,,,,,,,,,,1758.297970041982,q,1.7593305839691311,1760.1412206669338,,,,,,271216,B,2024-06-27_14h20.36.035,EPIDM,2023.1.2,None,
3102.jpg,F032.jpg,1 Point,1 Point,147 points,PS2_L3.csv,,,,,,,,,,,,,,,,,,,,,,,,,,,,,0,2,2,2,0,8,8,8,,,,,,,,,,,,,,,,,,,1764.3805309999734,p,0.6852539170067757,1765.173866166966,,,,,,271216,B,2024-06-27_14h20.36.035,EPIDM,2023.1.2,None,
2240.jpg,5010.jpg,5 Points,5 Points,152 points,PS2_L3.csv,,,,,,,,,,,,,,,,,,,,,,,,,,,,,0,2,2,2,0,9,9,9,,,,,,,,,,,,,,,,,,,1769.3877977079246,q,1.8541150839300826,1771.3658406250179,,,,,,271216,B,2024-06-27_14h20.36.035,EPIDM,2023.1.2,None,
4605.jpg,1510.jpg,4 Points,4 Points,156 points,PS2_L3.csv,,,,,,,,,,,,,,,,,,,,,,,,,,,,,0,2,2,2,0,10,10,10,,,,,,,,,,,,,,,,,,,1775.5684909579577,p,1.3923183339647949,1777.037867832929,,,,,,271216,B,2024-06-27_14h20.36.035,EPIDM,2023.1.2,None,
9490.jpg,9210.jpg,1 Point,1 Point,157 points,PS2_L3.csv,,,,,,,,,,,,,,,,,,,,,,,,,,,,,0,2,2,2,0,11,11,11,,,,,,,,,,,,,,,,,,,1781.2801365000196,p,1.1395633339416236,1782.4869824169436,,,,,,271216,B,2024-06-27_14h20.36.035,EPIDM,2023.1.2,None,
6821.jpg,9622.jpg,2 Points,2 Points,159 points,PS2_L3.csv,,,,,,,,,,,,,,,,,,,,,,,,,,,,,0,2,2,2,0,12,12,12,,,,,,,,,,,,,,,,,,,1786.7552732919576,q,1.0604682510020211,1787.876795707969,,,,,,271216,B,2024-06-27_14h20.36.035,EPIDM,2023.1.2,None,
2681.jpg,7100.jpg,3 Points,3 Points,162 points,PS2_L3.csv,,,,,,,,,,,,,,,,,,,,,,,,,,,,,0,2,2,2,0,13,13,13,,,,,,,,,,,,,,,,,,,1792.1380449580029,p,1.7660522079095244,1793.9739922919543,3,1.9040727920364588,,,,271216,B,2024-06-27_14h20.36.035,EPIDM,2023.1.2,None,
5622.jpg,9156.jpg,4 Points,4 Points,166 points,PS2_L3.csv,,,,,,,,,,,,,,,,,,,,,,,,,,,,,0,2,2,2,0,14,14,14,,,,,,,,,,,,,,,,,,,1800.1916067079874,q,1.864921999978833,1802.1403391669737,,,,,,271216,B,2024-06-27_14h20.36.035,EPIDM,2023.1.2,None,
1111.jpg,1040.jpg,0 Points,0 Points,166 points,PS2_L3.csv,,,,,,,,,,,,,,,,,,,,,,,,,,,,,0,2,2,2,0,15,15,15,,,,,,,,,,,,,,,,,,,1806.3823207919486,q,1.7379402510123327,1808.1998209999874,,,,,,271216,B,2024-06-27_14h20.36.035,EPIDM,2023.1.2,None,
1112.jpg,6230.jpg,3 Points,3 Points,169 points,PS2_L3.csv,,,,,,,,,,,,,,,,,,,,,,,,,,,,,0,2,2,2,0,16,16,16,,,,,,,,,,,,,,,,,,,1812.4476787080057,p,2.1379984169034287,1814.6541978749447,,,,,,271216,B,2024-06-27_14h20.36.035,EPIDM,2023.1.2,None,
8161.jpg,1900.jpg,4 Points,4 Points,173 points,PS2_L3.csv,,,,,,,,,,,,,,,,,,,,,,,,,,,,,0,2,2,2,0,17,17,17,,,,,,,,,,,,,,,,,,,1818.903697666945,p,1.2892704580444843,1820.2700895830058,,,,,,271216,B,2024-06-27_14h20.36.035,EPIDM,2023.1.2,None,
9800.jpg,9433.jpg,1 Point,1 Point,174 points,PS2_L3.csv,,,,,,,,,,,,,,,,,,,,,,,,,,,,,0,2,2,2,0,18,18,18,,,,,,,,,,,,,,,,,,,1824.5109259169549,q,1.5614458749769256,1826.1284742499702,,,,,,271216,B,2024-06-27_14h20.36.035,EPIDM,2023.1.2,None,
1390.jpg,9421.jpg,2 Points,2 Points,176 points,PS2_L3.csv,,,,,,,,,,,,,,,,,,,,,,,,,,,,,0,2,2,2,0,19,19,19,,,,,,,,,,,,,,,,,,,1830.381276082946,q,1.1065303339855745,1831.5629262919538,,,,,,271216,B,2024-06-27_14h20.36.035,EPIDM,2023.1.2,None,
2850.jpg,4532.jpg,3 Points,3 Points,179 points,PS2_L3.csv,,,,,,,,,,,,,,,,,,,,,,,,,,,,,0,2,2,2,0,20,20,20,,,,,,,,,,,,,,,,,,,1835.807646207977,p,1.343348458991386,1837.224475957919,,,,,,271216,B,2024-06-27_14h20.36.035,EPIDM,2023.1.2,None,
1560.jpg,8185.jpg,0 Points,0 Points,179 points,PS2_L3.csv,,,,,,,,,,,,,,,,,,,,,,,,,,,,,0,2,2,2,0,21,21,21,,,,,,,,,,,,,,,,,,,1841.4679281669669,q,2.300710374955088,1843.842609458021,,,,,,271216,B,2024-06-27_14h20.36.035,EPIDM,2023.1.2,None,
6314.jpg,O022.jpg,2 Points,2 Points,181 points,PS2_L3.csv,,,,,,,,,,,,,,,,,,,,,,,,,,,,,0,2,2,2,0,22,22,22,,,,,,,,,,,,,,,,,,,1848.0934770830208,p,2.554275249945931,1850.7501452079741,,,,,,271216,B,2024-06-27_14h20.36.035,EPIDM,2023.1.2,None,
4274.jpg,8160.jpg,2 Points,2 Points,183 points,PS2_L3.csv,,,,,,,,,,,,,,,,,,,,,,,,,,,,,0,2,2,2,0,23,23,23,,,,,,,,,,,,,,,,,,,1854.966350166942,p,1.56911379203666,1856.6040828329278,,,1867.098467374919,space,31.804519583005458,271216,B,2024-06-27_14h20.36.035,EPIDM,2023.1.2,None,
8117.jpg,2880.jpg,5 Points,5 Points,188 points,PS2_L4.csv,,,,,,,,,,,,,,,,,,,,,,,,,,,,,0,3,3,3,0,0,0,0,,,,,,,,,,,,,,,,,,,1902.2201724170009,q,1.6739037078805268,1903.9671165419277,,,,,,271216,B,2024-06-27_14h20.36.035,EPIDM,2023.1.2,None,
3220.jpg,3063.jpg,5 Points,5 Points,193 points,PS2_L4.csv,,,,,,,,,,,,,,,,,,,,,,,,,,,,,0,3,3,3,0,1,1,1,,,,,,,,,,,,,,,,,,,1908.205902207992,q,1.0484400009736419,1909.323133082944,5,2.129305416950956,,,,271216,B,2024-06-27_14h20.36.035,EPIDM,2023.1.2,None,
9040.jpg,1120.jpg,3 Points,3 Points,196 points,PS2_L4.csv,,,,,,,,,,,,,,,,,,,,,,,,,,,,,0,3,3,3,0,2,2,2,,,,,,,,,,,,,,,,,,,1915.7729852079647,p,1.0645903330296278,1916.907056374941,,,,,,271216,B,2024-06-27_14h20.36.035,EPIDM,2023.1.2,None,
5030.jpg,1670.jpg,3 Points,3 Points,199 points,PS2_L4.csv,,,,,,,,,,,,,,,,,,,,,,,,,,,,,0,3,3,3,0,3,3,3,,,,,,,,,,,,,,,,,,,1921.1614147080109,q,0.9722482919460163,1922.2058113749372,,,,,,271216,B,2024-06-27_14h20.36.035,EPIDM,2023.1.2,None,
2276.jpg,6540.jpg,3 Points,3 Points,202 points,PS2_L4.csv,,,,,,,,,,,,,,,,,,,,,,,,,,,,,0,3,3,3,0,4,4,4,,,,,,,,,,,,,,,,,,,1926.4592278329656,p,1.2105439169099554,1927.7364912079647,,,,,,271216,B,2024-06-27_14h20.36.035,EPIDM,2023.1.2,None,
1540.jpg,2600.jpg,1 Point,1 Point,203 points,PS2_L4.csv,,,,,,,,,,,,,,,,,,,,,,,,,,,,,0,3,3,3,0,5,5,5,,,,,,,,,,,,,,,,,,,1931.992276874953,q,1.4617402920266613,1933.514013582957,,,,,,271216,B,2024-06-27_14h20.36.035,EPIDM,2023.1.2,None,
8465.jpg,8400.jpg,1 Point,1 Point,204 points,PS2_L4.csv,,,,,,,,,,,,,,,,,,,,,,,,,,,,,0,3,3,3,0,6,6,6,,,,,,,,,,,,,,,,,,,1937.7684997079195,q,1.4759316249983385,1939.3163199169794,,,,,,271216,B,2024-06-27_14h20.36.035,EPIDM,2023.1.2,None,
3110.jpg,9000.jpg,4 Points,4 Points,208 points,PS2_L4.csv,,,,,,,,,,,,,,,,,,,,,,,,,,,,,0,3,3,3,0,7,7,7,,,,,,,,,,,,,,,,,,,1943.5651249579387,p,0.9846509579801932,1944.6069248330314,,,,,,271216,B,2024-06-27_14h20.36.035,EPIDM,2023.1.2,None,
9570.jpg,6610.jpg,0 Points,0 Points,208 points,PS2_L4.csv,,,,,,,,,,,,,,,,,,,,,,,,,,,,,0,3,3,3,0,8,8,8,,,,,,,,,,,,,,,,,,,1948.8648908329196,q,0.7717337500071153,1949.7077816670062,,,,,,271216,B,2024-06-27_14h20.36.035,EPIDM,2023.1.2,None,
2690.jpg,9360.jpg,1 Point,1 Point,209 points,PS2_L4.csv,,,,,,,,,,,,,,,,,,,,,,,,,,,,,0,3,3,3,0,9,9,9,,,,,,,,,,,,,,,,,,,1953.9581159580266,p,2.1670490419492126,1956.1888039999176,,,,,,271216,B,2024-06-27_14h20.36.035,EPIDM,2023.1.2,None,
8250.jpg,1313.jpg,4 Points,4 Points,213 points,PS2_L4.csv,,,,,,,,,,,,,,,,,,,,,,,,,,,,,0,3,3,3,0,10,10,10,,,,,,,,,,,,,,,,,,,1960.444643958006,q,1.5714429590152577,1962.0904505830258,,,,,,271216,B,2024-06-27_14h20.36.035,EPIDM,2023.1.2,None,
3022.jpg,2352.2.jpg,0 Points,0 Points,213 points,PS2_L4.csv,,,,,,,,,,,,,,,,,,,,,,,,,,,,,0,3,3,3,0,11,11,11,,,,,,,,,,,,,,,,,,,1966.327608124935,q,1.6778986669378355,1968.0777018750086,,,,,,271216,B,2024-06-27_14h20.36.035,EPIDM,2023.1.2,None,
9920.jpg,3068.jpg,5 Points,5 Points,218 points,PS2_L4.csv,,,,,,,,,,,,,,,,,,,,,,,,,,,,,0,3,3,3,0,12,12,12,,,,,,,,,,,,,,,,,,,1972.3172217499232,q,2.0400819999631494,1974.4208845419344,,,,,,271216,B,2024-06-27_14h20.36.035,EPIDM,2023.1.2,None,
7234.jpg,5533.jpg,3 Points,3 Points,221 points,PS2_L4.csv,,,,,,,,,,,,,,,,,,,,,,,,,,,,,0,3,3,3,0,13,13,13,,,,,,,,,,,,,,,,,,,1978.6651247920236,p,1.6523199169896543,1980.3779452919262,3,1.8347571669146419,,,,271216,B,2024-06-27_14h20.36.035,EPIDM,2023.1.2,None,
6250.1.jpg,3301.jpg,0 Points,0 Points,221 points,PS2_L4.csv,,,,,,,,,,,,,,,,,,,,,,,,,,,,,0,3,3,3,0,14,14,14,,,,,,,,,,,,,,,,,,,1986.5263406669255,q,2.4216296259546652,1989.0159129579552,,,,,,271216,B,2024-06-27_14h20.36.035,EPIDM,2023.1.2,None,
2518.jpg,2381.jpg,1 Point,1 Point,222 points,PS2_L4.csv,,,,,,,,,,,,,,,,,,,,,,,,,,,,,0,3,3,3,0,15,15,15,,,,,,,,,,,,,,,,,,,1993.259803666966,p,2.3046872089616954,1995.635746416985,,,,,,271216,B,2024-06-27_14h20.36.035,EPIDM,2023.1.2,None,
1910.jpg,2575.jpg,2 Points,2 Points,224 points,PS2_L4.csv,,,,,,,,,,,,,,,,,,,,,,,,,,,,,0,3,3,3,0,16,16,16,,,,,,,,,,,,,,,,,,,1999.892944082967,q,1.0396344580221921,2000.9864464169368,,,,,,271216,B,2024-06-27_14h20.36.035,EPIDM,2023.1.2,None,
1275.jpg,3150.jpg,1 Point,1 Point,225 points,PS2_L4.csv,,,,,,,,,,,,,,,,,,,,,,,,,,,,,0,3,3,3,0,17,17,17,,,,,,,,,,,,,,,,,,,2005.2489731250098,p,0.8272198339691386,2006.1480381669244,,,,,,271216,B,2024-06-27_14h20.36.035,EPIDM,2023.1.2,None,
2702.jpg,1590.jpg,5 Points,5 Points,230 points,PS2_L4.csv,,,,,,,,,,,,,,,,,,,,,,,,,,,,,0,3,3,3,0,18,18,18,,,,,,,,,,,,,,,,,,,2010.3998279999942,p,0.31651616701856256,2010.7888453329215,,,,,,271216,B,2024-06-27_14h20.36.035,EPIDM,2023.1.2,None,
8480.jpg,6410.jpg,1 Point,1 Point,231 points,PS2_L4.csv,,,,,,,,,,,,,,,,,,,,,,,,,,,,,0,3,3,3,0,19,19,19,,,,,,,,,,,,,,,,,,,2015.025933332974,p,1.26601737504825,2016.365357624949,,,,,,271216,B,2024-06-27_14h20.36.035,EPIDM,2023.1.2,None,
5621.jpg,5534.jpg,3 Points,3 Points,234 points,PS2_L4.csv,,,,,,,,,,,,,,,,,,,,,,,,,,,,,0,3,3,3,0,20,20,20,,,,,,,,,,,,,,,,,,,2020.6096812499454,p,1.001974624930881,2021.680019041989,,,,,,271216,B,2024-06-27_14h20.36.035,EPIDM,2023.1.2,None,
5972.jpg,6838.jpg,5 Points,5 Points,239 points,PS2_L4.csv,,,,,,,,,,,,,,,,,,,,,,,,,,,,,0,3,3,3,0,21,21,21,,,,,,,,,,,,,,,,,,,2025.9334927499294,q,1.910685500013642,2027.9204872079426,,,,,,271216,B,2024-06-27_14h20.36.035,EPIDM,2023.1.2,None,
2580.jpg,8300.jpg,3 Points,3 Points,242 points,PS2_L4.csv,,,,,,,,,,,,,,,,,,,,,,,,,,,,,0,3,3,3,0,22,22,22,,,,,,,,,,,,,,,,,,,2032.1731234169565,p,0.9586220419732854,2033.2085001670057,,,,,,271216,B,2024-06-27_14h20.36.035,EPIDM,2023.1.2,None,
7280.jpg,7160.jpg,0 Points,0 Points,242 points,PS2_L4.csv,,,,,,,,,,,,,,,,,,,,,,,,,,,,,0,3,3,3,0,23,23,23,,,,,,,,,,,,,,,,,,,2037.4474822080228,p,2.003831666894257,2039.5262062499532,,,2050.007814249955,space,34.23565300100017,271216,B,2024-06-27_14h20.36.035,EPIDM,2023.1.2,None,
6243.jpg,2752.jpg,2 Points,2 Points,244 points,PS2_L5.csv,,,,,,,,,,,,,,,,,,,,,,,,,,,,,0,4,4,4,0,0,0,0,,,,,,,,,,,,,,,,,,,2087.5722101249266,q,1.7909073339542374,2089.4373244579183,,,,,,271216,B,2024-06-27_14h20.36.035,EPIDM,2023.1.2,None,
8340.jpg,7546.jpg,2 Points,2 Points,246 points,PS2_L5.csv,,,,,,,,,,,,,,,,,,,,,,,,,,,,,0,4,4,4,0,1,1,1,,,,,,,,,,,,,,,,,,,2093.682021167013,q,1.897624583914876,2095.6561274579726,2,1.88823699997738,,,,271216,B,2024-06-27_14h20.36.035,EPIDM,2023.1.2,None,
1022.jpg,6930.jpg,1 Point,1 Point,247 points,PS2_L5.csv,,,,,,,,,,,,,,,,,,,,,,,,,,,,,0,4,4,4,0,2,2,2,,,,,,,,,,,,,,,,,,,2101.8550268330146,q,1.7557248750235885,2103.6707220419776,,,,,,271216,B,2024-06-27_14h20.36.035,EPIDM,2023.1.2,None,
7230.jpg,7570.jpg,5 Points,5 Points,252 points,PS2_L5.csv,,,,,,,,,,,,,,,,,,,,,,,,,,,,,0,4,4,4,0,3,3,3,,,,,,,,,,,,,,,,,,,2107.927830957924,p,1.2015785420080647,2109.2059486249927,,,,,,271216,B,2024-06-27_14h20.36.035,EPIDM,2023.1.2,None,
5760.jpg,1602.jpg,1 Point,1 Point,253 points,PS2_L5.csv,,,,,,,,,,,,,,,,,,,,,,,,,,,,,0,4,4,4,0,4,4,4,,,,,,,,,,,,,,,,,,,2113.440926583018,q,0.7542818329529837,2114.262802249985,,,,,,271216,B,2024-06-27_14h20.36.035,EPIDM,2023.1.2,None,
9584.jpg,3400.jpg,2 Points,2 Points,255 points,PS2_L5.csv,,,,,,,,,,,,,,,,,,,,,,,,,,,,,0,4,4,4,0,5,5,5,,,,,,,,,,,,,,,,,,,2118.5141120000044,q,2.2239317919593304,2120.800696582999,,,,,,271216,B,2024-06-27_14h20.36.035,EPIDM,2023.1.2,None,
2560.jpg,5270.jpg,4 Points,4 Points,259 points,PS2_L5.csv,,,,,,,,,,,,,,,,,,,,,,,,,,,,,0,4,4,4,0,6,6,6,,,,,,,,,,,,,,,,,,,2125.0591959999874,q,2.342628458980471,2127.46778095793,,,,,,271216,B,2024-06-27_14h20.36.035,EPIDM,2023.1.2,None,
3350.jpg,3210.jpg,1 Point,1 Point,260 points,PS2_L5.csv,,,,,,,,,,,,,,,,,,,,,,,,,,,,,0,4,4,4,0,7,7,7,,,,,,,,,,,,,,,,,,,2131.7124461670173,q,1.6664096669992432,2133.445644750027,,,,,,271216,B,2024-06-27_14h20.36.035,EPIDM,2023.1.2,None,
5455.jpg,5220.jpg,0 Points,0 Points,260 points,PS2_L5.csv,,,,,,,,,,,,,,,,,,,,,,,,,,,,,0,4,4,4,0,8,8,8,,,,,,,,,,,,,,,,,,,2137.696075749933,q,2.417874875012785,2140.1677903749514,,,,,,271216,B,2024-06-27_14h20.36.035,EPIDM,2023.1.2,None,
7920.jpg,9102.jpg,3 Points,3 Points,263 points,PS2_L5.csv,,,,,,,,,,,,,,,,,,,,,,,,,,,,,0,4,4,4,0,9,9,9,,,,,,,,,,,,,,,,,,,2144.430371250026,p,1.403348916908726,2145.914096374996,,,,,,271216,B,2024-06-27_14h20.36.035,EPIDM,2023.1.2,None,
1301.jpg,1070.jpg,2 Points,2 Points,265 points,PS2_L5.csv,,,,,,,,,,,,,,,,,,,,,,,,,,,,,0,4,4,4,0,10,10,10,,,,,,,,,,,,,,,,,,,2150.1505774169927,p,2.5867993340361863,2152.815953457961,,,,,,271216,B,2024-06-27_14h20.36.035,EPIDM,2023.1.2,None,
5982.jpg,5260.jpg,5 Points,5 Points,270 points,PS2_L5.csv,,,,,,,,,,,,,,,,,,,,,,,,,,,,,0,4,4,4,0,11,11,11,,,,,,,,,,,,,,,,,,,2157.063956958009,p,1.3208042499609292,2158.464079416939,,,,,,271216,B,2024-06-27_14h20.36.035,EPIDM,2023.1.2,None,
5000.jpg,8180.jpg,4 Points,4 Points,274 points,PS2_L5.csv,,,,,,,,,,,,,,,,,,,,,,,,,,,,,0,4,4,4,0,12,12,12,,,,,,,,,,,,,,,,,,,2162.700296249939,p,0.7491630009608343,2163.5232172919204,,,,,,271216,B,2024-06-27_14h20.36.035,EPIDM,2023.1.2,None,
6244.jpg,9265.jpg,0 Points,0 Points,274 points,PS2_L5.csv,,,,,,,,,,,,,,,,,,,,,,,,,,,,,0,4,4,4,0,13,13,13,,,,,,,,,,,,,,,,,,,2167.7700216249796,q,1.686527792015113,2169.5342548749177,0,1.7960055830189958,,,,271216,B,2024-06-27_14h20.36.035,EPIDM,2023.1.2,None,
5990.jpg,5780.jpg,3 Points,3 Points,277 points,PS2_L5.csv,,,,,,,,,,,,,,,,,,,,,,,,,,,,,0,4,4,4,0,14,14,14,,,,,,,,,,,,,,,,,,,2175.653628292028,p,1.202709000906907,2176.929314041976,,,,,,271216,B,2024-06-27_14h20.36.035,EPIDM,2023.1.2,None,
9440.jpg,6350.jpg,4 Points,4 Points,281 points,PS2_L5.csv,,,,,,,,,,,,,,,,,,,,,,,,,,,,,0,4,4,4,0,15,15,15,,,,,,,,,,,,,,,,,,,2181.188587874989,q,1.621499374974519,2182.876240917016,,,,,,271216,B,2024-06-27_14h20.36.035,EPIDM,2023.1.2,None,
1850.jpg,5623.jpg,5 Points,5 Points,286 points,PS2_L5.csv,,,,,,,,,,,,,,,,,,,,,,,,,,,,,0,4,4,4,0,16,16,16,,,,,,,,,,,,,,,,,,,2187.129766708007,p,1.7029801248572767,2188.9054254579823,,,,,,271216,B,2024-06-27_14h20.36.035,EPIDM,2023.1.2,None,
5200.jpg,5020.jpg,0 Points,0 Points,286 points,PS2_L5.csv,,,,,,,,,,,,,,,,,,,,,,,,,,,,,0,4,4,4,0,17,17,17,,,,,,,,,,,,,,,,,,,2193.156605624943,q,1.5082562509924173,2194.7495211670175,,,,,,271216,B,2024-06-27_14h20.36.035,EPIDM,2023.1.2,None,
P211.jpg,9041.jpg,4 Points,4 Points,290 points,PS2_L5.csv,,,,,,,,,,,,,,,,,,,,,,,,,,,,,0,4,4,4,0,18,18,18,,,,,,,,,,,,,,,,,,,2198.995640457957,q,1.9557313330005854,2201.0576887920033,,,,,,271216,B,2024-06-27_14h20.36.035,EPIDM,2023.1.2,None,
5600.jpg,9080.jpg,5 Points,5 Points,295 points,PS2_L5.csv,,,,,,,,,,,,,,,,,,,,,,,,,,,,,0,4,4,4,0,19,19,19,,,,,,,,,,,,,,,,,,,2205.266092082951,q,1.1815662919543684,2206.5281933329534,,,,,,271216,B,2024-06-27_14h20.36.035,EPIDM,2023.1.2,None,
6800.jpg,9190.jpg,0 Points,0 Points,295 points,PS2_L5.csv,,,,,,,,,,,,,,,,,,,,,,,,,,,,,0,4,4,4,0,20,20,20,,,,,,,,,,,,,,,,,,,2210.772589292028,q,1.3470554170198739,2212.193934082985,,,,,,271216,B,2024-06-27_14h20.36.035,EPIDM,2023.1.2,None,
3280.jpg,9270.jpg,0 Points,0 Points,295 points,PS2_L5.csv,,,,,,,,,,,,,,,,,,,,,,,,,,,,,0,4,4,4,0,21,21,21,,,,,,,,,,,,,,,,,,,2216.4328389170114,p,1.134260917082429,2217.6302024580073,,,,,,271216,B,2024-06-27_14h20.36.035,EPIDM,2023.1.2,None,
4613.jpg,2720.jpg,4 Points,4 Points,299 points,PS2_L5.csv,,,,,,,,,,,,,,,,,,,,,,,,,,,,,0,4,4,4,0,22,22,22,,,,,,,,,,,,,,,,,,,2221.882499416941,q,1.1972641670145094,2223.146083624917,,,,,,271216,B,2024-06-27_14h20.36.035,EPIDM,2023.1.2,None,
1930.jpg,9008.jpg,1 Point,1 Point,300 points,PS2_L5.csv,,,,,,,,,,,,,,,,,,,,,,,,,,,,,0,4,4,4,0,23,23,23,,,,,,,,,,,,,,,,,,,2227.39248112496,p,1.3513143339660019,2228.8251435420243,,,2239.283735667006,space,15.947225957992487,271216,B,2024-06-27_14h20.36.035,EPIDM,2023.1.2,None,
2190.jpg,7503.jpg,2 Points,2 Points,302 points,PS2_L6.csv,,,,,,,,,,,,,,,,,,,,,,,,,,,,,0,5,5,5,0,0,0,0,,,,,,,,,,,,,,,,,,,2258.5541143750306,p,1.3400634588906541,2259.9633458330063,,,,,,271216,B,2024-06-27_14h20.36.035,EPIDM,2023.1.2,None,
2490.jpg,2590.jpg,4 Points,4 Points,306 points,PS2_L6.csv,,,,,,,,,,,,,,,,,,,,,,,,,,,,,0,5,5,5,0,1,1,1,,,,,,,,,,,,,,,,,,,2264.2281982499408,p,1.0180636260192841,2265.3220852080267,4,1.6442272919230163,,,,271216,B,2024-06-27_14h20.36.035,EPIDM,2023.1.2,None,
9592.jpg,1300.jpg,2 Points,2 Points,308 points,PS2_L6.csv,,,,,,,,,,,,,,,,,,,,,,,,,,,,,0,5,5,5,0,2,2,2,,,,,,,,,,,,,,,,,,,2271.284397416981,p,1.0501434999750927,2272.3952151669655,,,,,,271216,B,2024-06-27_14h20.36.035,EPIDM,2023.1.2,None,
8230.jpg,2682.jpg,5 Points,5 Points,313 points,PS2_L6.csv,,,,,,,,,,,,,,,,,,,,,,,,,,,,,0,5,5,5,0,3,3,3,,,,,,,,,,,,,,,,,,,2276.6508957080077,p,1.2433618758805096,2277.963726292015,,,,,,271216,B,2024-06-27_14h20.36.035,EPIDM,2023.1.2,None,
9090.jpg,7580.jpg,3 Points,3 Points,316 points,PS2_L6.csv,,,,,,,,,,,,,,,,,,,,,,,,,,,,,0,5,5,5,0,4,4,4,,,,,,,,,,,,,,,,,,,2282.2119518329855,p,0.7702833339571953,2283.0537122919923,,,,,,271216,B,2024-06-27_14h20.36.035,EPIDM,2023.1.2,None,
3530.jpg,6213.jpg,1 Point,1 Point,317 points,PS2_L6.csv,,,,,,,,,,,,,,,,,,,,,,,,,,,,,0,5,5,5,0,5,5,5,,,,,,,,,,,,,,,,,,,2287.3038477499504,q,1.254294625017792,2288.6252610830124,,,,,,271216,B,2024-06-27_14h20.36.035,EPIDM,2023.1.2,None,
1640.jpg,5531.jpg,3 Points,3 Points,320 points,PS2_L6.csv,,,,,,,,,,,,,,,,,,,,,,,,,,,,,0,5,5,5,0,6,6,6,,,,,,,,,,,,,,,,,,,2292.8754296249244,p,0.4902782089775428,2293.441106125014,,,,,,271216,B,2024-06-27_14h20.36.035,EPIDM,2023.1.2,None,
3064.jpg,3168.jpg,4 Points,4 Points,324 points,PS2_L6.csv,,,,,,,,,,,,,,,,,,,,,,,,,,,,,0,5,5,5,0,7,7,7,,,,,,,,,,,,,,,,,,,2297.6832675000187,p,2.075774582917802,2299.84166604199,,,,,,271216,B,2024-06-27_14h20.36.035,EPIDM,2023.1.2,None,
2710.jpg,9252.jpg,1 Point,1 Point,325 points,PS2_L6.csv,,,,,,,,,,,,,,,,,,,,,,,,,,,,,0,5,5,5,0,8,8,8,,,,,,,,,,,,,,,,,,,2304.0903171669925,q,1.627155375899747,2305.7888946250314,,,,,,271216,B,2024-06-27_14h20.36.035,EPIDM,2023.1.2,None,
2260.jpg,2830.jpg,5 Points,5 Points,330 points,PS2_L6.csv,,,,,,,,,,,,,,,,,,,,,,,,,,,,,0,5,5,5,0,9,9,9,,,,,,,,,,,,,,,,,,,2310.0429787499597,q,1.5645894999615848,2311.673163166968,,,,,,271216,B,2024-06-27_14h20.36.035,EPIDM,2023.1.2,None,
6510.jpg,A074.jpg,2 Points,2 Points,332 points,PS2_L6.csv,,,,,,,,,,,,,,,,,,,,,,,,,,,,,0,5,5,5,0,10,10,10,,,,,,,,,,,,,,,,,,,2315.9226322500035,p,1.1226847919169813,2317.1544433329254,,,,,,271216,B,2024-06-27_14h20.36.035,EPIDM,2023.1.2,None,
5300.jpg,2372.jpg,1 Point,1 Point,333 points,PS2_L6.csv,,,,,,,,,,,,,,,,,,,,,,,,,,,,,0,5,5,5,0,11,11,11,,,,,,,,,,,,,,,,,,,2321.363443707931,q,0.7935174170415848,2322.270319457981,,,,,,271216,B,2024-06-27_14h20.36.035,EPIDM,2023.1.2,None,
2749.jpg,7282.jpg,3 Points,3 Points,336 points,PS2_L6.csv,,,,,,,,,,,,,,,,,,,,,,,,,,,,,0,5,5,5,0,12,12,12,,,,,,,,,,,,,,,,,,,2326.483172166976,q,1.908098583924584,2328.4558623329503,,,,,,271216,B,2024-06-27_14h20.36.035,EPIDM,2023.1.2,None,
3130.jpg,3500.jpg,4 Points,4 Points,340 points,PS2_L6.csv,,,,,,,,,,,,,,,,,,,,,,,,,,,,,0,5,5,5,0,13,13,13,,,,,,,,,,,,,,,,,,,2332.7101702919463,p,1.3823522919556126,2334.168446457945,4,1.393133083009161,,,,271216,B,2024-06-27_14h20.36.035,EPIDM,2023.1.2,None,
6312.jpg,3230.jpg,2 Points,2 Points,342 points,PS2_L6.csv,,,,,,,,,,,,,,,,,,,,,,,,,,,,,0,5,5,5,0,14,14,14,,,,,,,,,,,,,,,,,,,2339.8925529579865,p,1.0873484999174252,2341.056911999942,,,,,,271216,B,2024-06-27_14h20.36.035,EPIDM,2023.1.2,None,
2597.jpg,5870.jpg,5 Points,5 Points,347 points,PS2_L6.csv,,,,,,,,,,,,,,,,,,,,,,,,,,,,,0,5,5,5,0,15,15,15,,,,,,,,,,,,,,,,,,,2345.3020597499562,p,1.2385924590053037,2346.6105126669863,,,,,,271216,B,2024-06-27_14h20.36.035,EPIDM,2023.1.2,None,
8033.jpg,7270.jpg,3 Points,3 Points,350 points,PS2_L6.csv,,,,,,,,,,,,,,,,,,,,,,,,,,,,,0,5,5,5,0,16,16,16,,,,,,,,,,,,,,,,,,,2350.8578553330153,q,1.2668959168950096,2352.1936196249444,,,,,,271216,B,2024-06-27_14h20.36.035,EPIDM,2023.1.2,None,
3170.jpg,6560.jpg,2 Points,2 Points,352 points,PS2_L6.csv,,,,,,,,,,,,,,,,,,,,,,,,,,,,,0,5,5,5,0,17,17,17,,,,,,,,,,,,,,,,,,,2356.43754395796,q,0.8793940839823335,2357.3895356249996,,,,,,271216,B,2024-06-27_14h20.36.035,EPIDM,2023.1.2,None,
6242.jpg,F034.jpg,4 Points,4 Points,356 points,PS2_L6.csv,,,,,,,,,,,,,,,,,,,,,,,,,,,,,0,5,5,5,0,18,18,18,,,,,,,,,,,,,,,,,,,2361.636076582945,q,1.192728583002463,2362.941902874969,,,,,,271216,B,2024-06-27_14h20.36.035,EPIDM,2023.1.2,None,
2485.jpg,7350.jpg,0 Points,0 Points,356 points,PS2_L6.csv,,,,,,,,,,,,,,,,,,,,,,,,,,,,,0,5,5,5,0,19,19,19,,,,,,,,,,,,,,,,,,,2367.146417082986,q,1.985582957859151,2369.2413352919975,,,,,,271216,B,2024-06-27_14h20.36.035,EPIDM,2023.1.2,None,
2900.jpg,1101.jpg,3 Points,3 Points,359 points,PS2_L6.csv,,,,,,,,,,,,,,,,,,,,,,,,,,,,,0,5,5,5,0,20,20,20,,,,,,,,,,,,,,,,,,,2373.4457230829867,p,0.9111797079676762,2374.4264634579886,,,,,,271216,B,2024-06-27_14h20.36.035,EPIDM,2023.1.2,None,
7002.jpg,4660.jpg,4 Points,4 Points,363 points,PS2_L6.csv,,,,,,,,,,,,,,,,,,,,,,,,,,,,,0,5,5,5,0,21,21,21,,,,,,,,,,,,,,,,,,,2378.6719207080314,p,0.9807741669937968,2379.7249784169253,,,,,,271216,B,2024-06-27_14h20.36.035,EPIDM,2023.1.2,None,
A025.jpg,1051.jpg,0 Points,0 Points,363 points,PS2_L6.csv,,,,,,,,,,,,,,,,,,,,,,,,,,,,,0,5,5,5,0,22,22,22,,,,,,,,,,,,,,,,,,,2383.958595666918,q,1.8851923749316484,2385.962803417002,,,,,,271216,B,2024-06-27_14h20.36.035,EPIDM,2023.1.2,None,
4510.jpg,2230.jpg,5 Points,5 Points,368 points,PS2_L6.csv,,,,,,,,,,,,,,,,,,,,,,,,,,,,,0,5,5,5,0,23,23,23,,,,,,,,,,,,,,,,,,,2390.1617300829384,q,1.0023304170463234,2391.24870037497,,,2401.7201169169275,space,7.57162583398167,271216,B,2024-06-27_14h20.36.035,EPIDM,2023.1.2,None,
2383.jpg,1616.jpg,2 Points,2 Points,370 points,PS2_L7.csv,,,,,,,,,,,,,,,,,,,,,,,,,,,,,0,6,6,6,0,0,0,0,,,,,,,,,,,,,,,,,,,2412.618362249923,p,0.9837522088782862,2413.682873041951,,,,,,271216,B,2024-06-27_14h20.36.035,EPIDM,2023.1.2,None,
1310.jpg,3181.jpg,4 Points,4 Points,374 points,PS2_L7.csv,,,,,,,,,,,,,,,,,,,,,,,,,,,,,0,6,6,6,0,1,1,1,,,,,,,,,,,,,,,,,,,2417.9286168749677,q,1.2347055829595774,2419.229329625028,4,2.1986201249528676,,,,271216,B,2024-06-27_14h20.36.035,EPIDM,2023.1.2,None,
7289.jpg,4534.jpg,0 Points,0 Points,374 points,PS2_L7.csv,,,,,,,,,,,,,,,,,,,,,,,,,,,,,0,6,6,6,0,2,2,2,,,,,,,,,,,,,,,,,,,2425.7240115419263,p,1.8389996669720858,2427.639528083033,,,,,,271216,B,2024-06-27_14h20.36.035,EPIDM,2023.1.2,None,
6010.jpg,7361.jpg,2 Points,2 Points,376 points,PS2_L7.csv,,,,,,,,,,,,,,,,,,,,,,,,,,,,,0,6,6,6,0,3,3,3,,,,,,,,,,,,,,,,,,,2431.88330066693,q,1.1431007080245763,2433.107572000008,,,,,,271216,B,2024-06-27_14h20.36.035,EPIDM,2023.1.2,None,
2661.jpg,2870.jpg,5 Points,5 Points,381 points,PS2_L7.csv,,,,,,,,,,,,,,,,,,,,,,,,,,,,,0,6,6,6,0,4,4,4,,,,,,,,,,,,,,,,,,,2437.3616751249647,p,1.4811205419246107,2438.917385375011,,,,,,271216,B,2024-06-27_14h20.36.035,EPIDM,2023.1.2,None,
7220.jpg,8090.jpg,2 Points,2 Points,383 points,PS2_L7.csv,,,,,,,,,,,,,,,,,,,,,,,,,,,,,0,6,6,6,0,5,5,5,,,,,,,,,,,,,,,,,,,2443.1737299580127,p,1.284629459027201,2444.5388709580293,,,,,,271216,B,2024-06-27_14h20.36.035,EPIDM,2023.1.2,None,
9140.jpg,2810.jpg,3 Points,3 Points,386 points,PS2_L7.csv,,,,,,,,,,,,,,,,,,,,,,,,,,,,,0,6,6,6,0,6,6,6,,,,,,,,,,,,,,,,,,,2448.7897997919936,p,0.9484637918649241,2449.802511667018,,,,,,271216,B,2024-06-27_14h20.36.035,EPIDM,2023.1.2,None,
2516.jpg,8500.jpg,4 Points,4 Points,390 points,PS2_L7.csv,,,,,,,,,,,,,,,,,,,,,,,,,,,,,0,6,6,6,0,7,7,7,,,,,,,,,,,,,,,,,,,2454.057197166956,p,0.6326697920449078,2454.756162500009,,,,,,271216,B,2024-06-27_14h20.36.035,EPIDM,2023.1.2,None,
9070.jpg,9420.jpg,2 Points,2 Points,392 points,PS2_L7.csv,,,,,,,,,,,,,,,,,,,,,,,,,,,,,0,6,6,6,0,8,8,8,,,,,,,,,,,,,,,,,,,2459.0030212500133,q,0.7275698338635266,2459.805011541932,,,,,,271216,B,2024-06-27_14h20.36.035,EPIDM,2023.1.2,None,
6561.jpg,1525.jpg,2 Points,2 Points,394 points,PS2_L7.csv,,,,,,,,,,,,,,,,,,,,,,,,,,,,,0,6,6,6,0,9,9,9,,,,,,,,,,,,,,,,,,,2464.0496605000226,q,2.0879968750523403,2466.2002233749954,,,,,,271216,B,2024-06-27_14h20.36.035,EPIDM,2023.1.2,None,
7175.jpg,7490.jpg,2 Points,2 Points,396 points,PS2_L7.csv,,,,,,,,,,,,,,,,,,,,,,,,,,,,,0,6,6,6,0,10,10,10,,,,,,,,,,,,,,,,,,,2470.4652130419854,p,1.112484166980721,2471.6539445000235,,,,,,271216,B,2024-06-27_14h20.36.035,EPIDM,2023.1.2,None,
8010.jpg,2630.jpg,0 Points,0 Points,396 points,PS2_L7.csv,,,,,,,,,,,,,,,,,,,,,,,,,,,,,0,6,6,6,0,11,11,11,,,,,,,,,,,,,,,,,,,2475.900292416918,p,1.8928180419607088,2477.863026374951,,,,,,271216,B,2024-06-27_14h20.36.035,EPIDM,2023.1.2,None,
F174.jpg,9404.jpg,5 Points,5 Points,401 points,PS2_L7.csv,,,,,,,,,,,,,,,,,,,,,,,,,,,,,0,6,6,6,0,12,12,12,,,,,,,,,,,,,,,,,,,2482.1019553749356,p,0.9636242089327425,2483.1668455420295,,,,,,271216,B,2024-06-27_14h20.36.035,EPIDM,2023.1.2,None,
2692.jpg,8231.jpg,4 Points,4 Points,405 points,PS2_L7.csv,,,,,,,,,,,,,,,,,,,,,,,,,,,,,0,6,6,6,0,13,13,13,,,,,,,,,,,,,,,,,,,2487.3795330829453,q,1.1337631669593975,2488.5716243749484,4,2.343693208997138,,,,271216,B,2024-06-27_14h20.36.035,EPIDM,2023.1.2,None,
5994.jpg,5390.jpg,0 Points,0 Points,405 points,PS2_L7.csv,,,,,,,,,,,,,,,,,,,,,,,,,,,,,0,6,6,6,0,14,14,14,,,,,,,,,,,,,,,,,,,2495.224058624939,p,3.249736500903964,2498.5295837499434,,,,,,271216,B,2024-06-27_14h20.36.035,EPIDM,2023.1.2,None,
9560.jpg,3071.jpg,1 Point,1 Point,406 points,PS2_L7.csv,,,,,,,,,,,,,,,,,,,,,,,,,,,,,0,6,6,6,0,15,15,15,,,,,,,,,,,,,,,,,,,2502.781925166957,q,0.8672488339943811,2503.7122386669507,,,,,,271216,B,2024-06-27_14h20.36.035,EPIDM,2023.1.2,None,
9330.jpg,3015.jpg,5 Points,5 Points,411 points,PS2_L7.csv,,,,,,,,,,,,,,,,,,,,,,,,,,,,,0,6,6,6,0,16,16,16,,,,,,,,,,,,,,,,,,,2507.9591936250217,p,1.6111239589517936,2509.626126041985,,,,,,271216,B,2024-06-27_14h20.36.035,EPIDM,2023.1.2,None,
2389.jpg,7320.jpg,0 Points,0 Points,411 points,PS2_L7.csv,,,,,,,,,,,,,,,,,,,,,,,,,,,,,0,6,6,6,0,17,17,17,,,,,,,,,,,,,,,,,,,2513.8884880419355,q,1.2077491249656305,2515.1771065830253,,,,,,271216,B,2024-06-27_14h20.36.035,EPIDM,2023.1.2,None,
6570.1.jpg,9432.jpg,5 Points,5 Points,416 points,PS2_L7.csv,,,,,,,,,,,,,,,,,,,,,,,,,,,,,0,6,6,6,0,18,18,18,,,,,,,,,,,,,,,,,,,2519.439165708027,q,1.0810180419357494,2520.5945920000086,,,,,,271216,B,2024-06-27_14h20.36.035,EPIDM,2023.1.2,None,
9452.jpg,7184.jpg,4 Points,4 Points,420 points,PS2_L7.csv,,,,,,,,,,,,,,,,,,,,,,,,,,,,,0,6,6,6,0,19,19,19,,,,,,,,,,,,,,,,,,,2524.834951582947,q,1.62980695895385,2526.539166416973,,,,,,271216,B,2024-06-27_14h20.36.035,EPIDM,2023.1.2,None,
5120.jpg,5520.jpg,2 Points,2 Points,422 points,PS2_L7.csv,,,,,,,,,,,,,,,,,,,,,,,,,,,,,0,6,6,6,0,20,20,20,,,,,,,,,,,,,,,,,,,2530.798624582938,q,1.770787001005374,2532.6497906249715,,,,,,271216,B,2024-06-27_14h20.36.035,EPIDM,2023.1.2,None,
5970.jpg,3300.jpg,0 Points,0 Points,422 points,PS2_L7.csv,,,,,,,,,,,,,,,,,,,,,,,,,,,,,0,6,6,6,0,21,21,21,,,,,,,,,,,,,,,,,,,2536.892279874999,q,1.3954272089758888,2538.3540692919632,,,,,,271216,B,2024-06-27_14h20.36.035,EPIDM,2023.1.2,None,
7620.jpg,5395.jpg,1 Point,1 Point,423 points,PS2_L7.csv,,,,,,,,,,,,,,,,,,,,,,,,,,,,,0,6,6,6,0,22,22,22,,,,,,,,,,,,,,,,,,,2542.604530624929,p,2.8756992920534685,2545.5536572079873,,,,,,271216,B,2024-06-27_14h20.36.035,EPIDM,2023.1.2,None,
P019.jpg,F158.jpg,3 Points,3 Points,426 points,PS2_L7.csv,,,,,,,,,,,,,,,,,,,,,,,,,,,,,0,6,6,6,0,23,23,23,,,,,,,,,,,,,,,,,,,2549.81129283295,q,1.6196794169954956,2551.573007124942,,,2561.999665957992,space,5.000433500041254,271216,B,2024-06-27_14h20.36.035,EPIDM,2023.1.2,None,
2620.jpg,2594.jpg,0 Points,0 Points,426 points,PS2_L8.csv,,,,,,,,,,,,,,,,,,,,,,,,,,,,,0,7,7,7,0,0,0,0,,,,,,,,,,,,,,,,,,,2570.318317750003,p,1.2257856250507757,2571.649037749972,,,,,,271216,B,2024-06-27_14h20.36.035,EPIDM,2023.1.2,None,
F369.jpg,3100.jpg,2 Points,2 Points,428 points,PS2_L8.csv,,,,,,,,,,,,,,,,,,,,,,,,,,,,,0,7,7,7,0,1,1,1,,,,,,,,,,,,,,,,,,,2575.8605540000135,p,0.7950048340717331,2576.7525379579747,2,2.719584457925521,,,,271216,B,2024-06-27_14h20.36.035,EPIDM,2023.1.2,None,
1052.jpg,1201.jpg,3 Points,3 Points,431 points,PS2_L8.csv,,,,,,,,,,,,,,,,,,,,,,,,,,,,,0,7,7,7,0,2,2,2,,,,,,,,,,,,,,,,,,,2583.796222041943,q,1.0750390840694308,2584.936970416922,,,,,,271216,B,2024-06-27_14h20.36.035,EPIDM,2023.1.2,None,
2606.jpg,2480.jpg,1 Point,1 Point,432 points,PS2_L8.csv,,,,,,,,,,,,,,,,,,,,,,,,,,,,,0,7,7,7,0,3,3,3,,,,,,,,,,,,,,,,,,,2589.1874161249725,q,1.4758002499584109,2590.7287320420146,,,,,,271216,B,2024-06-27_14h20.36.035,EPIDM,2023.1.2,None,
9594.jpg,1080.jpg,4 Points,4 Points,436 points,PS2_L8.csv,,,,,,,,,,,,,,,,,,,,,,,,,,,,,0,7,7,7,0,4,4,4,,,,,,,,,,,,,,,,,,,2594.984023832949,p,1.070666459039785,2596.12548983295,,,,,,271216,B,2024-06-27_14h20.36.035,EPIDM,2023.1.2,None,
4770.jpg,4275.jpg,3 Points,3 Points,439 points,PS2_L8.csv,,,,,,,,,,,,,,,,,,,,,,,,,,,,,0,7,7,7,0,5,5,5,,,,,,,,,,,,,,,,,,,2600.3703223749762,q,1.0047255419194698,2601.4525461669546,,,,,,271216,B,2024-06-27_14h20.36.035,EPIDM,2023.1.2,None,
P077.jpg,A041.jpg,1 Point,1 Point,440 points,PS2_L8.csv,,,,,,,,,,,,,,,,,,,,,,,,,,,,,0,7,7,7,0,6,6,6,,,,,,,,,,,,,,,,,,,2605.7028867079644,p,1.0389415010577068,2606.8905333749717,,,,,,271216,B,2024-06-27_14h20.36.035,EPIDM,2023.1.2,None,
6550.jpg,9582.jpg,5 Points,5 Points,445 points,PS2_L8.csv,,,,,,,,,,,,,,,,,,,,,,,,,,,,,0,7,7,7,0,7,7,7,,,,,,,,,,,,,,,,,,,2611.0598959169583,q,1.4507194169564173,2612.624451666954,,,,,,271216,B,2024-06-27_14h20.36.035,EPIDM,2023.1.2,None,
8040.jpg,7185.jpg,1 Point,1 Point,446 points,PS2_L8.csv,,,,,,,,,,,,,,,,,,,,,,,,,,,,,0,7,7,7,0,8,8,8,,,,,,,,,,,,,,,,,,,2616.8398210830055,p,2.590509374975227,2619.5079152079998,,,,,,271216,B,2024-06-27_14h20.36.035,EPIDM,2023.1.2,None,
P233.jpg,3060.jpg,1 Point,1 Point,447 points,PS2_L8.csv,,,,,,,,,,,,,,,,,,,,,,,,,,,,,0,7,7,7,0,9,9,9,,,,,,,,,,,,,,,,,,,2623.753442707937,p,1.707600999972783,2625.57558504201,,,,,,271216,B,2024-06-27_14h20.36.035,EPIDM,2023.1.2,None,
1090.jpg,P217.jpg,5 Points,5 Points,452 points,PS2_L8.csv,,,,,,,,,,,,,,,,,,,,,,,,,,,,,0,7,7,7,0,10,10,10,,,,,,,,,,,,,,,,,,,2629.786699249991,q,0.9806871250038967,2630.8867860829923,,,,,,271216,B,2024-06-27_14h20.36.035,EPIDM,2023.1.2,None,
9405.jpg,6250.2.jpg,3 Points,3 Points,455 points,PS2_L8.csv,,,,,,,,,,,,,,,,,,,,,,,,,,,,,0,7,7,7,0,11,11,11,,,,,,,,,,,,,,,,,,,2635.0982094169594,p,1.3238975419662893,2636.4999405830167,,,,,,271216,B,2024-06-27_14h20.36.035,EPIDM,2023.1.2,None,
1610.jpg,F203.jpg,0 Points,0 Points,455 points,PS2_L8.csv,,,,,,,,,,,,,,,,,,,,,,,,,,,,,0,7,7,7,0,12,12,12,,,,,,,,,,,,,,,,,,,2640.7439039170276,q,1.4132863340200856,2642.2732289169217,,,,,,271216,B,2024-06-27_14h20.36.035,EPIDM,2023.1.2,None,
P222.jpg,9401.jpg,2 Points,2 Points,457 points,PS2_L8.csv,,,,,,,,,,,,,,,,,,,,,,,,,,,,,0,7,7,7,0,13,13,13,,,,,,,,,,,,,,,,,,,2646.4785509170033,q,1.2949681249447167,2647.916182541987,2,1.8744438339490443,,,,271216,B,2024-06-27_14h20.36.035,EPIDM,2023.1.2,None,
5471.jpg,7352.jpg,2 Points,2 Points,459 points,PS2_L8.csv,,,,,,,,,,,,,,,,,,,,,,,,,,,,,0,7,7,7,0,14,14,14,,,,,,,,,,,,,,,,,,,2654.0886888749665,q,1.228190833935514,2655.388234291924,,,,,,271216,B,2024-06-27_14h20.36.035,EPIDM,2023.1.2,None,
9042.jpg,2753.jpg,0 Points,0 Points,459 points,PS2_L8.csv,,,,,,,,,,,,,,,,,,,,,,,,,,,,,0,7,7,7,0,15,15,15,,,,,,,,,,,,,,,,,,,2659.641962166992,q,1.4520507499109954,2661.1649980419315,,,,,,271216,B,2024-06-27_14h20.36.035,EPIDM,2023.1.2,None,
8311.jpg,4609.jpg,2 Points,2 Points,461 points,PS2_L8.csv,,,,,,,,,,,,,,,,,,,,,,,,,,,,,0,7,7,7,0,16,16,16,,,,,,,,,,,,,,,,,,,2665.43493124994,p,0.8427453329786658,2666.340432957979,,,,,,271216,B,2024-06-27_14h20.36.035,EPIDM,2023.1.2,None,
2320.jpg,2791.jpg,4 Points,4 Points,465 points,PS2_L8.csv,,,,,,,,,,,,,,,,,,,,,,,,,,,,,0,7,7,7,0,17,17,17,,,,,,,,,,,,,,,,,,,2670.594454541919,p,1.7153705839300528,2672.3684789580293,,,,,,271216,B,2024-06-27_14h20.36.035,EPIDM,2023.1.2,None,
F365.jpg,3180.jpg,5 Points,5 Points,470 points,PS2_L8.csv,,,,,,,,,,,,,,,,,,,,,,,,,,,,,0,7,7,7,0,18,18,18,,,,,,,,,,,,,,,,,,,2676.6204622079385,q,1.7921111668692902,2678.5088144579204,,,,,,271216,B,2024-06-27_14h20.36.035,EPIDM,2023.1.2,None,
9300.jpg,1050.jpg,4 Points,4 Points,474 points,PS2_L8.csv,,,,,,,,,,,,,,,,,,,,,,,,,,,,,0,7,7,7,0,19,19,19,,,,,,,,,,,,,,,,,,,2682.734016750008,p,1.0555656669894233,2683.8810333330184,,,,,,271216,B,2024-06-27_14h20.36.035,EPIDM,2023.1.2,None,
6150.jpg,2206.jpg,0 Points,0 Points,474 points,PS2_L8.csv,,,,,,,,,,,,,,,,,,,,,,,,,,,,,0,7,7,7,0,20,20,20,,,,,,,,,,,,,,,,,,,2688.1113660830306,p,2.1010970839997754,2690.284256874933,,,,,,271216,B,2024-06-27_14h20.36.035,EPIDM,2023.1.2,None,
6260.jpg,3062.jpg,3 Points,3 Points,477 points,PS2_L8.csv,,,,,,,,,,,,,,,,,,,,,,,,,,,,,0,7,7,7,0,21,21,21,,,,,,,,,,,,,,,,,,,2694.533173249918,p,0.9599698759848252,2695.559798832983,,,,,,271216,B,2024-06-27_14h20.36.035,EPIDM,2023.1.2,None,
6571.jpg,P237.jpg,2 Points,2 Points,479 points,PS2_L8.csv,,,,,,,,,,,,,,,,,,,,,,,,,,,,,0,7,7,7,0,22,22,22,,,,,,,,,,,,,,,,,,,2699.801464374992,p,1.7304989999393001,2701.641589707928,,,,,,271216,B,2024-06-27_14h20.36.035,EPIDM,2023.1.2,None,
7283.jpg,1720.jpg,4 Points,4 Points,483 points,PS2_L8.csv,,,,,,,,,,,,,,,,,,,,,,,,,,,,,0,7,7,7,0,23,23,23,,,,,,,,,,,,,,,,,,,2705.8507797919447,q,1.4010147089138627,2707.37237329199,,,2717.838862332981,space,32.164411833975464,271216,B,2024-06-27_14h20.36.035,EPIDM,2023.1.2,None,
3160.jpg,6210.jpg,1 Point,1 Point,484 points,PS2_L9.csv,,,,,,,,,,,,,,,,,,,,,,,,,,,,,0,8,8,8,0,0,0,0,,,,,,,,,,,,,,,,,,,2753.312848542002,p,0.7942530839936808,2754.180186582962,,,,,,271216,B,2024-06-27_14h20.36.035,EPIDM,2023.1.2,None,
2100.jpg,7205.jpg,5 Points,5 Points,489 points,PS2_L9.csv,,,,,,,,,,,,,,,,,,,,,,,,,,,,,0,8,8,8,0,1,1,1,,,,,,,,,,,,,,,,,,,2758.429406499956,q,0.8529654169688001,2759.3556127499323,5,2.658025208977051,,,,271216,B,2024-06-27_14h20.36.035,EPIDM,2023.1.2,None,
9110.jpg,3051.jpg,1 Point,1 Point,490 points,PS2_L9.csv,,,,,,,,,,,,,,,,,,,,,,,,,,,,,0,8,8,8,0,2,2,2,,,,,,,,,,,,,,,,,,,2766.313970291987,p,1.9842047919519246,2768.3688412499614,,,,,,271216,B,2024-06-27_14h20.36.035,EPIDM,2023.1.2,None,
9101.jpg,9571.jpg,2 Points,2 Points,492 points,PS2_L9.csv,,,,,,,,,,,,,,,,,,,,,,,,,,,,,0,8,8,8,0,3,3,3,,,,,,,,,,,,,,,,,,,2772.60951608303,q,1.9848070829175413,2774.6675086249597,,,,,,271216,B,2024-06-27_14h20.36.035,EPIDM,2023.1.2,None,
5410.jpg,1450.jpg,5 Points,5 Points,497 points,PS2_L9.csv,,,,,,,,,,,,,,,,,,,,,,,,,,,,,0,8,8,8,0,4,4,4,,,,,,,,,,,,,,,,,,,2778.9102026249748,q,1.0844077919609845,2780.052591457963,,,,,,271216,B,2024-06-27_14h20.36.035,EPIDM,2023.1.2,None,
F149.jpg,3030.jpg,0 Points,0 Points,497 points,PS2_L9.csv,,,,,,,,,,,,,,,,,,,,,,,,,,,,,0,8,8,8,0,5,5,5,,,,,,,,,,,,,,,,,,,2784.3065757920267,q,0.9037914170185104,2785.3173498749966,,,,,,271216,B,2024-06-27_14h20.36.035,EPIDM,2023.1.2,None,
3266.jpg,7360.jpg,1 Point,1 Point,498 points,PS2_L9.csv,,,,,,,,,,,,,,,,,,,,,,,,,,,,,0,8,8,8,0,6,6,6,,,,,,,,,,,,,,,,,,,2789.549203707953,q,1.2850042510544881,2790.9023804169847,,,,,,271216,B,2024-06-27_14h20.36.035,EPIDM,2023.1.2,None,
5660.jpg,5201.jpg,0 Points,0 Points,498 points,PS2_L9.csv,,,,,,,,,,,,,,,,,,,,,,,,,,,,,0,8,8,8,0,7,7,7,,,,,,,,,,,,,,,,,,,2795.155425291974,q,0.7905855829594657,2796.0264404169284,,,,,,271216,B,2024-06-27_14h20.36.035,EPIDM,2023.1.2,None,
1945.jpg,2800.jpg,4 Points,4 Points,502 points,PS2_L9.csv,,,,,,,,,,,,,,,,,,,,,,,,,,,,,0,8,8,8,0,8,8,8,,,,,,,,,,,,,,,,,,,2800.273208917002,p,0.8082870419602841,2801.161277999985,,,,,,271216,B,2024-06-27_14h20.36.035,EPIDM,2023.1.2,None,
3000.jpg,6200.jpg,5 Points,5 Points,507 points,PS2_L9.csv,,,,,,,,,,,,,,,,,,,,,,,,,,,,,0,8,8,8,0,9,9,9,,,,,,,,,,,,,,,,,,,2805.398485124926,q,0.84337549994234,2806.3033482079627,,,,,,271216,B,2024-06-27_14h20.36.035,EPIDM,2023.1.2,None,
2215.jpg,2512.jpg,1 Point,1 Point,508 points,PS2_L9.csv,,,,,,,,,,,,,,,,,,,,,,,,,,,,,0,8,8,8,0,10,10,10,,,,,,,,,,,,,,,,,,,2810.54812570801,p,1.253846208914183,2811.869805083028,,,,,,271216,B,2024-06-27_14h20.36.035,EPIDM,2023.1.2,None,
5460.jpg,5800.jpg,0 Points,0 Points,508 points,PS2_L9.csv,,,,,,,,,,,,,,,,,,,,,,,,,,,,,0,8,8,8,0,11,11,11,,,,,,,,,,,,,,,,,,,2816.122852499946,q,1.9668129169149324,2818.1614554169355,,,,,,271216,B,2024-06-27_14h20.36.035,EPIDM,2023.1.2,None,
3061.jpg,2717.jpg,4 Points,4 Points,512 points,PS2_L9.csv,,,,,,,,,,,,,,,,,,,,,,,,,,,,,0,8,8,8,0,12,12,12,,,,,,,,,,,,,,,,,,,2822.4048164170235,q,1.9491115839919075,2824.420680542011,,,,,,271216,B,2024-06-27_14h20.36.035,EPIDM,2023.1.2,None,
7380.jpg,1220.jpg,1 Point,1 Point,513 points,PS2_L9.csv,,,,,,,,,,,,,,,,,,,,,,,,,,,,,0,8,8,8,0,13,13,13,,,,,,,,,,,,,,,,,,,2828.6682859580033,p,1.0129412919050083,2829.740703291958,1,2.4296133749885485,,,,271216,B,2024-06-27_14h20.36.035,EPIDM,2023.1.2,None,
1740.jpg,7480.jpg,0 Points,0 Points,513 points,PS2_L9.csv,,,,,,,,,,,,,,,,,,,,,,,,,,,,,0,8,8,8,0,14,14,14,,,,,,,,,,,,,,,,,,,2836.4985939579783,p,1.9417710830457509,2838.5107162919594,,,,,,271216,B,2024-06-27_14h20.36.035,EPIDM,2023.1.2,None,
7285.jpg,4233.jpg,5 Points,5 Points,518 points,PS2_L9.csv,,,,,,,,,,,,,,,,,,,,,,,,,,,,,0,8,8,8,0,15,15,15,,,,,,,,,,,,,,,,,,,2842.757778332918,p,0.9149064999073744,2843.744384416961,,,,,,271216,B,2024-06-27_14h20.36.035,EPIDM,2023.1.2,None,
6830.jpg,6212.jpg,4 Points,4 Points,522 points,PS2_L9.csv,,,,,,,,,,,,,,,,,,,,,,,,,,,,,0,8,8,8,0,16,16,16,,,,,,,,,,,,,,,,,,,2847.9896204170072,p,1.1154472919879481,2849.170906124986,,,,,,271216,B,2024-06-27_14h20.36.035,EPIDM,2023.1.2,None,
7830.jpg,2499.jpg,3 Points,3 Points,525 points,PS2_L9.csv,,,,,,,,,,,,,,,,,,,,,,,,,,,,,0,8,8,8,0,17,17,17,,,,,,,,,,,,,,,,,,,2853.4242586250184,p,0.4328644588822499,2853.9276863749838,,,,,,271216,B,2024-06-27_14h20.36.035,EPIDM,2023.1.2,None,
9520.jpg,1931.jpg,3 Points,3 Points,528 points,PS2_L9.csv,,,,,,,,,,,,,,,,,,,,,,,,,,,,,0,8,8,8,0,18,18,18,,,,,,,,,,,,,,,,,,,2858.173993292032,q,0.9949168750317767,2859.2195091249887,,,,,,271216,B,2024-06-27_14h20.36.035,EPIDM,2023.1.2,None,
9160.jpg,1200.jpg,4 Points,4 Points,532 points,PS2_L9.csv,,,,,,,,,,,,,,,,,,,,,,,,,,,,,0,8,8,8,0,19,19,19,,,,,,,,,,,,,,,,,,,2863.480299166986,q,1.3130757079925388,2864.868127582944,,,,,,271216,B,2024-06-27_14h20.36.035,EPIDM,2023.1.2,None,
2020.jpg,1947.jpg,5 Points,5 Points,537 points,PS2_L9.csv,,,,,,,,,,,,,,,,,,,,,,,,,,,,,0,8,8,8,0,20,20,20,,,,,,,,,,,,,,,,,,,2869.107914082939,q,0.2604411250213161,2869.4374135419494,,,,,,271216,B,2024-06-27_14h20.36.035,EPIDM,2023.1.2,None,
4535.jpg,1811.jpg,1 Point,1 Point,538 points,PS2_L9.csv,,,,,,,,,,,,,,,,,,,,,,,,,,,,,0,8,8,8,0,21,21,21,,,,,,,,,,,,,,,,,,,2873.680841124966,p,1.0946991249220446,2874.850761999958,,,,,,271216,B,2024-06-27_14h20.36.035,EPIDM,2023.1.2,None,
9910.jpg,6940.jpg,2 Points,2 Points,540 points,PS2_L9.csv,,,,,,,,,,,,,,,,,,,,,,,,,,,,,0,8,8,8,0,22,22,22,,,,,,,,,,,,,,,,,,,2879.093997124932,q,1.3626989589538425,2880.521949667018,,,,,,271216,B,2024-06-27_14h20.36.035,EPIDM,2023.1.2,None,
9480.jpg,9250.jpg,0 Points,0 Points,540 points,PS2_L9.csv,,,,,,,,,,,,,,,,,,,,,,,,,,,,,0,8,8,8,0,23,23,23,,,,,,,,,,,,,,,,,,,2884.779861374991,p,1.756076957914047,2886.60091329203,,,2897.0841836669715,space,26.2356272500474,271216,B,2024-06-27_14h20.36.035,EPIDM,2023.1.2,None,
1660.jpg,2840.jpg,2 Points,2 Points,542 points,PS2_L10.csv,,,,,,,,,,,,,,,,,,,,,,,,,,,,,0,9,9,9,0,0,0,0,,,,,,,,,,,,,,,,,,,2926.6552964579314,p,0.8955578749300912,2927.6231351250317,,,,,,271216,B,2024-06-27_14h20.36.035,EPIDM,2023.1.2,None,
2691.jpg,7640.jpg,0 Points,0 Points,542 points,PS2_L10.csv,,,,,,,,,,,,,,,,,,,,,,,,,,,,,0,9,9,9,0,1,1,1,,,,,,,,,,,,,,,,,,,2931.866401499952,q,1.5481105420039967,2933.47881016694,0,2.1941141670104116,,,,271216,B,2024-06-27_14h20.36.035,EPIDM,2023.1.2,None,
9180.jpg,9046.jpg,3 Points,3 Points,545 points,PS2_L10.csv,,,,,,,,,,,,,,,,,,,,,,,,,,,,,0,9,9,9,0,2,2,2,,,,,,,,,,,,,,,,,,,2939.994966541999,p,3.139222125057131,2943.198324707919,,,,,,271216,B,2024-06-27_14h20.36.035,EPIDM,2023.1.2,None,
8041.jpg,2271.jpg,2 Points,2 Points,547 points,PS2_L10.csv,,,,,,,,,,,,,,,,,,,,,,,,,,,,,0,9,9,9,0,3,3,3,,,,,,,,,,,,,,,,,,,2947.4431350829545,q,0.6829674999462441,2948.199598041945,,,,,,271216,B,2024-06-27_14h20.36.035,EPIDM,2023.1.2,None,
1661.jpg,1321.jpg,3 Points,3 Points,550 points,PS2_L10.csv,,,,,,,,,,,,,,,,,,,,,,,,,,,,,0,9,9,9,0,4,4,4,,,,,,,,,,,,,,,,,,,2952.4463813749608,q,1.2810007920488715,2953.7897489169845,,,,,,271216,B,2024-06-27_14h20.36.035,EPIDM,2023.1.2,None,
9430.jpg,3010.jpg,5 Points,5 Points,555 points,PS2_L10.csv,,,,,,,,,,,,,,,,,,,,,,,,,,,,,0,9,9,9,0,5,5,5,,,,,,,,,,,,,,,,,,,2958.038214166998,q,2.7215820419369265,2960.814799958025,,,,,,271216,B,2024-06-27_14h20.36.035,EPIDM,2023.1.2,None,
2616.jpg,7238.jpg,4 Points,4 Points,559 points,PS2_L10.csv,,,,,,,,,,,,,,,,,,,,,,,,,,,,,0,9,9,9,0,6,6,6,,,,,,,,,,,,,,,,,,,2965.0776199169923,p,0.9524440419627354,2966.1026620829944,,,,,,271216,B,2024-06-27_14h20.36.035,EPIDM,2023.1.2,None,
9470.jpg,9400.jpg,3 Points,3 Points,562 points,PS2_L10.csv,,,,,,,,,,,,,,,,,,,,,,,,,,,,,0,9,9,9,0,7,7,7,,,,,,,,,,,,,,,,,,,2970.3492257079342,q,1.2571644169511274,2971.6822570000077,,,,,,271216,B,2024-06-27_14h20.36.035,EPIDM,2023.1.2,None,
8260.jpg,8280.jpg,3 Points,3 Points,565 points,PS2_L10.csv,,,,,,,,,,,,,,,,,,,,,,,,,,,,,0,9,9,9,0,8,8,8,,,,,,,,,,,,,,,,,,,2975.934992208029,q,0.6872427499620244,2976.6863694170024,,,,,,271216,B,2024-06-27_14h20.36.035,EPIDM,2023.1.2,None,
9230.jpg,9181.jpg,0 Points,0 Points,565 points,PS2_L10.csv,,,,,,,,,,,,,,,,,,,,,,,,,,,,,0,9,9,9,0,9,9,9,,,,,,,,,,,,,,,,,,,2980.944009208004,q,2.9255249579437077,2983.9374013749184,,,,,,271216,B,2024-06-27_14h20.36.035,EPIDM,2023.1.2,None,
6834.jpg,9120.jpg,5 Points,5 Points,570 points,PS2_L10.csv,,,,,,,,,,,,,,,,,,,,,,,,,,,,,0,9,9,9,0,10,10,10,,,,,,,,,,,,,,,,,,,2988.1906918749446,p,1.1908262920333073,2989.432677167002,,,,,,271216,B,2024-06-27_14h20.36.035,EPIDM,2023.1.2,None,
2440.jpg,7351.jpg,4 Points,4 Points,574 points,PS2_L10.csv,,,,,,,,,,,,,,,,,,,,,,,,,,,,,0,9,9,9,0,11,11,11,,,,,,,,,,,,,,,,,,,2993.691003166954,p,0.8509844170184806,2994.613833499956,,,,,,271216,B,2024-06-27_14h20.36.035,EPIDM,2023.1.2,None,
9280.jpg,9390.jpg,1 Point,1 Point,575 points,PS2_L10.csv,,,,,,,,,,,,,,,,,,,,,,,,,,,,,0,9,9,9,0,12,12,12,,,,,,,,,,,,,,,,,,,2998.8604946249397,p,1.0498457920039073,2999.989442249993,,,,,,271216,B,2024-06-27_14h20.36.035,EPIDM,2023.1.2,None,
7186.jpg,9182.jpg,2 Points,2 Points,577 points,PS2_L10.csv,,,,,,,,,,,,,,,,,,,,,,,,,,,,,0,9,9,9,0,13,13,13,,,,,,,,,,,,,,,,,,,3004.243415124947,q,1.3218617499805987,3005.6468693329953,2,1.9517088750144467,,,,271216,B,2024-06-27_14h20.36.035,EPIDM,2023.1.2,None,
7820.jpg,1121.jpg,0 Points,0 Points,577 points,PS2_L10.csv,,,,,,,,,,,,,,,,,,,,,,,,,,,,,0,9,9,9,0,14,14,14,,,,,,,,,,,,,,,,,,,3011.902729582973,q,0.6859797089127824,3012.66255470796,,,,,,271216,B,2024-06-27_14h20.36.035,EPIDM,2023.1.2,None,
1110.jpg,9331.jpg,2 Points,2 Points,579 points,PS2_L10.csv,,,,,,,,,,,,,,,,,,,,,,,,,,,,,0,9,9,9,0,15,15,15,,,,,,,,,,,,,,,,,,,3016.906937249936,p,0.9380006670253351,3017.9124871669337,,,,,,271216,B,2024-06-27_14h20.36.035,EPIDM,2023.1.2,None,
9001.jpg,9620.jpg,1 Point,1 Point,580 points,PS2_L10.csv,,,,,,,,,,,,,,,,,,,,,,,,,,,,,0,9,9,9,0,16,16,16,,,,,,,,,,,,,,,,,,,3022.1631757919677,q,1.0888399590039626,3023.3291175829945,,,,,,271216,B,2024-06-27_14h20.36.035,EPIDM,2023.1.2,None,
5535.jpg,8210.jpg,3 Points,3 Points,583 points,PS2_L10.csv,,,,,,,,,,,,,,,,,,,,,,,,,,,,,0,9,9,9,0,17,17,17,,,,,,,,,,,,,,,,,,,3027.576278041932,p,0.628198166959919,3028.280011957977,,,,,,271216,B,2024-06-27_14h20.36.035,EPIDM,2023.1.2,None,
7950.jpg,7187.jpg,1 Point,1 Point,584 points,PS2_L10.csv,,,,,,,,,,,,,,,,,,,,,,,,,,,,,0,9,9,9,0,18,18,18,,,,,,,,,,,,,,,,,,,3032.5228380829794,q,3.0258078339975327,3035.6240657080198,,,,,,271216,B,2024-06-27_14h20.36.035,EPIDM,2023.1.2,None,
3250.jpg,A053.jpg,3 Points,3 Points,587 points,PS2_L10.csv,,,,,,,,,,,,,,,,,,,,,,,,,,,,,0,9,9,9,0,19,19,19,,,,,,,,,,,,,,,,,,,3039.870516832918,q,1.6461709589930251,3041.618377332925,,,,,,271216,B,2024-06-27_14h20.36.035,EPIDM,2023.1.2,None,
2205.jpg,3053.jpg,4 Points,4 Points,591 points,PS2_L10.csv,,,,,,,,,,,,,,,,,,,,,,,,,,,,,0,9,9,9,0,20,20,20,,,,,,,,,,,,,,,,,,,3045.835603500018,p,1.1286967089399695,3047.02683979203,,,,,,271216,B,2024-06-27_14h20.36.035,EPIDM,2023.1.2,None,
5594.jpg,5750.jpg,5 Points,5 Points,596 points,PS2_L10.csv,,,,,,,,,,,,,,,,,,,,,,,,,,,,,0,9,9,9,0,21,21,21,,,,,,,,,,,,,,,,,,,3051.278490082943,q,0.8774851670023054,3052.2357656669337,,,,,,271216,B,2024-06-27_14h20.36.035,EPIDM,2023.1.2,None,
6900.jpg,8531.jpg,4 Points,4 Points,600 points,PS2_L10.csv,,,,,,,,,,,,,,,,,,,,,,,,,,,,,0,9,9,9,0,22,22,22,,,,,,,,,,,,,,,,,,,3056.473332624999,q,1.8665671669878066,3058.4167508749524,,,,,,271216,B,2024-06-27_14h20.36.035,EPIDM,2023.1.2,None,
1019.jpg,2120.jpg,0 Points,0 Points,600 points,PS2_L10.csv,,,,,,,,,,,,,,,,,,,,,,,,,,,,,0,9,9,9,0,23,23,23,,,,,,,,,,,,,,,,,,,3062.666338457959,p,1.753348584054038,3064.496115499991,,,3074.9757908750325,space,14.899636958958581,271216,B,2024-06-27_14h20.36.035,EPIDM,2023.1.2,None,
