L_Scene,R_Scene,Points_L,Points_R,PtTotal,blockFile,Instructions_Loop.thisRepN,Instructions_Loop.thisTrialN,Instructions_Loop.thisN,Instructions_Loop.thisIndex,Redo_Instructions_Loop.thisRepN,Redo_Instructions_Loop.thisTrialN,Redo_Instructions_Loop.thisN,Redo_Instructions_Loop.thisIndex,Practice_Encoding_Loop.thisRepN,Practice_Encoding_Loop.thisTrialN,Practice_Encoding_Loop.thisN,Practice_Encoding_Loop.thisIndex,Practice_Response_Fail_Loop.thisRepN,Practice_Response_Fail_Loop.thisTrialN,Practice_Response_Fail_Loop.thisN,Practice_Response_Fail_Loop.thisIndex,Practice_FB_Loop.thisRepN,Practice_FB_Loop.thisTrialN,Practice_FB_Loop.thisN,Practice_FB_Loop.thisIndex,Practice_Attention_Loop.thisRepN,Practice_Attention_Loop.thisTrialN,Practice_Attention_Loop.thisN,Practice_Attention_Loop.thisIndex,Practice_EncBrk_Loop.thisRepN,Practice_EncBrk_Loop.thisTrialN,Practice_EncBrk_Loop.thisN,Practice_EncBrk_Loop.thisIndex,Encoding_Loop.thisRepN,Encoding_Loop.thisTrialN,Encoding_Loop.thisN,Encoding_Loop.thisIndex,EncStim_Loop.thisRepN,EncStim_Loop.thisTrialN,EncStim_Loop.thisN,EncStim_Loop.thisIndex,Response_Fail_Loop.thisRepN,Response_Fail_Loop.thisTrialN,Response_Fail_Loop.thisN,Response_Fail_Loop.thisIndex,FB_Loop.thisRepN,FB_Loop.thisTrialN,FB_Loop.thisN,FB_Loop.thisIndex,Attention_Loop.thisRepN,Attention_Loop.thisTrialN,Attention_Loop.thisN,Attention_Loop.thisIndex,EncBrk_Loop.thisRepN,EncBrk_Loop.thisTrialN,EncBrk_Loop.thisN,EncBrk_Loop.thisIndex,Transition_Enc.keys,Transition_Enc.rt,Encoding_Resp.started,Encoding_Resp.keys,Encoding_Resp.rt,R_Point_FB_Stim.started,Attn_resp.keys,Attn_resp.rt,Progress_Tracker.started,EncBrk_Resp.keys,EncBrk_Resp.rt,participant,Group,date,expName,psychopyVersion,frameRate,
,,,,,,,,,,,,,,,,,,,,,,,,,,,,,,,,,,,,,,,,,,,,,,,,,,,,,,,,,,space,3.797077834024094,,,,,,,,,,272500,B,2024-11-18_19h14.38.178,EPIDM,2023.1.2,None,
A060.jpg,F041.jpg,5 Points,5 Points,5 Points,,,,,,,,,,0,0,0,0,,,,,,,,,,,,,,,,,,,,,,,,,,,,,,,,,,,,,,,,,,,927.4065588749945,q,1.8152744170074584,929.3632576249947,,,,,,272500,B,2024-11-18_19h14.38.178,EPIDM,2023.1.2,None,
O161.jpg,1812.jpg,2 Points,2 Points,7 Points,,,,,,,,,,0,1,1,1,,,,,,,,,,,,,,,,,,,,,,,,,,,,,,,,,,,,,,,,,,,933.520493457996,p,1.252493083011359,934.9090377909888,,,,,,272500,B,2024-11-18_19h14.38.178,EPIDM,2023.1.2,None,
O013.jpg,A001.jpg,3 Points,3 Points,10 Points,,,,,,,,,,0,2,2,2,,,,,,,,,,,,,,,,,,,,,,,,,,,,,,,,,,,,,,,,,,,939.073487540998,p,1.5474578760040458,940.797920500001,,,,,,272500,B,2024-11-18_19h14.38.178,EPIDM,2023.1.2,None,
P036.jpg,F273.jpg,5 Points,5 Points,15 Points,,,,,,,,,,0,3,3,3,,,,,,,,,,,,,,,,,,,,,,,,,,,,,,,,,,,,,,,,,,,944.9280520409957,q,2.085939625001629,947.1719031249959,,,,,,272500,B,2024-11-18_19h14.38.178,EPIDM,2023.1.2,None,
L130.jpg,2393.jpg,0 Points,0 Points,15 Points,,,,,,,,,,0,4,4,4,,,,,,,,,,,,,,,,,,,,,,,,,,,,,,,,,,,,,,,,,,,951.3195373329945,q,1.4615697090193862,952.9234777499951,0,2.6917658330057748,,,,272500,B,2024-11-18_19h14.38.178,EPIDM,2023.1.2,None,
F279.jpg,P033.jpg,3 Points,3 Points,18 Points,,,,,,,,,,0,5,5,5,,,,,,,,,,,,,,,,,,,,,,,,,,,,,,,,,,,,,,,,,,,959.8993952079909,q,1.6343497920024674,961.6776593749964,,,,,,272500,B,2024-11-18_19h14.38.178,EPIDM,2023.1.2,None,
A104.jpg,2593.jpg,2 Points,2 Points,20 Points,,,,,,,,,,0,6,6,6,,,,,,,,,,,,,,,,,,,,,,,,,,,,,,,,,,,,,,,,,,,965.8485065830027,p,1.1557074170123087,967.1410701659916,,,,,,272500,B,2024-11-18_19h14.38.178,EPIDM,2023.1.2,None,
2598.jpg,2605.jpg,0 Points,0 Points,20 Points,,,,,,,,,,0,7,7,7,,,,,,,,,,,,,,,,,,,,,,,,,,,,,,,,,,,,,,,,,,,971.3172625409934,q,1.111822334016324,972.4855805830011,,,,,,272500,B,2024-11-18_19h14.38.178,EPIDM,2023.1.2,None,
L005.jpg,O011.jpg,1 Points,1 Points,21 Points,,,,,,,,,,0,8,8,8,,,,,,,,,,,,,,,,,,,,,,,,,,,,,,,,,,,,,,,,,,,976.729578582992,q,1.5872341670037713,978.4512117080012,,,,,,272500,B,2024-11-18_19h14.38.178,EPIDM,2023.1.2,None,
8186.jpg,F078.jpg,2 Points,2 Points,23 Points,,,,,,,,,,0,9,9,9,,,,,,,,,,,,,,,,,,,,,,,,,,,,,,,,,,,,,,,,,,,982.623593457989,q,1.542003709007986,984.2967229999922,2,1.6800075840146746,996.1847254159948,space,12.698560751014156,272500,B,2024-11-18_19h14.38.178,EPIDM,2023.1.2,None,
,,,,,,,,,,,,,,,,,,,,,,,,,,,,,,,,,,,,,,,,,,,,,,,,,,,,,,,,,,space,4.799424126016675,,,,,,,,,,272500,B,2024-11-18_19h14.38.178,EPIDM,2023.1.2,None,
7284.jpg,8021.jpg,4 Points,4 Points,4 Points,PS2_L1.csv,,,,,,,,,,,,,,,,,,,,,,,,,,,,,0,0,0,0,0,0,0,0,,,,,,,,,,,,,,,,,,,1025.7392476249952,q,1.4325797500059707,1027.2890957079944,,,,,,272500,B,2024-11-18_19h14.38.178,EPIDM,2023.1.2,None,
2214.jpg,4500.jpg,3 Points,3 Points,7 points,PS2_L1.csv,,,,,,,,,,,,,,,,,,,,,,,,,,,,,0,0,0,0,0,1,1,1,,,,,,,,,,,,,,,,,,,1031.4869801659952,q,1.0605543330020737,1032.6267457079957,3,1.8287081260059495,,,,272500,B,2024-11-18_19h14.38.178,EPIDM,2023.1.2,None,
1280.jpg,9402.jpg,2 Points,2 Points,9 points,PS2_L1.csv,,,,,,,,,,,,,,,,,,,,,,,,,,,,,0,0,0,0,0,2,2,2,,,,,,,,,,,,,,,,,,,1038.7725033329916,p,1.015585209010169,1039.8589213329979,,,,,,272500,B,2024-11-18_19h14.38.178,EPIDM,2023.1.2,None,
1650.jpg,2130.jpg,1 Points,1 Points,10 points,PS2_L1.csv,,,,,,,,,,,,,,,,,,,,,,,,,,,,,0,0,0,0,0,3,3,3,,,,,,,,,,,,,,,,,,,1044.0980282079981,q,0.8499575420137262,1045.013765458003,,,,,,272500,B,2024-11-18_19h14.38.178,EPIDM,2023.1.2,None,
2221.jpg,2270.jpg,2 Points,2 Points,12 points,PS2_L1.csv,,,,,,,,,,,,,,,,,,,,,,,,,,,,,0,0,0,0,0,4,4,4,,,,,,,,,,,,,,,,,,,1049.2527158329904,p,0.8388291250157636,1050.16576587499,,,,,,272500,B,2024-11-18_19h14.38.178,EPIDM,2023.1.2,None,
9373.jpg,9410.jpg,0 Points,0 Points,12 points,PS2_L1.csv,,,,,,,,,,,,,,,,,,,,,,,,,,,,,0,0,0,0,0,5,5,5,,,,,,,,,,,,,,,,,,,1054.404781833,q,1.181788542002323,1055.6594270409987,,,,,,272500,B,2024-11-18_19h14.38.178,EPIDM,2023.1.2,None,
4250.jpg,7060.jpg,5 Points,5 Points,17 points,PS2_L1.csv,,,,,,,,,,,,,,,,,,,,,,,,,,,,,0,0,0,0,0,6,6,6,,,,,,,,,,,,,,,,,,,1059.9012218330026,p,1.2854428340215236,1061.2639571249892,,,,,,272500,B,2024-11-18_19h14.38.178,EPIDM,2023.1.2,None,
5130.jpg,1810.jpg,3 Points,3 Points,20 points,PS2_L1.csv,,,,,,,,,,,,,,,,,,,,,,,,,,,,,0,0,0,0,0,7,7,7,,,,,,,,,,,,,,,,,,,1065.4915282909933,q,0.8314864580170251,1066.4019849579927,,,,,,272500,B,2024-11-18_19h14.38.178,EPIDM,2023.1.2,None,
6370.jpg,1270.jpg,4 Points,4 Points,24 points,PS2_L1.csv,,,,,,,,,,,,,,,,,,,,,,,,,,,,,0,0,0,0,0,8,8,8,,,,,,,,,,,,,,,,,,,1070.6344619579904,q,1.0016501670033904,1071.7128775409947,,,,,,272500,B,2024-11-18_19h14.38.178,EPIDM,2023.1.2,None,
5480.jpg,8200.jpg,4 Points,4 Points,28 points,PS2_L1.csv,,,,,,,,,,,,,,,,,,,,,,,,,,,,,0,0,0,0,0,9,9,9,,,,,,,,,,,,,,,,,,,1075.9469317499897,q,1.6163386250118492,1077.6363496659906,,,,,,272500,B,2024-11-18_19h14.38.178,EPIDM,2023.1.2,None,
2520.jpg,8503.jpg,2 Points,2 Points,30 points,PS2_L1.csv,,,,,,,,,,,,,,,,,,,,,,,,,,,,,0,0,0,0,0,10,10,10,,,,,,,,,,,,,,,,,,,1081.8671775409894,p,1.8013394170120591,1083.751715374994,,,,,,272500,B,2024-11-18_19h14.38.178,EPIDM,2023.1.2,None,
5971.jpg,9912.jpg,5 Points,5 Points,35 points,PS2_L1.csv,,,,,,,,,,,,,,,,,,,,,,,,,,,,,0,0,0,0,0,11,11,11,,,,,,,,,,,,,,,,,,,1087.9885340829933,p,1.3267092500027502,1089.3886720829905,,,,,,272500,B,2024-11-18_19h14.38.178,EPIDM,2023.1.2,None,
7195.jpg,2487.jpg,2 Points,2 Points,37 points,PS2_L1.csv,,,,,,,,,,,,,,,,,,,,,,,,,,,,,0,0,0,0,0,12,12,12,,,,,,,,,,,,,,,,,,,1093.6294270829967,q,1.1096739590138895,1094.8078370000003,,,,,,272500,B,2024-11-18_19h14.38.178,EPIDM,2023.1.2,None,
6840.jpg,3080.jpg,1 Points,1 Points,38 points,PS2_L1.csv,,,,,,,,,,,,,,,,,,,,,,,,,,,,,0,0,0,0,0,13,13,13,,,,,,,,,,,,,,,,,,,1099.0713787909917,p,1.1156977090140572,1100.2624744579953,1,1.7325803750136402,,,,272500,B,2024-11-18_19h14.38.178,EPIDM,2023.1.2,None,
5510.jpg,2514.jpg,5 Points,5 Points,43 points,PS2_L1.csv,,,,,,,,,,,,,,,,,,,,,,,,,,,,,0,0,0,0,0,14,14,14,,,,,,,,,,,,,,,,,,,1106.3081203749898,q,1.2310459580185125,1107.6107294579997,,,,,,272500,B,2024-11-18_19h14.38.178,EPIDM,2023.1.2,None,
7170.jpg,2170.jpg,2 Points,2 Points,45 points,PS2_L1.csv,,,,,,,,,,,,,,,,,,,,,,,,,,,,,0,0,0,0,0,15,15,15,,,,,,,,,,,,,,,,,,,1111.857450083,p,1.8333163330098614,1113.7632985829987,,,,,,272500,B,2024-11-18_19h14.38.178,EPIDM,2023.1.2,None,
6020.jpg,6300.jpg,2 Points,2 Points,47 points,PS2_L1.csv,,,,,,,,,,,,,,,,,,,,,,,,,,,,,0,0,0,0,0,16,16,16,,,,,,,,,,,,,,,,,,,1118.0016692079953,q,0.7129284590046154,1118.7803294159967,,,,,,272500,B,2024-11-18_19h14.38.178,EPIDM,2023.1.2,None,
1942.jpg,2890.jpg,1 Points,1 Points,48 points,PS2_L1.csv,,,,,,,,,,,,,,,,,,,,,,,,,,,,,0,0,0,0,0,17,17,17,,,,,,,,,,,,,,,,,,,1123.0233504159987,q,1.7700108340068255,1124.8622541249933,,,,,,272500,B,2024-11-18_19h14.38.178,EPIDM,2023.1.2,None,
6241.jpg,9561.jpg,3 Points,3 Points,51 points,PS2_L1.csv,,,,,,,,,,,,,,,,,,,,,,,,,,,,,0,0,0,0,0,18,18,18,,,,,,,,,,,,,,,,,,,1129.1124847499887,p,1.3223043750185752,1130.5017675409908,,,,,,272500,B,2024-11-18_19h14.38.178,EPIDM,2023.1.2,None,
4536.jpg,2280.jpg,4 Points,4 Points,55 points,PS2_L1.csv,,,,,,,,,,,,,,,,,,,,,,,,,,,,,0,0,0,0,0,19,19,19,,,,,,,,,,,,,,,,,,,1134.7402924999915,q,1.1174814590194728,1135.9321791659895,,,,,,272500,B,2024-11-18_19h14.38.178,EPIDM,2023.1.2,None,
6000.jpg,6836.jpg,4 Points,4 Points,59 points,PS2_L1.csv,,,,,,,,,,,,,,,,,,,,,,,,,,,,,0,0,0,0,0,20,20,20,,,,,,,,,,,,,,,,,,,1140.187355749993,p,1.014707542010001,1141.2734377909946,,,,,,272500,B,2024-11-18_19h14.38.178,EPIDM,2023.1.2,None,
8232.jpg,4279.jpg,5 Points,5 Points,64 points,PS2_L1.csv,,,,,,,,,,,,,,,,,,,,,,,,,,,,,0,0,0,0,0,21,21,21,,,,,,,,,,,,,,,,,,,1145.5160716249957,q,0.8545018330187304,1146.4388879999897,,,,,,272500,B,2024-11-18_19h14.38.178,EPIDM,2023.1.2,None,
2312.jpg,2722.jpg,1 Points,1 Points,65 points,PS2_L1.csv,,,,,,,,,,,,,,,,,,,,,,,,,,,,,0,0,0,0,0,22,22,22,,,,,,,,,,,,,,,,,,,1150.6864805829973,q,1.1557887500093784,1151.9092713330028,,,,,,272500,B,2024-11-18_19h14.38.178,EPIDM,2023.1.2,None,
2750.jpg,9050.jpg,4 Points,4 Points,69 points,PS2_L1.csv,,,,,,,,,,,,,,,,,,,,,,,,,,,,,0,0,0,0,0,23,23,23,,,,,,,,,,,,,,,,,,,1156.1486902909965,q,1.237349125003675,1157.4456486249983,,,1167.9407624579908,space,5.884905750004691,272500,B,2024-11-18_19h14.38.178,EPIDM,2023.1.2,None,
1113.jpg,1240.jpg,3 Points,3 Points,72 points,PS2_L2.csv,,,,,,,,,,,,,,,,,,,,,,,,,,,,,0,1,1,1,0,0,0,0,,,,,,,,,,,,,,,,,,,1177.1354647499975,q,1.4983174580120249,1178.705398082995,,,,,,272500,B,2024-11-18_19h14.38.178,EPIDM,2023.1.2,None,
8220.jpg,2410.jpg,4 Points,4 Points,76 points,PS2_L2.csv,,,,,,,,,,,,,,,,,,,,,,,,,,,,,0,1,1,1,0,1,1,1,,,,,,,,,,,,,,,,,,,1182.9391246250016,p,1.8462105420039734,1184.8514518750017,4,1.6421158330194885,,,,272500,B,2024-11-18_19h14.38.178,EPIDM,2023.1.2,None,
4621.jpg,3550.jpg,2 Points,2 Points,78 points,PS2_L2.csv,,,,,,,,,,,,,,,,,,,,,,,,,,,,,0,1,1,1,0,2,2,2,,,,,,,,,,,,,,,,,,,1190.8024667080026,p,1.1180865420174086,1191.992601165999,,,,,,272500,B,2024-11-18_19h14.38.178,EPIDM,2023.1.2,None,
2751.jpg,6313.jpg,3 Points,3 Points,81 points,PS2_L2.csv,,,,,,,,,,,,,,,,,,,,,,,,,,,,,0,1,1,1,0,3,3,3,,,,,,,,,,,,,,,,,,,1196.2287210829963,p,1.7560290420078672,1198.0575724579976,,,,,,272500,B,2024-11-18_19h14.38.178,EPIDM,2023.1.2,None,
4689.jpg,7009.jpg,5 Points,5 Points,86 points,PS2_L2.csv,,,,,,,,,,,,,,,,,,,,,,,,,,,,,0,1,1,1,0,4,4,4,,,,,,,,,,,,,,,,,,,1202.2982622499985,q,1.0231815420120256,1203.3999950409925,,,,,,272500,B,2024-11-18_19h14.38.178,EPIDM,2023.1.2,None,
6831.jpg,2141.jpg,5 Points,5 Points,91 points,PS2_L2.csv,,,,,,,,,,,,,,,,,,,,,,,,,,,,,0,1,1,1,0,5,5,5,,,,,,,,,,,,,,,,,,,1207.650651207994,p,1.3825685830088332,1209.0953954159922,,,,,,272500,B,2024-11-18_19h14.38.178,EPIDM,2023.1.2,None,
9417.jpg,6530.jpg,1 Point,1 Point,92 points,PS2_L2.csv,,,,,,,,,,,,,,,,,,,,,,,,,,,,,0,1,1,1,0,6,6,6,,,,,,,,,,,,,,,,,,,1213.3351039580011,p,1.2656452090159291,1214.6738401249895,,,,,,272500,B,2024-11-18_19h14.38.178,EPIDM,2023.1.2,None,
7237.jpg,8510.jpg,4 Points,4 Points,96 points,PS2_L2.csv,,,,,,,,,,,,,,,,,,,,,,,,,,,,,0,1,1,1,0,7,7,7,,,,,,,,,,,,,,,,,,,1218.9011360409932,p,1.6998338750127004,1220.6715939999995,,,,,,272500,B,2024-11-18_19h14.38.178,EPIDM,2023.1.2,None,
4608.jpg,8320.jpg,1 Point,1 Point,97 points,PS2_L2.csv,,,,,,,,,,,,,,,,,,,,,,,,,,,,,0,1,1,1,0,8,8,8,,,,,,,,,,,,,,,,,,,1224.9086336659966,q,1.3578522510069888,1226.3391175409924,,,,,,272500,B,2024-11-18_19h14.38.178,EPIDM,2023.1.2,None,
9254.jpg,9290.jpg,2 Points,2 Points,99 points,PS2_L2.csv,,,,,,,,,,,,,,,,,,,,,,,,,,,,,0,1,1,1,0,9,9,9,,,,,,,,,,,,,,,,,,,1230.5918664999917,q,2.37598966700898,1233.0349230829888,,,,,,272500,B,2024-11-18_19h14.38.178,EPIDM,2023.1.2,None,
9530.jpg,9220.jpg,1 Point,1 Point,100 points,PS2_L2.csv,,,,,,,,,,,,,,,,,,,,,,,,,,,,,0,1,1,1,0,10,10,10,,,,,,,,,,,,,,,,,,,1237.3020284999948,q,1.0104862920125015,1238.37027449999,,,,,,272500,B,2024-11-18_19h14.38.178,EPIDM,2023.1.2,None,
2092.jpg,2210.jpg,0 Points,0 Points,100 points,PS2_L2.csv,,,,,,,,,,,,,,,,,,,,,,,,,,,,,0,1,1,1,0,11,11,11,,,,,,,,,,,,,,,,,,,1242.61891333299,q,0.9165714170085266,1243.6051513330021,,,,,,272500,B,2024-11-18_19h14.38.178,EPIDM,2023.1.2,None,
9500.jpg,6360.jpg,1 Point,1 Point,101 points,PS2_L2.csv,,,,,,,,,,,,,,,,,,,,,,,,,,,,,0,1,1,1,0,12,12,12,,,,,,,,,,,,,,,,,,,1247.8442502079997,p,1.3228509580076206,1249.2297819160012,,,,,,272500,B,2024-11-18_19h14.38.178,EPIDM,2023.1.2,None,
2220.jpg,2010.jpg,5 Points,5 Points,106 points,PS2_L2.csv,,,,,,,,,,,,,,,,,,,,,,,,,,,,,0,1,1,1,0,13,13,13,,,,,,,,,,,,,,,,,,,1253.4808939159993,q,0.519117792006,1254.0788548749988,5,1.601712417017552,,,,272500,B,2024-11-18_19h14.38.178,EPIDM,2023.1.2,None,
5940.jpg,9411.jpg,0 Points,0 Points,106 points,PS2_L2.csv,,,,,,,,,,,,,,,,,,,,,,,,,,,,,0,1,1,1,0,14,14,14,,,,,,,,,,,,,,,,,,,1259.994908499997,q,0.7166198750055628,1260.7783712079981,,,,,,272500,B,2024-11-18_19h14.38.178,EPIDM,2023.1.2,None,
4533.jpg,2385.jpg,3 Points,3 Points,109 points,PS2_L2.csv,,,,,,,,,,,,,,,,,,,,,,,,,,,,,0,1,1,1,0,15,15,15,,,,,,,,,,,,,,,,,,,1265.021245875003,q,1.0660568750172388,1266.170893040995,,,,,,272500,B,2024-11-18_19h14.38.178,EPIDM,2023.1.2,None,
9340.jpg,6910.jpg,0 Points,0 Points,109 points,PS2_L2.csv,,,,,,,,,,,,,,,,,,,,,,,,,,,,,0,1,1,1,0,16,16,16,,,,,,,,,,,,,,,,,,,1270.4081807499897,q,1.0793352500186302,1271.5582442079904,,,,,,272500,B,2024-11-18_19h14.38.178,EPIDM,2023.1.2,None,
8350.jpg,7190.jpg,5 Points,5 Points,114 points,PS2_L2.csv,,,,,,,,,,,,,,,,,,,,,,,,,,,,,0,1,1,1,0,17,17,17,,,,,,,,,,,,,,,,,,,1275.7947992499976,q,0.6537545420142123,1276.5341706249892,,,,,,272500,B,2024-11-18_19h14.38.178,EPIDM,2023.1.2,None,
6211.jpg,9611.jpg,3 Points,3 Points,117 points ,PS2_L2.csv,,,,,,,,,,,,,,,,,,,,,,,,,,,,,0,1,1,1,0,18,18,18,,,,,,,,,,,,,,,,,,,1280.7679109159944,q,0.8809083760133944,1281.7126034999965,,,,,,272500,B,2024-11-18_19h14.38.178,EPIDM,2023.1.2,None,
2053.jpg,9415.jpg,4 Points,4 Points,121 points,PS2_L2.csv,,,,,,,,,,,,,,,,,,,,,,,,,,,,,0,1,1,1,0,19,19,19,,,,,,,,,,,,,,,,,,,1285.9575617079972,q,1.328305334012839,1287.3493854999979,,,,,,272500,B,2024-11-18_19h14.38.178,EPIDM,2023.1.2,None,
2110.jpg,7260.jpg,5 Points,5 Points,126 points,PS2_L2.csv,,,,,,,,,,,,,,,,,,,,,,,,,,,,,0,1,1,1,0,20,20,20,,,,,,,,,,,,,,,,,,,1291.6000098749937,q,0.6481280420121038,1292.315909165991,,,,,,272500,B,2024-11-18_19h14.38.178,EPIDM,2023.1.2,None,
2030.jpg,2495.jpg,0 Points,0 Points,126 points,PS2_L2.csv,,,,,,,,,,,,,,,,,,,,,,,,,,,,,0,1,1,1,0,21,21,21,,,,,,,,,,,,,,,,,,,1296.5570434580004,q,1.5216518760134932,1298.1569042079936,,,,,,272500,B,2024-11-18_19h14.38.178,EPIDM,2023.1.2,None,
1302.jpg,2700.jpg,3 Points,3 Points,129 points,PS2_L2.csv,,,,,,,,,,,,,,,,,,,,,,,,,,,,,0,1,1,1,0,22,22,22,,,,,,,,,,,,,,,,,,,1302.3968402079918,p,0.689856459008297,1303.1702519999963,,,,,,272500,B,2024-11-18_19h14.38.178,EPIDM,2023.1.2,None,
9010.jpg,9253.jpg,0 Points,0 Points,129 points,PS2_L2.csv,,,,,,,,,,,,,,,,,,,,,,,,,,,,,0,1,1,1,0,23,23,23,,,,,,,,,,,,,,,,,,,1307.4071231249982,p,0.7357754590193508,1308.2073771659925,,,1318.7457399159903,space,10.380428459000541,272500,B,2024-11-18_19h14.38.178,EPIDM,2023.1.2,None,
1303.jpg,2000.jpg,0 Points,0 Points,129 points,PS2_L3.csv,,,,,,,,,,,,,,,,,,,,,,,,,,,,,0,2,2,2,0,0,0,0,,,,,,,,,,,,,,,,,,,1332.4293348749925,p,1.457151792012155,1333.9604672080022,,,,,,272500,B,2024-11-18_19h14.38.178,EPIDM,2023.1.2,None,
2200.jpg,4598.jpg,1 Point,1 Point,130 points,PS2_L3.csv,,,,,,,,,,,,,,,,,,,,,,,,,,,,,0,2,2,2,0,1,1,1,,,,,,,,,,,,,,,,,,,1338.2063958749932,p,1.9276145840121899,1340.2040811659972,1,0.9160705000103917,,,,272500,B,2024-11-18_19h14.38.178,EPIDM,2023.1.2,None,
6190.jpg,3120.jpg,5 Points,5 Points,135 points,PS2_L3.csv,,,,,,,,,,,,,,,,,,,,,,,,,,,,,0,2,2,2,0,2,2,2,,,,,,,,,,,,,,,,,,,1345.440044916002,p,1.3818832500110148,1346.8944282909943,,,,,,272500,B,2024-11-18_19h14.38.178,EPIDM,2023.1.2,None,
2570.jpg,5500.jpg,3 Points,3 Points,138 points,PS2_L3.csv,,,,,,,,,,,,,,,,,,,,,,,,,,,,,0,2,2,2,0,3,3,3,,,,,,,,,,,,,,,,,,,1351.1248006249953,p,1.4644713760062587,1352.6671435409953,,,,,,272500,B,2024-11-18_19h14.38.178,EPIDM,2023.1.2,None,
8460.jpg,8330.jpg,0 Points,0 Points,138 points,PS2_L3.csv,,,,,,,,,,,,,,,,,,,,,,,,,,,,,0,2,2,2,0,4,4,4,,,,,,,,,,,,,,,,,,,1356.907852999997,p,1.4338483750179876,1358.406902415998,,,,,,272500,B,2024-11-18_19h14.38.178,EPIDM,2023.1.2,None,
9320.jpg,9007.jpg,0 Points,0 Points,138 points,PS2_L3.csv,,,,,,,,,,,,,,,,,,,,,,,,,,,,,0,2,2,2,0,5,5,5,,,,,,,,,,,,,,,,,,,1362.652331833,p,0.9773230420105392,1363.6940872909909,,,,,,272500,B,2024-11-18_19h14.38.178,EPIDM,2023.1.2,None,
2650.jpg,4531.jpg,5 Points,5 Points,143 points,PS2_L3.csv,,,,,,,,,,,,,,,,,,,,,,,,,,,,,0,2,2,2,0,6,6,6,,,,,,,,,,,,,,,,,,,1367.9317584579985,p,1.6656750840047607,1369.677619790993,,,,,,272500,B,2024-11-18_19h14.38.178,EPIDM,2023.1.2,None,
4100.jpg,6570.2.jpg,3 Points,3 Points,146 points,PS2_L3.csv,,,,,,,,,,,,,,,,,,,,,,,,,,,,,0,2,2,2,0,7,7,7,,,,,,,,,,,,,,,,,,,1373.9069554159942,p,2.194952917008777,1376.1810509579955,,,,,,272500,B,2024-11-18_19h14.38.178,EPIDM,2023.1.2,None,
3102.jpg,F032.jpg,1 Point,1 Point,147 points,PS2_L3.csv,,,,,,,,,,,,,,,,,,,,,,,,,,,,,0,2,2,2,0,8,8,8,,,,,,,,,,,,,,,,,,,1380.4192164580018,q,1.0736137500207406,1381.5998074160016,,,,,,272500,B,2024-11-18_19h14.38.178,EPIDM,2023.1.2,None,
2240.jpg,5010.jpg,5 Points,5 Points,152 points,PS2_L3.csv,,,,,,,,,,,,,,,,,,,,,,,,,,,,,0,2,2,2,0,9,9,9,,,,,,,,,,,,,,,,,,,1385.8051076659904,q,1.6086686670169001,1387.534101415993,,,,,,272500,B,2024-11-18_19h14.38.178,EPIDM,2023.1.2,None,
4605.jpg,1510.jpg,4 Points,4 Points,156 points,PS2_L3.csv,,,,,,,,,,,,,,,,,,,,,,,,,,,,,0,2,2,2,0,10,10,10,,,,,,,,,,,,,,,,,,,1391.7385451659939,q,0.8751966670097318,1392.6933881659934,,,,,,272500,B,2024-11-18_19h14.38.178,EPIDM,2023.1.2,None,
9490.jpg,9210.jpg,1 Point,1 Point,157 points,PS2_L3.csv,,,,,,,,,,,,,,,,,,,,,,,,,,,,,0,2,2,2,0,11,11,11,,,,,,,,,,,,,,,,,,,1396.934371041003,p,1.1587492500111694,1398.1700499579892,,,,,,272500,B,2024-11-18_19h14.38.178,EPIDM,2023.1.2,None,
6821.jpg,9622.jpg,2 Points,2 Points,159 points,PS2_L3.csv,,,,,,,,,,,,,,,,,,,,,,,,,,,,,0,2,2,2,0,12,12,12,,,,,,,,,,,,,,,,,,,1402.4155329159985,q,2.3008400420221733,1404.778708124999,,,,,,272500,B,2024-11-18_19h14.38.178,EPIDM,2023.1.2,None,
2681.jpg,7100.jpg,3 Points,3 Points,162 points,PS2_L3.csv,,,,,,,,,,,,,,,,,,,,,,,,,,,,,0,2,2,2,0,13,13,13,,,,,,,,,,,,,,,,,,,1409.029292332998,q,1.0958084170124494,1410.194373624996,3,1.4089971670182422,,,,272500,B,2024-11-18_19h14.38.178,EPIDM,2023.1.2,None,
5622.jpg,9156.jpg,4 Points,4 Points,166 points,PS2_L3.csv,,,,,,,,,,,,,,,,,,,,,,,,,,,,,0,2,2,2,0,14,14,14,,,,,,,,,,,,,,,,,,,1415.9184660000028,p,2.0224730420159176,1418.0142263750022,,,,,,272500,B,2024-11-18_19h14.38.178,EPIDM,2023.1.2,None,
1111.jpg,1040.jpg,0 Points,0 Points,166 points,PS2_L3.csv,,,,,,,,,,,,,,,,,,,,,,,,,,,,,0,2,2,2,0,15,15,15,,,,,,,,,,,,,,,,,,,1422.2436029160017,p,1.7441438759997254,1424.0691707499936,,,,,,272500,B,2024-11-18_19h14.38.178,EPIDM,2023.1.2,None,
1112.jpg,6230.jpg,3 Points,3 Points,169 points,PS2_L3.csv,,,,,,,,,,,,,,,,,,,,,,,,,,,,,0,2,2,2,0,16,16,16,,,,,,,,,,,,,,,,,,,1428.3082326250005,p,1.6398725010076305,1430.0153750829923,,,,,,272500,B,2024-11-18_19h14.38.178,EPIDM,2023.1.2,None,
8161.jpg,1900.jpg,4 Points,4 Points,173 points,PS2_L3.csv,,,,,,,,,,,,,,,,,,,,,,,,,,,,,0,2,2,2,0,17,17,17,,,,,,,,,,,,,,,,,,,1434.251483125001,q,1.103851209001732,1435.4248988329928,,,,,,272500,B,2024-11-18_19h14.38.178,EPIDM,2023.1.2,None,
9800.jpg,9433.jpg,1 Point,1 Point,174 points,PS2_L3.csv,,,,,,,,,,,,,,,,,,,,,,,,,,,,,0,2,2,2,0,18,18,18,,,,,,,,,,,,,,,,,,,1439.6708744159987,p,2.005019625023124,1441.7418307909975,,,,,,272500,B,2024-11-18_19h14.38.178,EPIDM,2023.1.2,None,
1390.jpg,9421.jpg,2 Points,2 Points,176 points,PS2_L3.csv,,,,,,,,,,,,,,,,,,,,,,,,,,,,,0,2,2,2,0,19,19,19,,,,,,,,,,,,,,,,,,,1445.9800302499934,p,0.6963847080041887,1446.7449004160007,,,,,,272500,B,2024-11-18_19h14.38.178,EPIDM,2023.1.2,None,
2850.jpg,4532.jpg,3 Points,3 Points,179 points,PS2_L3.csv,,,,,,,,,,,,,,,,,,,,,,,,,,,,,0,2,2,2,0,20,20,20,,,,,,,,,,,,,,,,,,,1450.991810958003,q,0.9635281250084518,1452.0234692499944,,,,,,272500,B,2024-11-18_19h14.38.178,EPIDM,2023.1.2,None,
1560.jpg,8185.jpg,0 Points,0 Points,179 points,PS2_L3.csv,,,,,,,,,,,,,,,,,,,,,,,,,,,,,0,2,2,2,0,21,21,21,,,,,,,,,,,,,,,,,,,1456.2803147910017,p,0.7475340840028366,1457.089387874992,,,,,,272500,B,2024-11-18_19h14.38.178,EPIDM,2023.1.2,None,
6314.jpg,O022.jpg,2 Points,2 Points,181 points,PS2_L3.csv,,,,,,,,,,,,,,,,,,,,,,,,,,,,,0,2,2,2,0,22,22,22,,,,,,,,,,,,,,,,,,,1461.3269662499952,q,0.9647834170027636,1462.4073245829932,,,,,,272500,B,2024-11-18_19h14.38.178,EPIDM,2023.1.2,None,
4274.jpg,8160.jpg,2 Points,2 Points,183 points,PS2_L3.csv,,,,,,,,,,,,,,,,,,,,,,,,,,,,,0,2,2,2,0,23,23,23,,,,,,,,,,,,,,,,,,,1466.6081294159958,q,1.195192584011238,1467.9033787910012,,,1478.358435000002,space,4.116239374998258,272500,B,2024-11-18_19h14.38.178,EPIDM,2023.1.2,None,
8117.jpg,2880.jpg,5 Points,5 Points,188 points,PS2_L4.csv,,,,,,,,,,,,,,,,,,,,,,,,,,,,,0,3,3,3,0,0,0,0,,,,,,,,,,,,,,,,,,,1485.7805296659935,q,1.0059104170068167,1486.8544572909886,,,,,,272500,B,2024-11-18_19h14.38.178,EPIDM,2023.1.2,None,
3220.jpg,3063.jpg,5 Points,5 Points,193 points,PS2_L4.csv,,,,,,,,,,,,,,,,,,,,,,,,,,,,,0,3,3,3,0,1,1,1,,,,,,,,,,,,,,,,,,,1491.088126540999,p,2.2663095840107417,1493.4150654580008,5,1.7643180010054493,,,,272500,B,2024-11-18_19h14.38.178,EPIDM,2023.1.2,None,
9040.jpg,1120.jpg,3 Points,3 Points,196 points,PS2_L4.csv,,,,,,,,,,,,,,,,,,,,,,,,,,,,,0,3,3,3,0,2,2,2,,,,,,,,,,,,,,,,,,,1499.4715272909962,q,0.8507982090231963,1500.3839054580021,,,,,,272500,B,2024-11-18_19h14.38.178,EPIDM,2023.1.2,None,
5030.jpg,1670.jpg,3 Points,3 Points,199 points,PS2_L4.csv,,,,,,,,,,,,,,,,,,,,,,,,,,,,,0,3,3,3,0,3,3,3,,,,,,,,,,,,,,,,,,,1504.6224419579958,q,1.9155664590216475,1506.6064292910014,,,,,,272500,B,2024-11-18_19h14.38.178,EPIDM,2023.1.2,None,
2276.jpg,6540.jpg,3 Points,3 Points,202 points,PS2_L4.csv,,,,,,,,,,,,,,,,,,,,,,,,,,,,,0,3,3,3,0,4,4,4,,,,,,,,,,,,,,,,,,,1510.8475310829963,q,2.2263544580200687,1513.1275896659936,,,,,,272500,B,2024-11-18_19h14.38.178,EPIDM,2023.1.2,None,
1540.jpg,2600.jpg,1 Point,1 Point,203 points,PS2_L4.csv,,,,,,,,,,,,,,,,,,,,,,,,,,,,,0,3,3,3,0,5,5,5,,,,,,,,,,,,,,,,,,,1517.3853155830002,p,0.6744978750066366,1518.121102707999,,,,,,272500,B,2024-11-18_19h14.38.178,EPIDM,2023.1.2,None,
8465.jpg,8400.jpg,1 Point,1 Point,204 points,PS2_L4.csv,,,,,,,,,,,,,,,,,,,,,,,,,,,,,0,3,3,3,0,6,6,6,,,,,,,,,,,,,,,,,,,1522.3593590410019,q,1.2670422500232235,1523.6989312499936,,,,,,272500,B,2024-11-18_19h14.38.178,EPIDM,2023.1.2,None,
3110.jpg,9000.jpg,4 Points,4 Points,208 points,PS2_L4.csv,,,,,,,,,,,,,,,,,,,,,,,,,,,,,0,3,3,3,0,7,7,7,,,,,,,,,,,,,,,,,,,1527.9492069159896,q,1.3409111670189304,1529.3558670409984,,,,,,272500,B,2024-11-18_19h14.38.178,EPIDM,2023.1.2,None,
9570.jpg,6610.jpg,0 Points,0 Points,208 points,PS2_L4.csv,,,,,,,,,,,,,,,,,,,,,,,,,,,,,0,3,3,3,0,8,8,8,,,,,,,,,,,,,,,,,,,1533.5912771659932,q,0.9536317920137662,1534.6179087079945,,,,,,272500,B,2024-11-18_19h14.38.178,EPIDM,2023.1.2,None,
2690.jpg,9360.jpg,1 Point,1 Point,209 points,PS2_L4.csv,,,,,,,,,,,,,,,,,,,,,,,,,,,,,0,3,3,3,0,9,9,9,,,,,,,,,,,,,,,,,,,1538.860384832995,q,2.19881491700653,1541.1286718329939,,,,,,272500,B,2024-11-18_19h14.38.178,EPIDM,2023.1.2,None,
8250.jpg,1313.jpg,4 Points,4 Points,213 points,PS2_L4.csv,,,,,,,,,,,,,,,,,,,,,,,,,,,,,0,3,3,3,0,10,10,10,,,,,,,,,,,,,,,,,,,1545.3782220409921,p,1.1352918750053504,1546.5875295000005,,,,,,272500,B,2024-11-18_19h14.38.178,EPIDM,2023.1.2,None,
3022.jpg,2352.2.jpg,0 Points,0 Points,213 points,PS2_L4.csv,,,,,,,,,,,,,,,,,,,,,,,,,,,,,0,3,3,3,0,11,11,11,,,,,,,,,,,,,,,,,,,1550.8215031250002,p,1.179424084009952,1552.0819766659988,,,,,,272500,B,2024-11-18_19h14.38.178,EPIDM,2023.1.2,None,
9920.jpg,3068.jpg,5 Points,5 Points,218 points,PS2_L4.csv,,,,,,,,,,,,,,,,,,,,,,,,,,,,,0,3,3,3,0,12,12,12,,,,,,,,,,,,,,,,,,,1556.3180819159898,p,2.114873708007508,1558.4933111249993,,,,,,272500,B,2024-11-18_19h14.38.178,EPIDM,2023.1.2,None,
7234.jpg,5533.jpg,3 Points,3 Points,221 points,PS2_L4.csv,,,,,,,,,,,,,,,,,,,,,,,,,,,,,0,3,3,3,0,13,13,13,,,,,,,,,,,,,,,,,,,1562.7407452499901,q,1.1405859590158798,1563.945705207996,3,1.304552000015974,,,,272500,B,2024-11-18_19h14.38.178,EPIDM,2023.1.2,None,
6250.1.jpg,3301.jpg,0 Points,0 Points,221 points,PS2_L4.csv,,,,,,,,,,,,,,,,,,,,,,,,,,,,,0,3,3,3,0,14,14,14,,,,,,,,,,,,,,,,,,,1569.5714359159902,p,0.8450462090113433,1570.491104582994,,,,,,272500,B,2024-11-18_19h14.38.178,EPIDM,2023.1.2,None,
2518.jpg,2381.jpg,1 Point,1 Point,222 points,PS2_L4.csv,,,,,,,,,,,,,,,,,,,,,,,,,,,,,0,3,3,3,0,15,15,15,,,,,,,,,,,,,,,,,,,1574.7368301660026,q,1.6959297920111567,1576.4916126250027,,,,,,272500,B,2024-11-18_19h14.38.178,EPIDM,2023.1.2,None,
1910.jpg,2575.jpg,2 Points,2 Points,224 points,PS2_L4.csv,,,,,,,,,,,,,,,,,,,,,,,,,,,,,0,3,3,3,0,16,16,16,,,,,,,,,,,,,,,,,,,1580.7471297500015,p,0.9811037920153467,1581.7837742909906,,,,,,272500,B,2024-11-18_19h14.38.178,EPIDM,2023.1.2,None,
1275.jpg,3150.jpg,1 Point,1 Point,225 points,PS2_L4.csv,,,,,,,,,,,,,,,,,,,,,,,,,,,,,0,3,3,3,0,17,17,17,,,,,,,,,,,,,,,,,,,1586.0436591659964,p,0.917594126003678,1587.0232301249926,,,,,,272500,B,2024-11-18_19h14.38.178,EPIDM,2023.1.2,None,
2702.jpg,1590.jpg,5 Points,5 Points,230 points,PS2_L4.csv,,,,,,,,,,,,,,,,,,,,,,,,,,,,,0,3,3,3,0,18,18,18,,,,,,,,,,,,,,,,,,,1591.2673000829964,q,1.2126623340154765,1592.5508868749894,,,,,,272500,B,2024-11-18_19h14.38.178,EPIDM,2023.1.2,None,
8480.jpg,6410.jpg,1 Point,1 Point,231 points,PS2_L4.csv,,,,,,,,,,,,,,,,,,,,,,,,,,,,,0,3,3,3,0,19,19,19,,,,,,,,,,,,,,,,,,,1596.783746125002,p,1.1921520010073436,1598.0498312080017,,,,,,272500,B,2024-11-18_19h14.38.178,EPIDM,2023.1.2,None,
5621.jpg,5534.jpg,3 Points,3 Points,234 points,PS2_L4.csv,,,,,,,,,,,,,,,,,,,,,,,,,,,,,0,3,3,3,0,20,20,20,,,,,,,,,,,,,,,,,,,1602.2954205409915,q,1.1132424590177834,1603.4890236249921,,,,,,272500,B,2024-11-18_19h14.38.178,EPIDM,2023.1.2,None,
5972.jpg,6838.jpg,5 Points,5 Points,239 points,PS2_L4.csv,,,,,,,,,,,,,,,,,,,,,,,,,,,,,0,3,3,3,0,21,21,21,,,,,,,,,,,,,,,,,,,1607.72286324999,p,1.3405080010124948,1609.134860207996,,,,,,272500,B,2024-11-18_19h14.38.178,EPIDM,2023.1.2,None,
2580.jpg,8300.jpg,3 Points,3 Points,242 points,PS2_L4.csv,,,,,,,,,,,,,,,,,,,,,,,,,,,,,0,3,3,3,0,22,22,22,,,,,,,,,,,,,,,,,,,1613.3768124579947,q,0.8867772510129726,1614.3347413750016,,,,,,272500,B,2024-11-18_19h14.38.178,EPIDM,2023.1.2,None,
7280.jpg,7160.jpg,0 Points,0 Points,242 points,PS2_L4.csv,,,,,,,,,,,,,,,,,,,,,,,,,,,,,0,3,3,3,0,23,23,23,,,,,,,,,,,,,,,,,,,1618.5734439999942,q,0.9060800010047387,1619.5667404999986,,,1630.0398583329952,space,3.9659137500129873,272500,B,2024-11-18_19h14.38.178,EPIDM,2023.1.2,None,
6243.jpg,2752.jpg,2 Points,2 Points,244 points,PS2_L5.csv,,,,,,,,,,,,,,,,,,,,,,,,,,,,,0,4,4,4,0,0,0,0,,,,,,,,,,,,,,,,,,,1637.3162373749947,p,2.0348294170107692,1639.428039624996,,,,,,272500,B,2024-11-18_19h14.38.178,EPIDM,2023.1.2,None,
8340.jpg,7546.jpg,2 Points,2 Points,246 points,PS2_L5.csv,,,,,,,,,,,,,,,,,,,,,,,,,,,,,0,4,4,4,0,1,1,1,,,,,,,,,,,,,,,,,,,1643.6661560409993,p,1.0288754170178436,1644.76346224999,2,1.1263739590212936,,,,272500,B,2024-11-18_19h14.38.178,EPIDM,2023.1.2,None,
1022.jpg,6930.jpg,1 Point,1 Point,247 points,PS2_L5.csv,,,,,,,,,,,,,,,,,,,,,,,,,,,,,0,4,4,4,0,2,2,2,,,,,,,,,,,,,,,,,,,1650.2062162499933,q,0.8803656670206692,1651.1523515409935,,,,,,272500,B,2024-11-18_19h14.38.178,EPIDM,2023.1.2,None,
7230.jpg,7570.jpg,5 Points,5 Points,252 points,PS2_L5.csv,,,,,,,,,,,,,,,,,,,,,,,,,,,,,0,4,4,4,0,3,3,3,,,,,,,,,,,,,,,,,,,1655.3952282499959,q,1.051415251014987,1656.5247756250028,,,,,,272500,B,2024-11-18_19h14.38.178,EPIDM,2023.1.2,None,
5760.jpg,1602.jpg,1 Point,1 Point,253 points,PS2_L5.csv,,,,,,,,,,,,,,,,,,,,,,,,,,,,,0,4,4,4,0,4,4,4,,,,,,,,,,,,,,,,,,,1660.7618849159917,q,0.49461758401594125,1661.3263000829902,,,,,,272500,B,2024-11-18_19h14.38.178,EPIDM,2023.1.2,None,
9584.jpg,3400.jpg,2 Points,2 Points,255 points,PS2_L5.csv,,,,,,,,,,,,,,,,,,,,,,,,,,,,,0,4,4,4,0,5,5,5,,,,,,,,,,,,,,,,,,,1665.5649730000005,p,1.0005000420060242,1666.6142545829935,,,,,,272500,B,2024-11-18_19h14.38.178,EPIDM,2023.1.2,None,
2560.jpg,5270.jpg,4 Points,4 Points,259 points,PS2_L5.csv,,,,,,,,,,,,,,,,,,,,,,,,,,,,,0,4,4,4,0,6,6,6,,,,,,,,,,,,,,,,,,,1670.865264957989,q,1.6052495000039926,1672.547645832994,,,,,,272500,B,2024-11-18_19h14.38.178,EPIDM,2023.1.2,None,
3350.jpg,3210.jpg,1 Point,1 Point,260 points,PS2_L5.csv,,,,,,,,,,,,,,,,,,,,,,,,,,,,,0,4,4,4,0,7,7,7,,,,,,,,,,,,,,,,,,,1676.7889498329896,q,1.3291703760187374,1678.1888439159957,,,,,,272500,B,2024-11-18_19h14.38.178,EPIDM,2023.1.2,None,
5455.jpg,5220.jpg,0 Points,0 Points,260 points,PS2_L5.csv,,,,,,,,,,,,,,,,,,,,,,,,,,,,,0,4,4,4,0,8,8,8,,,,,,,,,,,,,,,,,,,1682.4293747079937,q,1.9515374170150608,1684.4427023749886,,,,,,272500,B,2024-11-18_19h14.38.178,EPIDM,2023.1.2,None,
7920.jpg,9102.jpg,3 Points,3 Points,263 points,PS2_L5.csv,,,,,,,,,,,,,,,,,,,,,,,,,,,,,0,4,4,4,0,9,9,9,,,,,,,,,,,,,,,,,,,1688.691383915997,p,0.8745293750107521,1689.6363731659949,,,,,,272500,B,2024-11-18_19h14.38.178,EPIDM,2023.1.2,None,
1301.jpg,1070.jpg,2 Points,2 Points,265 points,PS2_L5.csv,,,,,,,,,,,,,,,,,,,,,,,,,,,,,0,4,4,4,0,10,10,10,,,,,,,,,,,,,,,,,,,1693.8780448329926,q,2.7838156250072643,1696.7318067079905,,,,,,272500,B,2024-11-18_19h14.38.178,EPIDM,2023.1.2,None,
5982.jpg,5260.jpg,5 Points,5 Points,270 points,PS2_L5.csv,,,,,,,,,,,,,,,,,,,,,,,,,,,,,0,4,4,4,0,11,11,11,,,,,,,,,,,,,,,,,,,1700.9707947080024,p,1.2426150420069462,1702.2914634579938,,,,,,272500,B,2024-11-18_19h14.38.178,EPIDM,2023.1.2,None,
5000.jpg,8180.jpg,4 Points,4 Points,274 points,PS2_L5.csv,,,,,,,,,,,,,,,,,,,,,,,,,,,,,0,4,4,4,0,12,12,12,,,,,,,,,,,,,,,,,,,1706.5243494999886,p,1.2805073330237065,1707.884357707997,,,,,,272500,B,2024-11-18_19h14.38.178,EPIDM,2023.1.2,None,
6244.jpg,9265.jpg,0 Points,0 Points,274 points,PS2_L5.csv,,,,,,,,,,,,,,,,,,,,,,,,,,,,,0,4,4,4,0,13,13,13,,,,,,,,,,,,,,,,,,,1712.123692041001,q,1.2569295830035117,1713.4488657079928,0,1.6402001260139514,,,,272500,B,2024-11-18_19h14.38.178,EPIDM,2023.1.2,None,
5990.jpg,5780.jpg,3 Points,3 Points,277 points,PS2_L5.csv,,,,,,,,,,,,,,,,,,,,,,,,,,,,,0,4,4,4,0,14,14,14,,,,,,,,,,,,,,,,,,,1719.385038458,q,0.7559940420178464,1720.2194999579951,,,,,,272500,B,2024-11-18_19h14.38.178,EPIDM,2023.1.2,None,
9440.jpg,6350.jpg,4 Points,4 Points,281 points,PS2_L5.csv,,,,,,,,,,,,,,,,,,,,,,,,,,,,,0,4,4,4,0,15,15,15,,,,,,,,,,,,,,,,,,,1724.469510875002,q,1.2314759590226458,1725.7556862079946,,,,,,272500,B,2024-11-18_19h14.38.178,EPIDM,2023.1.2,None,
1850.jpg,5623.jpg,5 Points,5 Points,286 points,PS2_L5.csv,,,,,,,,,,,,,,,,,,,,,,,,,,,,,0,4,4,4,0,16,16,16,,,,,,,,,,,,,,,,,,,1729.9992090409942,q,1.1655840830208035,1731.2353653749888,,,,,,272500,B,2024-11-18_19h14.38.178,EPIDM,2023.1.2,None,
5200.jpg,5020.jpg,0 Points,0 Points,286 points,PS2_L5.csv,,,,,,,,,,,,,,,,,,,,,,,,,,,,,0,4,4,4,0,17,17,17,,,,,,,,,,,,,,,,,,,1735.4823800829909,q,0.9854985000129091,1736.5627544159943,,,,,,272500,B,2024-11-18_19h14.38.178,EPIDM,2023.1.2,None,
P211.jpg,9041.jpg,4 Points,4 Points,290 points,PS2_L5.csv,,,,,,,,,,,,,,,,,,,,,,,,,,,,,0,4,4,4,0,18,18,18,,,,,,,,,,,,,,,,,,,1740.793302082995,q,0.844375126005616,1741.7456850409944,,,,,,272500,B,2024-11-18_19h14.38.178,EPIDM,2023.1.2,None,
5600.jpg,9080.jpg,5 Points,5 Points,295 points,PS2_L5.csv,,,,,,,,,,,,,,,,,,,,,,,,,,,,,0,4,4,4,0,19,19,19,,,,,,,,,,,,,,,,,,,1745.9464342909923,p,0.9768513750168495,1747.0419227079983,,,,,,272500,B,2024-11-18_19h14.38.178,EPIDM,2023.1.2,None,
6800.jpg,9190.jpg,0 Points,0 Points,295 points,PS2_L5.csv,,,,,,,,,,,,,,,,,,,,,,,,,,,,,0,4,4,4,0,20,20,20,,,,,,,,,,,,,,,,,,,1751.2363970829902,p,0.8181240000121761,1752.1243555830006,,,,,,272500,B,2024-11-18_19h14.38.178,EPIDM,2023.1.2,None,
3280.jpg,9270.jpg,0 Points,0 Points,295 points,PS2_L5.csv,,,,,,,,,,,,,,,,,,,,,,,,,,,,,0,4,4,4,0,21,21,21,,,,,,,,,,,,,,,,,,,1756.3608552079968,q,1.0982213750103256,1757.5100656249997,,,,,,272500,B,2024-11-18_19h14.38.178,EPIDM,2023.1.2,None,
4613.jpg,2720.jpg,4 Points,4 Points,299 points,PS2_L5.csv,,,,,,,,,,,,,,,,,,,,,,,,,,,,,0,4,4,4,0,22,22,22,,,,,,,,,,,,,,,,,,,1761.7628579159937,p,2.3768967510113725,1764.2133942079963,,,,,,272500,B,2024-11-18_19h14.38.178,EPIDM,2023.1.2,None,
1930.jpg,9008.jpg,1 Point,1 Point,300 points,PS2_L5.csv,,,,,,,,,,,,,,,,,,,,,,,,,,,,,0,4,4,4,0,23,23,23,,,,,,,,,,,,,,,,,,,1768.4599806249898,p,1.7594310420099646,1770.3039064159966,,,1780.7482172500022,space,5.710921208010404,272500,B,2024-11-18_19h14.38.178,EPIDM,2023.1.2,None,
2190.jpg,7503.jpg,2 Points,2 Points,302 points,PS2_L6.csv,,,,,,,,,,,,,,,,,,,,,,,,,,,,,0,5,5,5,0,0,0,0,,,,,,,,,,,,,,,,,,,1789.7623216249922,p,1.8577637080161367,1791.6891673749924,,,,,,272500,B,2024-11-18_19h14.38.178,EPIDM,2023.1.2,None,
2490.jpg,2590.jpg,4 Points,4 Points,306 points,PS2_L6.csv,,,,,,,,,,,,,,,,,,,,,,,,,,,,,0,5,5,5,0,1,1,1,,,,,,,,,,,,,,,,,,,1795.921675790989,p,1.3534908750007162,1797.3563751659967,3,1.5481801670102868,,,,272500,B,2024-11-18_19h14.38.178,EPIDM,2023.1.2,None,
9592.jpg,1300.jpg,2 Points,2 Points,308 points,PS2_L6.csv,,,,,,,,,,,,,,,,,,,,,,,,,,,,,0,5,5,5,0,2,2,2,,,,,,,,,,,,,,,,,,,1803.2144582499895,q,0.8129819580062758,1804.1030786659976,,,,,,272500,B,2024-11-18_19h14.38.178,EPIDM,2023.1.2,None,
8230.jpg,2682.jpg,5 Points,5 Points,313 points,PS2_L6.csv,,,,,,,,,,,,,,,,,,,,,,,,,,,,,0,5,5,5,0,3,3,3,,,,,,,,,,,,,,,,,,,1808.3528126250021,q,0.6019284170179162,1809.016351415994,,,,,,272500,B,2024-11-18_19h14.38.178,EPIDM,2023.1.2,None,
9090.jpg,7580.jpg,3 Points,3 Points,316 points,PS2_L6.csv,,,,,,,,,,,,,,,,,,,,,,,,,,,,,0,5,5,5,0,4,4,4,,,,,,,,,,,,,,,,,,,1813.2676619999984,q,1.334505334016285,1814.6810244160006,,,,,,272500,B,2024-11-18_19h14.38.178,EPIDM,2023.1.2,None,
3530.jpg,6213.jpg,1 Point,1 Point,317 points,PS2_L6.csv,,,,,,,,,,,,,,,,,,,,,,,,,,,,,0,5,5,5,0,5,5,5,,,,,,,,,,,,,,,,,,,1818.9112490830012,q,2.3789554590184707,1821.3579310409987,,,,,,272500,B,2024-11-18_19h14.38.178,EPIDM,2023.1.2,None,
1640.jpg,5531.jpg,3 Points,3 Points,320 points,PS2_L6.csv,,,,,,,,,,,,,,,,,,,,,,,,,,,,,0,5,5,5,0,6,6,6,,,,,,,,,,,,,,,,,,,1825.588498750003,p,0.6775866670068353,1826.335256833001,,,,,,272500,B,2024-11-18_19h14.38.178,EPIDM,2023.1.2,None,
3064.jpg,3168.jpg,4 Points,4 Points,324 points,PS2_L6.csv,,,,,,,,,,,,,,,,,,,,,,,,,,,,,0,5,5,5,0,7,7,7,,,,,,,,,,,,,,,,,,,1830.5746525409922,q,0.460190126002999,1831.1060221249936,,,,,,272500,B,2024-11-18_19h14.38.178,EPIDM,2023.1.2,None,
2710.jpg,9252.jpg,1 Point,1 Point,325 points,PS2_L6.csv,,,,,,,,,,,,,,,,,,,,,,,,,,,,,0,5,5,5,0,8,8,8,,,,,,,,,,,,,,,,,,,1835.3447553329897,p,0.7522431670076912,1836.1674546249997,,,,,,272500,B,2024-11-18_19h14.38.178,EPIDM,2023.1.2,None,
2260.jpg,2830.jpg,5 Points,5 Points,330 points,PS2_L6.csv,,,,,,,,,,,,,,,,,,,,,,,,,,,,,0,5,5,5,0,9,9,9,,,,,,,,,,,,,,,,,,,1840.414858707998,p,0.9627129170112312,1841.4467328749888,,,,,,272500,B,2024-11-18_19h14.38.178,EPIDM,2023.1.2,None,
6510.jpg,A074.jpg,2 Points,2 Points,332 points,PS2_L6.csv,,,,,,,,,,,,,,,,,,,,,,,,,,,,,0,5,5,5,0,10,10,10,,,,,,,,,,,,,,,,,,,1845.6874366659904,p,0.9479442510055378,1846.744711249994,,,,,,272500,B,2024-11-18_19h14.38.178,EPIDM,2023.1.2,None,
5300.jpg,2372.jpg,1 Point,1 Point,333 points,PS2_L6.csv,,,,,,,,,,,,,,,,,,,,,,,,,,,,,0,5,5,5,0,11,11,11,,,,,,,,,,,,,,,,,,,1850.9368630410027,p,1.2986185000190744,1852.303278124993,,,,,,272500,B,2024-11-18_19h14.38.178,EPIDM,2023.1.2,None,
2749.jpg,7282.jpg,3 Points,3 Points,336 points,PS2_L6.csv,,,,,,,,,,,,,,,,,,,,,,,,,,,,,0,5,5,5,0,12,12,12,,,,,,,,,,,,,,,,,,,1856.537632499996,p,0.7201366260123905,1857.326576499996,,,,,,272500,B,2024-11-18_19h14.38.178,EPIDM,2023.1.2,None,
3130.jpg,3500.jpg,4 Points,4 Points,340 points,PS2_L6.csv,,,,,,,,,,,,,,,,,,,,,,,,,,,,,0,5,5,5,0,13,13,13,,,,,,,,,,,,,,,,,,,1861.5628799999977,q,0.47831950000545476,1862.1205032079888,4,2.3027818750124425,,,,272500,B,2024-11-18_19h14.38.178,EPIDM,2023.1.2,None,
6312.jpg,3230.jpg,2 Points,2 Points,342 points,PS2_L6.csv,,,,,,,,,,,,,,,,,,,,,,,,,,,,,0,5,5,5,0,14,14,14,,,,,,,,,,,,,,,,,,,1868.728977665989,p,1.2397147500159917,1870.0379689999972,,,,,,272500,B,2024-11-18_19h14.38.178,EPIDM,2023.1.2,None,
2597.jpg,5870.jpg,5 Points,5 Points,347 points,PS2_L6.csv,,,,,,,,,,,,,,,,,,,,,,,,,,,,,0,5,5,5,0,15,15,15,,,,,,,,,,,,,,,,,,,1874.2769641249906,q,0.5633699590107426,1874.9079585829895,,,,,,272500,B,2024-11-18_19h14.38.178,EPIDM,2023.1.2,None,
8033.jpg,7270.jpg,3 Points,3 Points,350 points,PS2_L6.csv,,,,,,,,,,,,,,,,,,,,,,,,,,,,,0,5,5,5,0,16,16,16,,,,,,,,,,,,,,,,,,,1879.1475509579905,q,0.6868419170059497,1879.902145,,,,,,272500,B,2024-11-18_19h14.38.178,EPIDM,2023.1.2,None,
3170.jpg,6560.jpg,2 Points,2 Points,352 points,PS2_L6.csv,,,,,,,,,,,,,,,,,,,,,,,,,,,,,0,5,5,5,0,17,17,17,,,,,,,,,,,,,,,,,,,1884.136560125,q,0.9601409170136321,1885.1603719580016,,,,,,272500,B,2024-11-18_19h14.38.178,EPIDM,2023.1.2,None,
6242.jpg,F034.jpg,4 Points,4 Points,356 points,PS2_L6.csv,,,,,,,,,,,,,,,,,,,,,,,,,,,,,0,5,5,5,0,18,18,18,,,,,,,,,,,,,,,,,,,1889.419810583,p,1.5721777920116438,1891.1003616249945,,,,,,272500,B,2024-11-18_19h14.38.178,EPIDM,2023.1.2,None,
2485.jpg,7350.jpg,0 Points,0 Points,356 points,PS2_L6.csv,,,,,,,,,,,,,,,,,,,,,,,,,,,,,0,5,5,5,0,19,19,19,,,,,,,,,,,,,,,,,,,1895.2989453749906,q,1.0131393340125214,1896.4200122499897,,,,,,272500,B,2024-11-18_19h14.38.178,EPIDM,2023.1.2,None,
2900.jpg,1101.jpg,3 Points,3 Points,359 points,PS2_L6.csv,,,,,,,,,,,,,,,,,,,,,,,,,,,,,0,5,5,5,0,20,20,20,,,,,,,,,,,,,,,,,,,1900.621918416,q,2.2584592500061262,1902.9556944579963,,,,,,272500,B,2024-11-18_19h14.38.178,EPIDM,2023.1.2,None,
7002.jpg,4660.jpg,4 Points,4 Points,363 points,PS2_L6.csv,,,,,,,,,,,,,,,,,,,,,,,,,,,,,0,5,5,5,0,21,21,21,,,,,,,,,,,,,,,,,,,1907.1861627499893,p,1.142501500013168,1908.403004915992,,,,,,272500,B,2024-11-18_19h14.38.178,EPIDM,2023.1.2,None,
A025.jpg,1051.jpg,0 Points,0 Points,363 points,PS2_L6.csv,,,,,,,,,,,,,,,,,,,,,,,,,,,,,0,5,5,5,0,22,22,22,,,,,,,,,,,,,,,,,,,1912.6282837079925,p,2.060180125015904,1914.805200791001,,,,,,272500,B,2024-11-18_19h14.38.178,EPIDM,2023.1.2,None,
4510.jpg,2230.jpg,5 Points,5 Points,368 points,PS2_L6.csv,,,,,,,,,,,,,,,,,,,,,,,,,,,,,0,5,5,5,0,23,23,23,,,,,,,,,,,,,,,,,,,1918.994055874995,q,0.9101168760098517,1919.9897020829958,,,1930.463746333,space,7.5691351260175,272500,B,2024-11-18_19h14.38.178,EPIDM,2023.1.2,None,
2383.jpg,1616.jpg,2 Points,2 Points,370 points,PS2_L7.csv,,,,,,,,,,,,,,,,,,,,,,,,,,,,,0,6,6,6,0,0,0,0,,,,,,,,,,,,,,,,,,,1941.3485458749929,p,1.3394652500137454,1942.7683578329888,,,,,,272500,B,2024-11-18_19h14.38.178,EPIDM,2023.1.2,None,
1310.jpg,3181.jpg,4 Points,4 Points,374 points,PS2_L7.csv,,,,,,,,,,,,,,,,,,,,,,,,,,,,,0,6,6,6,0,1,1,1,,,,,,,,,,,,,,,,,,,1947.0176757500012,p,1.0364436670206487,1948.1193513749895,4,1.1609856249997392,,,,272500,B,2024-11-18_19h14.38.178,EPIDM,2023.1.2,None,
7289.jpg,4534.jpg,0 Points,0 Points,374 points,PS2_L7.csv,,,,,,,,,,,,,,,,,,,,,,,,,,,,,0,6,6,6,0,2,2,2,,,,,,,,,,,,,,,,,,,1953.6005362909927,q,0.8147821669990662,1954.4954311659967,,,,,,272500,B,2024-11-18_19h14.38.178,EPIDM,2023.1.2,None,
6010.jpg,7361.jpg,2 Points,2 Points,376 points,PS2_L7.csv,,,,,,,,,,,,,,,,,,,,,,,,,,,,,0,6,6,6,0,3,3,3,,,,,,,,,,,,,,,,,,,1958.7340776249912,p,0.9841192510066321,1959.7904242499935,,,,,,272500,B,2024-11-18_19h14.38.178,EPIDM,2023.1.2,None,
2661.jpg,2870.jpg,5 Points,5 Points,381 points,PS2_L7.csv,,,,,,,,,,,,,,,,,,,,,,,,,,,,,0,6,6,6,0,4,4,4,,,,,,,,,,,,,,,,,,,1964.0242531659896,q,1.230732625015662,1965.3118308749981,,,,,,272500,B,2024-11-18_19h14.38.178,EPIDM,2023.1.2,None,
7220.jpg,8090.jpg,2 Points,2 Points,383 points,PS2_L7.csv,,,,,,,,,,,,,,,,,,,,,,,,,,,,,0,6,6,6,0,5,5,5,,,,,,,,,,,,,,,,,,,1969.5654054999904,p,1.0410051250073593,1970.674886665991,,,,,,272500,B,2024-11-18_19h14.38.178,EPIDM,2023.1.2,None,
9140.jpg,2810.jpg,3 Points,3 Points,386 points,PS2_L7.csv,,,,,,,,,,,,,,,,,,,,,,,,,,,,,0,6,6,6,0,6,6,6,,,,,,,,,,,,,,,,,,,1974.9237825829914,q,0.6829098760208581,1975.671683749999,,,,,,272500,B,2024-11-18_19h14.38.178,EPIDM,2023.1.2,None,
2516.jpg,8500.jpg,4 Points,4 Points,390 points,PS2_L7.csv,,,,,,,,,,,,,,,,,,,,,,,,,,,,,0,6,6,6,0,7,7,7,,,,,,,,,,,,,,,,,,,1979.9114755409973,q,0.8621375830116449,1980.8429321659933,,,,,,272500,B,2024-11-18_19h14.38.178,EPIDM,2023.1.2,None,
9070.jpg,9420.jpg,2 Points,2 Points,392 points,PS2_L7.csv,,,,,,,,,,,,,,,,,,,,,,,,,,,,,0,6,6,6,0,8,8,8,,,,,,,,,,,,,,,,,,,1985.084559750001,p,0.5471784580004169,1985.6970011660014,,,,,,272500,B,2024-11-18_19h14.38.178,EPIDM,2023.1.2,None,
6561.jpg,1525.jpg,2 Points,2 Points,394 points,PS2_L7.csv,,,,,,,,,,,,,,,,,,,,,,,,,,,,,0,6,6,6,0,9,9,9,,,,,,,,,,,,,,,,,,,1989.937996749999,p,1.8840429580159253,1991.8914925829886,,,,,,272500,B,2024-11-18_19h14.38.178,EPIDM,2023.1.2,None,
7175.jpg,7490.jpg,2 Points,2 Points,396 points,PS2_L7.csv,,,,,,,,,,,,,,,,,,,,,,,,,,,,,0,6,6,6,0,10,10,10,,,,,,,,,,,,,,,,,,,1996.1502558749926,p,0.8714136670023436,1997.093641457992,,,,,,272500,B,2024-11-18_19h14.38.178,EPIDM,2023.1.2,None,
8010.jpg,2630.jpg,0 Points,0 Points,396 points,PS2_L7.csv,,,,,,,,,,,,,,,,,,,,,,,,,,,,,0,6,6,6,0,11,11,11,,,,,,,,,,,,,,,,,,,2001.3255054579931,q,0.47266216701245867,2001.867427707999,,,,,,272500,B,2024-11-18_19h14.38.178,EPIDM,2023.1.2,None,
F174.jpg,9404.jpg,5 Points,5 Points,401 points,PS2_L7.csv,,,,,,,,,,,,,,,,,,,,,,,,,,,,,0,6,6,6,0,12,12,12,,,,,,,,,,,,,,,,,,,2006.0992839160026,q,0.9471019170159707,2007.1545458329929,,,,,,272500,B,2024-11-18_19h14.38.178,EPIDM,2023.1.2,None,
2692.jpg,8231.jpg,4 Points,4 Points,405 points,PS2_L7.csv,,,,,,,,,,,,,,,,,,,,,,,,,,,,,0,6,6,6,0,13,13,13,,,,,,,,,,,,,,,,,,,2011.352486290998,p,1.4369423340103822,2012.8918078330025,4,1.4523342500178842,,,,272500,B,2024-11-18_19h14.38.178,EPIDM,2023.1.2,None,
5994.jpg,5390.jpg,0 Points,0 Points,405 points,PS2_L7.csv,,,,,,,,,,,,,,,,,,,,,,,,,,,,,0,6,6,6,0,14,14,14,,,,,,,,,,,,,,,,,,,2018.607455624995,p,1.2294406250148313,2019.8984505409899,,,,,,272500,B,2024-11-18_19h14.38.178,EPIDM,2023.1.2,None,
9560.jpg,3071.jpg,1 Point,1 Point,406 points,PS2_L7.csv,,,,,,,,,,,,,,,,,,,,,,,,,,,,,0,6,6,6,0,15,15,15,,,,,,,,,,,,,,,,,,,2024.145109666002,p,0.6677020420029294,2024.8811908329953,,,,,,272500,B,2024-11-18_19h14.38.178,EPIDM,2023.1.2,None,
9330.jpg,3015.jpg,5 Points,5 Points,411 points,PS2_L7.csv,,,,,,,,,,,,,,,,,,,,,,,,,,,,,0,6,6,6,0,16,16,16,,,,,,,,,,,,,,,,,,,2029.1237322499946,p,1.0096315010159742,2030.1988679579954,,,,,,272500,B,2024-11-18_19h14.38.178,EPIDM,2023.1.2,None,
2389.jpg,7320.jpg,0 Points,0 Points,411 points,PS2_L7.csv,,,,,,,,,,,,,,,,,,,,,,,,,,,,,0,6,6,6,0,17,17,17,,,,,,,,,,,,,,,,,,,2034.4488768329902,q,1.0590315840236144,2035.5862040409993,,,,,,272500,B,2024-11-18_19h14.38.178,EPIDM,2023.1.2,None,
6570.1.jpg,9432.jpg,5 Points,5 Points,416 points,PS2_L7.csv,,,,,,,,,,,,,,,,,,,,,,,,,,,,,0,6,6,6,0,18,18,18,,,,,,,,,,,,,,,,,,,2039.814985582998,p,1.5418327510124072,2041.4314244580019,,,,,,272500,B,2024-11-18_19h14.38.178,EPIDM,2023.1.2,None,
9452.jpg,7184.jpg,4 Points,4 Points,420 points,PS2_L7.csv,,,,,,,,,,,,,,,,,,,,,,,,,,,,,0,6,6,6,0,19,19,19,,,,,,,,,,,,,,,,,,,2045.6719632909953,q,1.9478125010209624,2047.69054687499,,,,,,272500,B,2024-11-18_19h14.38.178,EPIDM,2023.1.2,None,
5120.jpg,5520.jpg,2 Points,2 Points,422 points,PS2_L7.csv,,,,,,,,,,,,,,,,,,,,,,,,,,,,,0,6,6,6,0,20,20,20,,,,,,,,,,,,,,,,,,,2051.9284364159976,q,1.7883323340211064,2053.800146290989,,,,,,272500,B,2024-11-18_19h14.38.178,EPIDM,2023.1.2,None,
5970.jpg,3300.jpg,0 Points,0 Points,422 points,PS2_L7.csv,,,,,,,,,,,,,,,,,,,,,,,,,,,,,0,6,6,6,0,21,21,21,,,,,,,,,,,,,,,,,,,2058.0291553749994,p,0.9662102090078406,2059.0668236659985,,,,,,272500,B,2024-11-18_19h14.38.178,EPIDM,2023.1.2,None,
7620.jpg,5395.jpg,1 Point,1 Point,423 points,PS2_L7.csv,,,,,,,,,,,,,,,,,,,,,,,,,,,,,0,6,6,6,0,22,22,22,,,,,,,,,,,,,,,,,,,2063.2988320000004,q,1.441421250012354,2064.7987595000013,,,,,,272500,B,2024-11-18_19h14.38.178,EPIDM,2023.1.2,None,
P019.jpg,F158.jpg,3 Points,3 Points,426 points,PS2_L7.csv,,,,,,,,,,,,,,,,,,,,,,,,,,,,,0,6,6,6,0,23,23,23,,,,,,,,,,,,,,,,,,,2069.048136332989,q,0.7319102090114029,2069.9154439999984,,,2080.3363370409934,space,8.467556125018746,272500,B,2024-11-18_19h14.38.178,EPIDM,2023.1.2,None,
2620.jpg,2594.jpg,0 Points,0 Points,426 points,PS2_L8.csv,,,,,,,,,,,,,,,,,,,,,,,,,,,,,0,7,7,7,0,0,0,0,,,,,,,,,,,,,,,,,,,2092.128420915993,q,0.9233446670114063,2093.149543833002,,,,,,272500,B,2024-11-18_19h14.38.178,EPIDM,2023.1.2,None,
F369.jpg,3100.jpg,2 Points,2 Points,428 points,PS2_L8.csv,,,,,,,,,,,,,,,,,,,,,,,,,,,,,0,7,7,7,0,1,1,1,,,,,,,,,,,,,,,,,,,2097.3504572910024,p,0.5888627500098664,2098.0418910409935,2,1.5006810840131948,,,,272500,B,2024-11-18_19h14.38.178,EPIDM,2023.1.2,None,
1052.jpg,1201.jpg,3 Points,3 Points,431 points,PS2_L8.csv,,,,,,,,,,,,,,,,,,,,,,,,,,,,,0,7,7,7,0,2,2,2,,,,,,,,,,,,,,,,,,,2103.846540707993,p,1.2362650420109276,2105.182520999995,,,,,,272500,B,2024-11-18_19h14.38.178,EPIDM,2023.1.2,None,
2606.jpg,2480.jpg,1 Point,1 Point,432 points,PS2_L8.csv,,,,,,,,,,,,,,,,,,,,,,,,,,,,,0,7,7,7,0,3,3,3,,,,,,,,,,,,,,,,,,,2109.392393624992,q,1.7620500000193715,2111.2255674999906,,,,,,272500,B,2024-11-18_19h14.38.178,EPIDM,2023.1.2,None,
9594.jpg,1080.jpg,4 Points,4 Points,436 points,PS2_L8.csv,,,,,,,,,,,,,,,,,,,,,,,,,,,,,0,7,7,7,0,4,4,4,,,,,,,,,,,,,,,,,,,2115.469843874991,q,1.1080655000114348,2116.654921832989,,,,,,272500,B,2024-11-18_19h14.38.178,EPIDM,2023.1.2,None,
4770.jpg,4275.jpg,3 Points,3 Points,439 points,PS2_L8.csv,,,,,,,,,,,,,,,,,,,,,,,,,,,,,0,7,7,7,0,5,5,5,,,,,,,,,,,,,,,,,,,2120.8869246659888,q,1.2435171250108397,2122.210650041001,,,,,,272500,B,2024-11-18_19h14.38.178,EPIDM,2023.1.2,None,
P077.jpg,A041.jpg,1 Point,1 Point,440 points,PS2_L8.csv,,,,,,,,,,,,,,,,,,,,,,,,,,,,,0,7,7,7,0,6,6,6,,,,,,,,,,,,,,,,,,,2126.446953665989,q,0.7079225840134313,2127.302197750003,,,,,,272500,B,2024-11-18_19h14.38.178,EPIDM,2023.1.2,None,
6550.jpg,9582.jpg,5 Points,5 Points,445 points,PS2_L8.csv,,,,,,,,,,,,,,,,,,,,,,,,,,,,,0,7,7,7,0,7,7,7,,,,,,,,,,,,,,,,,,,2131.479705291,q,1.6430733750166837,2133.2246156249894,,,,,,272500,B,2024-11-18_19h14.38.178,EPIDM,2023.1.2,None,
8040.jpg,7185.jpg,1 Point,1 Point,446 points,PS2_L8.csv,,,,,,,,,,,,,,,,,,,,,,,,,,,,,0,7,7,7,0,8,8,8,,,,,,,,,,,,,,,,,,,2137.428697999989,q,1.9986964580020867,2139.4966244160023,,,,,,272500,B,2024-11-18_19h14.38.178,EPIDM,2023.1.2,None,
P233.jpg,3060.jpg,1 Point,1 Point,447 points,PS2_L8.csv,,,,,,,,,,,,,,,,,,,,,,,,,,,,,0,7,7,7,0,9,9,9,,,,,,,,,,,,,,,,,,,2143.725310374997,p,1.2522722920111846,2145.088515582989,,,,,,272500,B,2024-11-18_19h14.38.178,EPIDM,2023.1.2,None,
1090.jpg,P217.jpg,5 Points,5 Points,452 points,PS2_L8.csv,,,,,,,,,,,,,,,,,,,,,,,,,,,,,0,7,7,7,0,10,10,10,,,,,,,,,,,,,,,,,,,2149.28843916599,p,1.7930697500123642,2151.2256735830015,,,,,,272500,B,2024-11-18_19h14.38.178,EPIDM,2023.1.2,None,
9405.jpg,6250.2.jpg,3 Points,3 Points,455 points,PS2_L8.csv,,,,,,,,,,,,,,,,,,,,,,,,,,,,,0,7,7,7,0,11,11,11,,,,,,,,,,,,,,,,,,,2155.3954060409887,q,0.9420754590100842,2156.4401997910027,,,,,,272500,B,2024-11-18_19h14.38.178,EPIDM,2023.1.2,None,
1610.jpg,F203.jpg,0 Points,0 Points,455 points,PS2_L8.csv,,,,,,,,,,,,,,,,,,,,,,,,,,,,,0,7,7,7,0,12,12,12,,,,,,,,,,,,,,,,,,,2160.662680082998,q,1.955243917007465,2162.727041207996,,,,,,272500,B,2024-11-18_19h14.38.178,EPIDM,2023.1.2,None,
P222.jpg,9401.jpg,2 Points,2 Points,457 points,PS2_L8.csv,,,,,,,,,,,,,,,,,,,,,,,,,,,,,0,7,7,7,0,13,13,13,,,,,,,,,,,,,,,,,,,2166.9183159999957,q,0.9471925830148393,2168.0047335830022,2,1.6486940420145402,,,,272500,B,2024-11-18_19h14.38.178,EPIDM,2023.1.2,None,
5471.jpg,7352.jpg,2 Points,2 Points,459 points,PS2_L8.csv,,,,,,,,,,,,,,,,,,,,,,,,,,,,,0,7,7,7,0,14,14,14,,,,,,,,,,,,,,,,,,,2173.9243106659997,p,1.5724709590140264,2175.594316415998,,,,,,272500,B,2024-11-18_19h14.38.178,EPIDM,2023.1.2,None,
9042.jpg,2753.jpg,0 Points,0 Points,459 points,PS2_L8.csv,,,,,,,,,,,,,,,,,,,,,,,,,,,,,0,7,7,7,0,15,15,15,,,,,,,,,,,,,,,,,,,2179.798632708,q,2.362659792008344,2182.223622999998,,,,,,272500,B,2024-11-18_19h14.38.178,EPIDM,2023.1.2,None,
8311.jpg,4609.jpg,2 Points,2 Points,461 points,PS2_L8.csv,,,,,,,,,,,,,,,,,,,,,,,,,,,,,0,7,7,7,0,16,16,16,,,,,,,,,,,,,,,,,,,2186.476347207994,p,1.1325807090179296,2187.681451832992,,,,,,272500,B,2024-11-18_19h14.38.178,EPIDM,2023.1.2,None,
2320.jpg,2791.jpg,4 Points,4 Points,465 points,PS2_L8.csv,,,,,,,,,,,,,,,,,,,,,,,,,,,,,0,7,7,7,0,17,17,17,,,,,,,,,,,,,,,,,,,2191.932579207991,q,1.219551042013336,2193.221978457994,,,,,,272500,B,2024-11-18_19h14.38.178,EPIDM,2023.1.2,None,
F365.jpg,3180.jpg,5 Points,5 Points,470 points,PS2_L8.csv,,,,,,,,,,,,,,,,,,,,,,,,,,,,,0,7,7,7,0,18,18,18,,,,,,,,,,,,,,,,,,,2197.4746097909956,q,1.237714376009535,2198.811550582992,,,,,,272500,B,2024-11-18_19h14.38.178,EPIDM,2023.1.2,None,
9300.jpg,1050.jpg,4 Points,4 Points,474 points,PS2_L8.csv,,,,,,,,,,,,,,,,,,,,,,,,,,,,,0,7,7,7,0,19,19,19,,,,,,,,,,,,,,,,,,,2203.027266124991,q,0.789443209010642,2203.8910616249923,,,,,,272500,B,2024-11-18_19h14.38.178,EPIDM,2023.1.2,None,
6150.jpg,2206.jpg,0 Points,0 Points,474 points,PS2_L8.csv,,,,,,,,,,,,,,,,,,,,,,,,,,,,,0,7,7,7,0,20,20,20,,,,,,,,,,,,,,,,,,,2208.130739290995,p,0.9497673340083566,2209.161466790989,,,,,,272500,B,2024-11-18_19h14.38.178,EPIDM,2023.1.2,None,
6260.jpg,3062.jpg,3 Points,3 Points,477 points,PS2_L8.csv,,,,,,,,,,,,,,,,,,,,,,,,,,,,,0,7,7,7,0,21,21,21,,,,,,,,,,,,,,,,,,,2213.4089909579925,p,0.8158225000079256,2214.2969644159894,,,,,,272500,B,2024-11-18_19h14.38.178,EPIDM,2023.1.2,None,
6571.jpg,P237.jpg,2 Points,2 Points,479 points,PS2_L8.csv,,,,,,,,,,,,,,,,,,,,,,,,,,,,,0,7,7,7,0,22,22,22,,,,,,,,,,,,,,,,,,,2218.5395124999923,p,1.0191888760018628,2219.6788604159956,,,,,,272500,B,2024-11-18_19h14.38.178,EPIDM,2023.1.2,None,
7283.jpg,1720.jpg,4 Points,4 Points,483 points,PS2_L8.csv,,,,,,,,,,,,,,,,,,,,,,,,,,,,,0,7,7,7,0,23,23,23,,,,,,,,,,,,,,,,,,,2223.8703434999916,q,1.0804150000039954,2225.0729054580006,,,2235.474039790992,space,4.9826493760047015,272500,B,2024-11-18_19h14.38.178,EPIDM,2023.1.2,None,
3160.jpg,6210.jpg,1 Point,1 Point,484 points,PS2_L9.csv,,,,,,,,,,,,,,,,,,,,,,,,,,,,,0,8,8,8,0,0,0,0,,,,,,,,,,,,,,,,,,,2243.776510625001,q,0.7259019590128446,2244.580961790998,,,,,,272500,B,2024-11-18_19h14.38.178,EPIDM,2023.1.2,None,
2100.jpg,7205.jpg,5 Points,5 Points,489 points,PS2_L9.csv,,,,,,,,,,,,,,,,,,,,,,,,,,,,,0,8,8,8,0,1,1,1,,,,,,,,,,,,,,,,,,,2248.826086250003,p,1.4375912500108825,2250.338527,5,1.5334031260135816,,,,272500,B,2024-11-18_19h14.38.178,EPIDM,2023.1.2,None,
9110.jpg,3051.jpg,1 Point,1 Point,490 points,PS2_L9.csv,,,,,,,,,,,,,,,,,,,,,,,,,,,,,0,8,8,8,0,2,2,2,,,,,,,,,,,,,,,,,,,2256.1857272909983,p,0.5727712510124547,2256.82992199999,,,,,,272500,B,2024-11-18_19h14.38.178,EPIDM,2023.1.2,None,
9101.jpg,9571.jpg,2 Points,2 Points,492 points,PS2_L9.csv,,,,,,,,,,,,,,,,,,,,,,,,,,,,,0,8,8,8,0,3,3,3,,,,,,,,,,,,,,,,,,,2261.0712675409886,p,1.375429042003816,2262.5192620000016,,,,,,272500,B,2024-11-18_19h14.38.178,EPIDM,2023.1.2,None,
5410.jpg,1450.jpg,5 Points,5 Points,497 points,PS2_L9.csv,,,,,,,,,,,,,,,,,,,,,,,,,,,,,0,8,8,8,0,4,4,4,,,,,,,,,,,,,,,,,,,2266.756768958003,q,1.4101466670108493,2268.2329252499912,,,,,,272500,B,2024-11-18_19h14.38.178,EPIDM,2023.1.2,None,
F149.jpg,3030.jpg,0 Points,0 Points,497 points,PS2_L9.csv,,,,,,,,,,,,,,,,,,,,,,,,,,,,,0,8,8,8,0,5,5,5,,,,,,,,,,,,,,,,,,,2272.4840630830004,q,1.0746048340079142,2273.6762726250017,,,,,,272500,B,2024-11-18_19h14.38.178,EPIDM,2023.1.2,None,
3266.jpg,7360.jpg,1 Point,1 Point,498 points,PS2_L9.csv,,,,,,,,,,,,,,,,,,,,,,,,,,,,,0,8,8,8,0,6,6,6,,,,,,,,,,,,,,,,,,,2277.88263537499,q,1.4913047090085456,2279.4426866659924,,,,,,272500,B,2024-11-18_19h14.38.178,EPIDM,2023.1.2,None,
5660.jpg,5201.jpg,0 Points,0 Points,498 points,PS2_L9.csv,,,,,,,,,,,,,,,,,,,,,,,,,,,,,0,8,8,8,0,7,7,7,,,,,,,,,,,,,,,,,,,2283.679155790989,p,2.287384125011158,2286.045799540996,,,,,,272500,B,2024-11-18_19h14.38.178,EPIDM,2023.1.2,None,
1945.jpg,2800.jpg,4 Points,4 Points,502 points,PS2_L9.csv,,,,,,,,,,,,,,,,,,,,,,,,,,,,,0,8,8,8,0,8,8,8,,,,,,,,,,,,,,,,,,,2290.282409833002,q,1.0994357080053305,2291.4451691249997,,,,,,272500,B,2024-11-18_19h14.38.178,EPIDM,2023.1.2,None,
3000.jpg,6200.jpg,5 Points,5 Points,507 points,PS2_L9.csv,,,,,,,,,,,,,,,,,,,,,,,,,,,,,0,8,8,8,0,9,9,9,,,,,,,,,,,,,,,,,,,2295.708841749991,q,0.6732733329990879,2296.4506075410027,,,,,,272500,B,2024-11-18_19h14.38.178,EPIDM,2023.1.2,None,
2215.jpg,2512.jpg,1 Point,1 Point,508 points,PS2_L9.csv,,,,,,,,,,,,,,,,,,,,,,,,,,,,,0,8,8,8,0,10,10,10,,,,,,,,,,,,,,,,,,,2300.6985607499955,q,0.8191408760176273,2301.5987781250005,,,,,,272500,B,2024-11-18_19h14.38.178,EPIDM,2023.1.2,None,
5460.jpg,5800.jpg,0 Points,0 Points,508 points,PS2_L9.csv,,,,,,,,,,,,,,,,,,,,,,,,,,,,,0,8,8,8,0,11,11,11,,,,,,,,,,,,,,,,,,,2305.8413996659947,q,1.3401030840177555,2307.2531389159994,,,,,,272500,B,2024-11-18_19h14.38.178,EPIDM,2023.1.2,None,
3061.jpg,2717.jpg,4 Points,4 Points,512 points,PS2_L9.csv,,,,,,,,,,,,,,,,,,,,,,,,,,,,,0,8,8,8,0,12,12,12,,,,,,,,,,,,,,,,,,,2311.484318207993,q,1.0565061250090366,2312.6170287909918,,,,,,272500,B,2024-11-18_19h14.38.178,EPIDM,2023.1.2,None,
7380.jpg,1220.jpg,1 Point,1 Point,513 points,PS2_L9.csv,,,,,,,,,,,,,,,,,,,,,,,,,,,,,0,8,8,8,0,13,13,13,,,,,,,,,,,,,,,,,,,2316.855051749997,p,1.7102084170182934,2318.6224349159893,1,1.3874198750127107,,,,272500,B,2024-11-18_19h14.38.178,EPIDM,2023.1.2,None,
1740.jpg,7480.jpg,0 Points,0 Points,513 points,PS2_L9.csv,,,,,,,,,,,,,,,,,,,,,,,,,,,,,0,8,8,8,0,14,14,14,,,,,,,,,,,,,,,,,,,2324.314491290992,p,0.6504945839988068,2325.0272485000023,,,,,,272500,B,2024-11-18_19h14.38.178,EPIDM,2023.1.2,None,
7285.jpg,4233.jpg,5 Points,5 Points,518 points,PS2_L9.csv,,,,,,,,,,,,,,,,,,,,,,,,,,,,,0,8,8,8,0,15,15,15,,,,,,,,,,,,,,,,,,,2329.2672343329905,q,1.2732267510145903,2330.621131291002,,,,,,272500,B,2024-11-18_19h14.38.178,EPIDM,2023.1.2,None,
6830.jpg,6212.jpg,4 Points,4 Points,522 points,PS2_L9.csv,,,,,,,,,,,,,,,,,,,,,,,,,,,,,0,8,8,8,0,16,16,16,,,,,,,,,,,,,,,,,,,2334.850405124991,p,2.122234626003774,2337.0365157909982,,,,,,272500,B,2024-11-18_19h14.38.178,EPIDM,2023.1.2,None,
7830.jpg,2499.jpg,3 Points,3 Points,525 points,PS2_L9.csv,,,,,,,,,,,,,,,,,,,,,,,,,,,,,0,8,8,8,0,17,17,17,,,,,,,,,,,,,,,,,,,2341.2735969579953,q,0.8033852500084322,2342.150796457994,,,,,,272500,B,2024-11-18_19h14.38.178,EPIDM,2023.1.2,None,
9520.jpg,1931.jpg,3 Points,3 Points,528 points,PS2_L9.csv,,,,,,,,,,,,,,,,,,,,,,,,,,,,,0,8,8,8,0,18,18,18,,,,,,,,,,,,,,,,,,,2346.3979350409936,q,0.6621870420058258,2347.1111491659976,,,,,,272500,B,2024-11-18_19h14.38.178,EPIDM,2023.1.2,None,
9160.jpg,1200.jpg,4 Points,4 Points,532 points,PS2_L9.csv,,,,,,,,,,,,,,,,,,,,,,,,,,,,,0,8,8,8,0,19,19,19,,,,,,,,,,,,,,,,,,,2351.3733672499948,p,0.8473800840147305,2352.312825000001,,,,,,272500,B,2024-11-18_19h14.38.178,EPIDM,2023.1.2,None,
2020.jpg,1947.jpg,5 Points,5 Points,537 points,PS2_L9.csv,,,,,,,,,,,,,,,,,,,,,,,,,,,,,0,8,8,8,0,20,20,20,,,,,,,,,,,,,,,,,,,2356.539146415991,p,0.641421292006271,2357.2463125829963,,,,,,272500,B,2024-11-18_19h14.38.178,EPIDM,2023.1.2,None,
4535.jpg,1811.jpg,1 Point,1 Point,538 points,PS2_L9.csv,,,,,,,,,,,,,,,,,,,,,,,,,,,,,0,8,8,8,0,21,21,21,,,,,,,,,,,,,,,,,,,2361.480247540996,p,0.7307941250182921,2362.289656041001,,,,,,272500,B,2024-11-18_19h14.38.178,EPIDM,2023.1.2,None,
9910.jpg,6940.jpg,2 Points,2 Points,540 points,PS2_L9.csv,,,,,,,,,,,,,,,,,,,,,,,,,,,,,0,8,8,8,0,22,22,22,,,,,,,,,,,,,,,,,,,2366.527394165998,q,0.9169942500157049,2367.5084209579945,,,,,,272500,B,2024-11-18_19h14.38.178,EPIDM,2023.1.2,None,
9480.jpg,9250.jpg,0 Points,0 Points,540 points,PS2_L9.csv,,,,,,,,,,,,,,,,,,,,,,,,,,,,,0,8,8,8,0,23,23,23,,,,,,,,,,,,,,,,,,,2371.7437360829936,p,0.8995657510095043,2372.707011874998,,,2383.1847566249926,space,13.652594875005889,272500,B,2024-11-18_19h14.38.178,EPIDM,2023.1.2,None,
1660.jpg,2840.jpg,2 Points,2 Points,542 points,PS2_L10.csv,,,,,,,,,,,,,,,,,,,,,,,,,,,,,0,9,9,9,0,0,0,0,,,,,,,,,,,,,,,,,,,2400.149608915992,q,1.5961566250189207,2401.8188252909895,,,,,,272500,B,2024-11-18_19h14.38.178,EPIDM,2023.1.2,None,
2691.jpg,7640.jpg,0 Points,0 Points,542 points,PS2_L10.csv,,,,,,,,,,,,,,,,,,,,,,,,,,,,,0,9,9,9,0,1,1,1,,,,,,,,,,,,,,,,,,,2406.066324582993,q,0.7285970829980215,2406.8545616659976,0,1.6056776670156978,,,,272500,B,2024-11-18_19h14.38.178,EPIDM,2023.1.2,None,
9180.jpg,9046.jpg,3 Points,3 Points,545 points,PS2_L10.csv,,,,,,,,,,,,,,,,,,,,,,,,,,,,,0,9,9,9,0,2,2,2,,,,,,,,,,,,,,,,,,,2412.7616197909956,q,1.2654085000103805,2414.092181125001,,,,,,272500,B,2024-11-18_19h14.38.178,EPIDM,2023.1.2,None,
8041.jpg,2271.jpg,2 Points,2 Points,547 points,PS2_L10.csv,,,,,,,,,,,,,,,,,,,,,,,,,,,,,0,9,9,9,0,3,3,3,,,,,,,,,,,,,,,,,,,2418.3349226249993,p,0.684230667015072,2419.0866527909966,,,,,,272500,B,2024-11-18_19h14.38.178,EPIDM,2023.1.2,None,
1661.jpg,1321.jpg,3 Points,3 Points,550 points,PS2_L10.csv,,,,,,,,,,,,,,,,,,,,,,,,,,,,,0,9,9,9,0,4,4,4,,,,,,,,,,,,,,,,,,,2423.333675332993,q,1.1076278330001514,2424.5039432499907,,,,,,272500,B,2024-11-18_19h14.38.178,EPIDM,2023.1.2,None,
9430.jpg,3010.jpg,5 Points,5 Points,555 points,PS2_L10.csv,,,,,,,,,,,,,,,,,,,,,,,,,,,,,0,9,9,9,0,5,5,5,,,,,,,,,,,,,,,,,,,2428.746868000002,p,0.6061189169995487,2429.4100592909963,,,,,,272500,B,2024-11-18_19h14.38.178,EPIDM,2023.1.2,None,
2616.jpg,7238.jpg,4 Points,4 Points,559 points,PS2_L10.csv,,,,,,,,,,,,,,,,,,,,,,,,,,,,,0,9,9,9,0,6,6,6,,,,,,,,,,,,,,,,,,,2433.6717170409975,q,0.7469730010197964,2434.487202874996,,,,,,272500,B,2024-11-18_19h14.38.178,EPIDM,2023.1.2,None,
9470.jpg,9400.jpg,3 Points,3 Points,562 points,PS2_L10.csv,,,,,,,,,,,,,,,,,,,,,,,,,,,,,0,9,9,9,0,7,7,7,,,,,,,,,,,,,,,,,,,2438.7341930830007,p,0.4845452920126263,2439.274060208001,,,,,,272500,B,2024-11-18_19h14.38.178,EPIDM,2023.1.2,None,
8260.jpg,8280.jpg,3 Points,3 Points,565 points,PS2_L10.csv,,,,,,,,,,,,,,,,,,,,,,,,,,,,,0,9,9,9,0,8,8,8,,,,,,,,,,,,,,,,,,,2443.5192662909976,q,0.9467855420080014,2444.525827790989,,,,,,272500,B,2024-11-18_19h14.38.178,EPIDM,2023.1.2,None,
9230.jpg,9181.jpg,0 Points,0 Points,565 points,PS2_L10.csv,,,,,,,,,,,,,,,,,,,,,,,,,,,,,0,9,9,9,0,9,9,9,,,,,,,,,,,,,,,,,,,2448.7752455829905,p,0.7462821260123746,2449.598149332989,,,,,,272500,B,2024-11-18_19h14.38.178,EPIDM,2023.1.2,None,
6834.jpg,9120.jpg,5 Points,5 Points,570 points,PS2_L10.csv,,,,,,,,,,,,,,,,,,,,,,,,,,,,,0,9,9,9,0,10,10,10,,,,,,,,,,,,,,,,,,,2453.848175416002,q,1.2404676670121262,2455.1488767909905,,,,,,272500,B,2024-11-18_19h14.38.178,EPIDM,2023.1.2,None,
2440.jpg,7351.jpg,4 Points,4 Points,574 points,PS2_L10.csv,,,,,,,,,,,,,,,,,,,,,,,,,,,,,0,9,9,9,0,11,11,11,,,,,,,,,,,,,,,,,,,2459.407154415996,p,1.8745515840128064,2461.3727121659904,,,,,,272500,B,2024-11-18_19h14.38.178,EPIDM,2023.1.2,None,
9280.jpg,9390.jpg,1 Point,1 Point,575 points,PS2_L10.csv,,,,,,,,,,,,,,,,,,,,,,,,,,,,,0,9,9,9,0,12,12,12,,,,,,,,,,,,,,,,,,,2465.6101309160003,p,1.4555028750037309,2467.1389281250013,,,,,,272500,B,2024-11-18_19h14.38.178,EPIDM,2023.1.2,None,
7186.jpg,9182.jpg,2 Points,2 Points,577 points,PS2_L10.csv,,,,,,,,,,,,,,,,,,,,,,,,,,,,,0,9,9,9,0,13,13,13,,,,,,,,,,,,,,,,,,,2471.379174665999,p,0.7021892090124311,2472.1533127500006,2,1.4701312920224154,,,,272500,B,2024-11-18_19h14.38.178,EPIDM,2023.1.2,None,
7820.jpg,1121.jpg,0 Points,0 Points,577 points,PS2_L10.csv,,,,,,,,,,,,,,,,,,,,,,,,,,,,,0,9,9,9,0,14,14,14,,,,,,,,,,,,,,,,,,,2477.929834583003,q,0.6470016260136617,2478.6511904579966,,,,,,272500,B,2024-11-18_19h14.38.178,EPIDM,2023.1.2,None,
1110.jpg,9331.jpg,2 Points,2 Points,579 points,PS2_L10.csv,,,,,,,,,,,,,,,,,,,,,,,,,,,,,0,9,9,9,0,15,15,15,,,,,,,,,,,,,,,,,,,2482.887854540997,p,1.1439272510033334,2484.1048997909966,,,,,,272500,B,2024-11-18_19h14.38.178,EPIDM,2023.1.2,None,
9001.jpg,9620.jpg,1 Point,1 Point,580 points,PS2_L10.csv,,,,,,,,,,,,,,,,,,,,,,,,,,,,,0,9,9,9,0,16,16,16,,,,,,,,,,,,,,,,,,,2488.3465368329926,p,0.6711981250118697,2489.101233583002,,,,,,272500,B,2024-11-18_19h14.38.178,EPIDM,2023.1.2,None,
5535.jpg,8210.jpg,3 Points,3 Points,583 points,PS2_L10.csv,,,,,,,,,,,,,,,,,,,,,,,,,,,,,0,9,9,9,0,17,17,17,,,,,,,,,,,,,,,,,,,2493.333724790995,q,1.0100752080034,2494.420534332996,,,,,,272500,B,2024-11-18_19h14.38.178,EPIDM,2023.1.2,None,
7950.jpg,7187.jpg,1 Point,1 Point,584 points,PS2_L10.csv,,,,,,,,,,,,,,,,,,,,,,,,,,,,,0,9,9,9,0,18,18,18,,,,,,,,,,,,,,,,,,,2498.669811957996,p,0.9299309170164634,2499.667501374992,,,,,,272500,B,2024-11-18_19h14.38.178,EPIDM,2023.1.2,None,
3250.jpg,A053.jpg,3 Points,3 Points,587 points,PS2_L10.csv,,,,,,,,,,,,,,,,,,,,,,,,,,,,,0,9,9,9,0,19,19,19,,,,,,,,,,,,,,,,,,,2503.911401582998,q,0.9127635420154547,2504.9341782909905,,,,,,272500,B,2024-11-18_19h14.38.178,EPIDM,2023.1.2,None,
2205.jpg,3053.jpg,4 Points,4 Points,591 points,PS2_L10.csv,,,,,,,,,,,,,,,,,,,,,,,,,,,,,0,9,9,9,0,20,20,20,,,,,,,,,,,,,,,,,,,2509.139528790998,p,1.1409943750186358,2510.3439279579907,,,,,,272500,B,2024-11-18_19h14.38.178,EPIDM,2023.1.2,None,
5594.jpg,5750.jpg,5 Points,5 Points,596 points,PS2_L10.csv,,,,,,,,,,,,,,,,,,,,,,,,,,,,,0,9,9,9,0,21,21,21,,,,,,,,,,,,,,,,,,,2514.5845438329998,q,0.8628612920147134,2515.51691895799,,,,,,272500,B,2024-11-18_19h14.38.178,EPIDM,2023.1.2,None,
6900.jpg,8531.jpg,4 Points,4 Points,600 points,PS2_L10.csv,,,,,,,,,,,,,,,,,,,,,,,,,,,,,0,9,9,9,0,22,22,22,,,,,,,,,,,,,,,,,,,2519.759169750003,p,1.10421404200315,2520.9358337909944,,,,,,272500,B,2024-11-18_19h14.38.178,EPIDM,2023.1.2,None,
1019.jpg,2120.jpg,0 Points,0 Points,600 points,PS2_L10.csv,,,,,,,,,,,,,,,,,,,,,,,,,,,,,0,9,9,9,0,23,23,23,,,,,,,,,,,,,,,,,,,2525.17568008299,q,0.6410481670172885,2525.890004457993,,,2536.3873685829894,space,5.819962126013706,272500,B,2024-11-18_19h14.38.178,EPIDM,2023.1.2,None,
