L_Scene,R_Scene,Points_L,Points_R,PtTotal,blockFile,Instructions_Loop.thisRepN,Instructions_Loop.thisTrialN,Instructions_Loop.thisN,Instructions_Loop.thisIndex,Redo_Instructions_Loop.thisRepN,Redo_Instructions_Loop.thisTrialN,Redo_Instructions_Loop.thisN,Redo_Instructions_Loop.thisIndex,Practice_Encoding_Loop.thisRepN,Practice_Encoding_Loop.thisTrialN,Practice_Encoding_Loop.thisN,Practice_Encoding_Loop.thisIndex,Practice_Response_Fail_Loop.thisRepN,Practice_Response_Fail_Loop.thisTrialN,Practice_Response_Fail_Loop.thisN,Practice_Response_Fail_Loop.thisIndex,Practice_FB_Loop.thisRepN,Practice_FB_Loop.thisTrialN,Practice_FB_Loop.thisN,Practice_FB_Loop.thisIndex,Practice_Attention_Loop.thisRepN,Practice_Attention_Loop.thisTrialN,Practice_Attention_Loop.thisN,Practice_Attention_Loop.thisIndex,Practice_EncBrk_Loop.thisRepN,Practice_EncBrk_Loop.thisTrialN,Practice_EncBrk_Loop.thisN,Practice_EncBrk_Loop.thisIndex,Encoding_Loop.thisRepN,Encoding_Loop.thisTrialN,Encoding_Loop.thisN,Encoding_Loop.thisIndex,EncStim_Loop.thisRepN,EncStim_Loop.thisTrialN,EncStim_Loop.thisN,EncStim_Loop.thisIndex,Response_Fail_Loop.thisRepN,Response_Fail_Loop.thisTrialN,Response_Fail_Loop.thisN,Response_Fail_Loop.thisIndex,FB_Loop.thisRepN,FB_Loop.thisTrialN,FB_Loop.thisN,FB_Loop.thisIndex,Attention_Loop.thisRepN,Attention_Loop.thisTrialN,Attention_Loop.thisN,Attention_Loop.thisIndex,EncBrk_Loop.thisRepN,EncBrk_Loop.thisTrialN,EncBrk_Loop.thisN,EncBrk_Loop.thisIndex,Transition_Enc.keys,Transition_Enc.rt,Encoding_Resp.started,Encoding_Resp.keys,Encoding_Resp.rt,R_Point_FB_Stim.started,Attn_resp.keys,Attn_resp.rt,Progress_Tracker.started,EncBrk_Resp.keys,EncBrk_Resp.rt,participant,Group,date,expName,psychopyVersion,frameRate,
,,,,,,,,,,,,,,,,,,,,,,,,,,,,,,,,,,,,,,,,,,,,,,,,,,,,,,,,,,space,12.674044082988985,,,,,,,,,,250006,B,2024-12-05_12h10.00.448,EPIDM,2023.1.2,60.04087258480085,
A060.jpg,F041.jpg,5 Points,5 Points,5 Points,,,,,,,,,,0,0,0,0,,,,,,,,,,,,,,,,,,,,,,,,,,,,,,,,,,,,,,,,,,,869.114044957998,p,3.529964832996484,872.7936596669897,,,,,,250006,B,2024-12-05_12h10.00.448,EPIDM,2023.1.2,60.04087258480085,
O161.jpg,1812.jpg,2 Points,2 Points,7 Points,,,,,,,,,,0,1,1,1,,,,,,,,,,,,,,,,,,,,,,,,,,,,,,,,,,,,,,,,,,,876.9765485829994,q,3.3234899999952177,880.4412545829982,,,,,,250006,B,2024-12-05_12h10.00.448,EPIDM,2023.1.2,60.04087258480085,
O013.jpg,A001.jpg,3 Points,3 Points,10 Points,,,,,,,,,,0,2,2,2,,,,,,,,,,,,,,,,,,,,,,,,,,,,,,,,,,,,,,,,,,,884.6197825419949,None,,,,,,,,250006,B,2024-12-05_12h10.00.448,EPIDM,2023.1.2,60.04087258480085,
P036.jpg,F273.jpg,5 Points,5 Points,15 Points,,,,,,,,,,0,3,3,3,,,,,,,,,,,,,,,,,,,,,,,,,,,,,,,,,,,,,,,,,,,892.1261649579974,p,1.2142846250062576,893.5134167499928,,,,,,250006,B,2024-12-05_12h10.00.448,EPIDM,2023.1.2,60.04087258480085,
L130.jpg,2393.jpg,0 Points,0 Points,15 Points,,,,,,,,,,0,4,4,4,,,,,,,,,,,,,,,,,,,,,,,,,,,,,,,,,,,,,,,,,,,897.6590106669901,p,1.625344167012372,899.4311602919915,0,4.26932991699141,,,,250006,B,2024-12-05_12h10.00.448,EPIDM,2023.1.2,60.04087258480085,
F279.jpg,P033.jpg,3 Points,3 Points,18 Points,,,,,,,,,,0,5,5,5,,,,,,,,,,,,,,,,,,,,,,,,,,,,,,,,,,,,,,,,,,,908.0068517920008,p,2.3095228339952882,910.4945423749887,,,,,,250006,B,2024-12-05_12h10.00.448,EPIDM,2023.1.2,60.04087258480085,
A104.jpg,2593.jpg,2 Points,2 Points,20 Points,,,,,,,,,,0,6,6,6,,,,,,,,,,,,,,,,,,,,,,,,,,,,,,,,,,,,,,,,,,,914.634871916991,q,1.5762057500105584,916.3504078749975,,,,,,250006,B,2024-12-05_12h10.00.448,EPIDM,2023.1.2,60.04087258480085,
2598.jpg,2605.jpg,0 Points,0 Points,20 Points,,,,,,,,,,0,7,7,7,,,,,,,,,,,,,,,,,,,,,,,,,,,,,,,,,,,,,,,,,,,920.529207582993,q,1.9225997920002555,922.5198081249982,,,,,,250006,B,2024-12-05_12h10.00.448,EPIDM,2023.1.2,60.04087258480085,
L005.jpg,O011.jpg,1 Points,1 Points,21 Points,,,,,,,,,,0,8,8,8,,,,,,,,,,,,,,,,,,,,,,,,,,,,,,,,,,,,,,,,,,,926.7749701669964,p,1.3005280420038616,928.2077075829875,,,,,,250006,B,2024-12-05_12h10.00.448,EPIDM,2023.1.2,60.04087258480085,
8186.jpg,F078.jpg,2 Points,2 Points,23 Points,,,,,,,,,,0,9,9,9,,,,,,,,,,,,,,,,,,,,,,,,,,,,,,,,,,,,,,,,,,,932.3900032499951,q,1.4053312500036554,933.9380236249999,2,2.489750416993047,946.6468279169931,space,22.394831416997476,250006,B,2024-12-05_12h10.00.448,EPIDM,2023.1.2,60.04087258480085,
,,,,,,,,,,,,,,,,,,,,,,,,,,,,,,,,,,,,,,,,,,,,,,,,,,,,,,,,,,space,5.225156667002011,,,,,,,,,,250006,B,2024-12-05_12h10.00.448,EPIDM,2023.1.2,60.04087258480085,
7284.jpg,8021.jpg,4 Points,4 Points,4 Points,PS2_L1.csv,,,,,,,,,,,,,,,,,,,,,,,,,,,,,0,0,0,0,0,0,0,0,,,,,,,,,,,,,,,,,,,995.8775394580007,p,1.533097124993219,997.5020736669976,,,,,,250006,B,2024-12-05_12h10.00.448,EPIDM,2023.1.2,60.04087258480085,
2214.jpg,4500.jpg,3 Points,3 Points,7 points,PS2_L1.csv,,,,,,,,,,,,,,,,,,,,,,,,,,,,,0,0,0,0,0,1,1,1,,,,,,,,,,,,,,,,,,,1001.7379287499934,p,1.8484403339971323,1003.6558721670008,3,2.322831376004615,,,,250006,B,2024-12-05_12h10.00.448,EPIDM,2023.1.2,60.04087258480085,
1280.jpg,9402.jpg,2 Points,2 Points,9 points,PS2_L1.csv,,,,,,,,,,,,,,,,,,,,,,,,,,,,,0,0,0,0,0,2,2,2,,,,,,,,,,,,,,,,,,,1010.2945020420011,q,2.298693832999561,1012.6630064579949,,,,,,250006,B,2024-12-05_12h10.00.448,EPIDM,2023.1.2,60.04087258480085,
1650.jpg,2130.jpg,1 Points,1 Points,10 points,PS2_L1.csv,,,,,,,,,,,,,,,,,,,,,,,,,,,,,0,0,0,0,0,3,3,3,,,,,,,,,,,,,,,,,,,1016.9068773329927,q,1.5272650010010693,1018.4980387499963,,,,,,250006,B,2024-12-05_12h10.00.448,EPIDM,2023.1.2,60.04087258480085,
2221.jpg,2270.jpg,2 Points,2 Points,12 points,PS2_L1.csv,,,,,,,,,,,,,,,,,,,,,,,,,,,,,0,0,0,0,0,4,4,4,,,,,,,,,,,,,,,,,,,1022.7402492919937,q,2.142014333003317,1024.9476690419979,,,,,,250006,B,2024-12-05_12h10.00.448,EPIDM,2023.1.2,60.04087258480085,
9373.jpg,9410.jpg,0 Points,0 Points,12 points,PS2_L1.csv,,,,,,,,,,,,,,,,,,,,,,,,,,,,,0,0,0,0,0,5,5,5,,,,,,,,,,,,,,,,,,,1029.2034213750012,p,1.5822766249912092,1030.8425051249942,,,,,,250006,B,2024-12-05_12h10.00.448,EPIDM,2023.1.2,60.04087258480085,
4250.jpg,7060.jpg,5 Points,5 Points,17 points,PS2_L1.csv,,,,,,,,,,,,,,,,,,,,,,,,,,,,,0,0,0,0,0,6,6,6,,,,,,,,,,,,,,,,,,,1035.1034506669967,q,1.5373546250048093,1036.719525166991,,,,,,250006,B,2024-12-05_12h10.00.448,EPIDM,2023.1.2,60.04087258480085,
5130.jpg,1810.jpg,3 Points,3 Points,20 points,PS2_L1.csv,,,,,,,,,,,,,,,,,,,,,,,,,,,,,0,0,0,0,0,7,7,7,,,,,,,,,,,,,,,,,,,1040.9638496249972,p,1.9400879589957185,1042.98688820799,,,,,,250006,B,2024-12-05_12h10.00.448,EPIDM,2023.1.2,60.04087258480085,
6370.jpg,1270.jpg,4 Points,4 Points,24 points,PS2_L1.csv,,,,,,,,,,,,,,,,,,,,,,,,,,,,,0,0,0,0,0,8,8,8,,,,,,,,,,,,,,,,,,,1047.2197794169915,p,1.5887854589964263,1048.890010374991,,,,,,250006,B,2024-12-05_12h10.00.448,EPIDM,2023.1.2,60.04087258480085,
5480.jpg,8200.jpg,4 Points,4 Points,28 points,PS2_L1.csv,,,,,,,,,,,,,,,,,,,,,,,,,,,,,0,0,0,0,0,9,9,9,,,,,,,,,,,,,,,,,,,1053.1228660419874,p,1.5654375010053627,1054.7665165419894,,,,,,250006,B,2024-12-05_12h10.00.448,EPIDM,2023.1.2,60.04087258480085,
2520.jpg,8503.jpg,2 Points,2 Points,30 points,PS2_L1.csv,,,,,,,,,,,,,,,,,,,,,,,,,,,,,0,0,0,0,0,10,10,10,,,,,,,,,,,,,,,,,,,1059.0131492079963,q,1.67517124999722,1060.762059124987,,,,,,250006,B,2024-12-05_12h10.00.448,EPIDM,2023.1.2,60.04087258480085,
5971.jpg,9912.jpg,5 Points,5 Points,35 points,PS2_L1.csv,,,,,,,,,,,,,,,,,,,,,,,,,,,,,0,0,0,0,0,11,11,11,,,,,,,,,,,,,,,,,,,1065.005830457987,p,1.1392527499992866,1066.2102057919983,,,,,,250006,B,2024-12-05_12h10.00.448,EPIDM,2023.1.2,60.04087258480085,
7195.jpg,2487.jpg,2 Points,2 Points,37 points,PS2_L1.csv,,,,,,,,,,,,,,,,,,,,,,,,,,,,,0,0,0,0,0,12,12,12,,,,,,,,,,,,,,,,,,,1070.4597769999964,q,2.0118499170057476,1072.5395851669891,,,,,,250006,B,2024-12-05_12h10.00.448,EPIDM,2023.1.2,60.04087258480085,
6840.jpg,3080.jpg,1 Points,1 Points,38 points,PS2_L1.csv,,,,,,,,,,,,,,,,,,,,,,,,,,,,,0,0,0,0,0,13,13,13,,,,,,,,,,,,,,,,,,,1076.7896649169998,p,1.45811083400622,1078.3164244999934,1,1.774738874999457,,,,250006,B,2024-12-05_12h10.00.448,EPIDM,2023.1.2,60.04087258480085,
5510.jpg,2514.jpg,5 Points,5 Points,43 points,PS2_L1.csv,,,,,,,,,,,,,,,,,,,,,,,,,,,,,0,0,0,0,0,14,14,14,,,,,,,,,,,,,,,,,,,1084.4025064169982,q,2.9253477919992292,1087.3968167499988,,,,,,250006,B,2024-12-05_12h10.00.448,EPIDM,2023.1.2,60.04087258480085,
7170.jpg,2170.jpg,2 Points,2 Points,45 points,PS2_L1.csv,,,,,,,,,,,,,,,,,,,,,,,,,,,,,0,0,0,0,0,15,15,15,,,,,,,,,,,,,,,,,,,1091.6491559999995,p,1.7043795000063255,1093.427068457997,,,,,,250006,B,2024-12-05_12h10.00.448,EPIDM,2023.1.2,60.04087258480085,
6020.jpg,6300.jpg,2 Points,2 Points,47 points,PS2_L1.csv,,,,,,,,,,,,,,,,,,,,,,,,,,,,,0,0,0,0,0,16,16,16,,,,,,,,,,,,,,,,,,,1097.6720577079977,q,1.527593374994467,1099.270458250001,,,,,,250006,B,2024-12-05_12h10.00.448,EPIDM,2023.1.2,60.04087258480085,
1942.jpg,2890.jpg,1 Points,1 Points,48 points,PS2_L1.csv,,,,,,,,,,,,,,,,,,,,,,,,,,,,,0,0,0,0,0,17,17,17,,,,,,,,,,,,,,,,,,,1103.5286259999993,p,1.5665701249963604,1105.1544472079986,,,,,,250006,B,2024-12-05_12h10.00.448,EPIDM,2023.1.2,60.04087258480085,
6241.jpg,9561.jpg,3 Points,3 Points,51 points,PS2_L1.csv,,,,,,,,,,,,,,,,,,,,,,,,,,,,,0,0,0,0,0,18,18,18,,,,,,,,,,,,,,,,,,,1109.4121606249973,p,1.5310975839965977,1111.0221636669885,,,,,,250006,B,2024-12-05_12h10.00.448,EPIDM,2023.1.2,60.04087258480085,
4536.jpg,2280.jpg,4 Points,4 Points,55 points,PS2_L1.csv,,,,,,,,,,,,,,,,,,,,,,,,,,,,,0,0,0,0,0,19,19,19,,,,,,,,,,,,,,,,,,,1115.269502582989,q,1.6810295839968603,1117.0372124999994,,,,,,250006,B,2024-12-05_12h10.00.448,EPIDM,2023.1.2,60.04087258480085,
6000.jpg,6836.jpg,4 Points,4 Points,59 points,PS2_L1.csv,,,,,,,,,,,,,,,,,,,,,,,,,,,,,0,0,0,0,0,20,20,20,,,,,,,,,,,,,,,,,,,1121.2852813329955,p,1.3543928750004852,1122.7056392079976,,,,,,250006,B,2024-12-05_12h10.00.448,EPIDM,2023.1.2,60.04087258480085,
8232.jpg,4279.jpg,5 Points,5 Points,64 points,PS2_L1.csv,,,,,,,,,,,,,,,,,,,,,,,,,,,,,0,0,0,0,0,21,21,21,,,,,,,,,,,,,,,,,,,1126.958733291991,p,1.3274193340039346,1128.369445791992,,,,,,250006,B,2024-12-05_12h10.00.448,EPIDM,2023.1.2,60.04087258480085,
2312.jpg,2722.jpg,1 Points,1 Points,65 points,PS2_L1.csv,,,,,,,,,,,,,,,,,,,,,,,,,,,,,0,0,0,0,0,22,22,22,,,,,,,,,,,,,,,,,,,1132.6136130829982,p,1.4007460419961717,1134.092607457991,,,,,,250006,B,2024-12-05_12h10.00.448,EPIDM,2023.1.2,60.04087258480085,
2750.jpg,9050.jpg,4 Points,4 Points,69 points,PS2_L1.csv,,,,,,,,,,,,,,,,,,,,,,,,,,,,,0,0,0,0,0,23,23,23,,,,,,,,,,,,,,,,,,,1138.3462738329981,q,1.236977292006486,1139.6511962499935,,,1150.168147666991,space,8.974111333998735,250006,B,2024-12-05_12h10.00.448,EPIDM,2023.1.2,60.04087258480085,
1113.jpg,1240.jpg,3 Points,3 Points,72 points,PS2_L2.csv,,,,,,,,,,,,,,,,,,,,,,,,,,,,,0,1,1,1,0,0,0,0,,,,,,,,,,,,,,,,,,,1162.463004624995,q,1.5428641670005163,1164.0812544999935,,,,,,250006,B,2024-12-05_12h10.00.448,EPIDM,2023.1.2,60.04087258480085,
8220.jpg,2410.jpg,4 Points,4 Points,76 points,PS2_L2.csv,,,,,,,,,,,,,,,,,,,,,,,,,,,,,0,1,1,1,0,1,1,1,,,,,,,,,,,,,,,,,,,1168.3271969169873,q,2.0153571249975357,1170.408665791998,4,1.551838041996234,,,,250006,B,2024-12-05_12h10.00.448,EPIDM,2023.1.2,60.04087258480085,
4621.jpg,3550.jpg,2 Points,2 Points,78 points,PS2_L2.csv,,,,,,,,,,,,,,,,,,,,,,,,,,,,,0,1,1,1,0,2,2,2,,,,,,,,,,,,,,,,,,,1176.2657297080004,p,2.539465208988986,1178.876525832995,,,,,,250006,B,2024-12-05_12h10.00.448,EPIDM,2023.1.2,60.04087258480085,
2751.jpg,6313.jpg,3 Points,3 Points,81 points,PS2_L2.csv,,,,,,,,,,,,,,,,,,,,,,,,,,,,,0,1,1,1,0,3,3,3,,,,,,,,,,,,,,,,,,,1183.123115333001,p,0.9550918750028359,1184.1548771249945,,,,,,250006,B,2024-12-05_12h10.00.448,EPIDM,2023.1.2,60.04087258480085,
4689.jpg,7009.jpg,5 Points,5 Points,86 points,PS2_L2.csv,,,,,,,,,,,,,,,,,,,,,,,,,,,,,0,1,1,1,0,4,4,4,,,,,,,,,,,,,,,,,,,1188.407729832994,q,0.6297849590046098,1189.1166690829996,,,,,,250006,B,2024-12-05_12h10.00.448,EPIDM,2023.1.2,60.04087258480085,
6831.jpg,2141.jpg,5 Points,5 Points,91 points,PS2_L2.csv,,,,,,,,,,,,,,,,,,,,,,,,,,,,,0,1,1,1,0,5,5,5,,,,,,,,,,,,,,,,,,,1193.356866749993,q,1.5284785839903634,1194.9583453329979,,,,,,250006,B,2024-12-05_12h10.00.448,EPIDM,2023.1.2,60.04087258480085,
9417.jpg,6530.jpg,1 Point,1 Point,92 points,PS2_L2.csv,,,,,,,,,,,,,,,,,,,,,,,,,,,,,0,1,1,1,0,6,6,6,,,,,,,,,,,,,,,,,,,1199.2161253329978,q,2.0207634170074016,1201.312966832993,,,,,,250006,B,2024-12-05_12h10.00.448,EPIDM,2023.1.2,60.04087258480085,
7237.jpg,8510.jpg,4 Points,4 Points,96 points,PS2_L2.csv,,,,,,,,,,,,,,,,,,,,,,,,,,,,,0,1,1,1,0,7,7,7,,,,,,,,,,,,,,,,,,,1205.563026082993,q,1.8344924589910079,1207.468519749993,,,,,,250006,B,2024-12-05_12h10.00.448,EPIDM,2023.1.2,60.04087258480085,
4608.jpg,8320.jpg,1 Point,1 Point,97 points,PS2_L2.csv,,,,,,,,,,,,,,,,,,,,,,,,,,,,,0,1,1,1,0,8,8,8,,,,,,,,,,,,,,,,,,,1211.7100574579963,q,0.9658049169956939,1212.7442075829895,,,,,,250006,B,2024-12-05_12h10.00.448,EPIDM,2023.1.2,60.04087258480085,
9254.jpg,9290.jpg,2 Points,2 Points,99 points,PS2_L2.csv,,,,,,,,,,,,,,,,,,,,,,,,,,,,,0,1,1,1,0,9,9,9,,,,,,,,,,,,,,,,,,,1216.9936140419886,p,1.795358582996414,1218.8515536669875,,,,,,250006,B,2024-12-05_12h10.00.448,EPIDM,2023.1.2,60.04087258480085,
9530.jpg,9220.jpg,1 Point,1 Point,100 points,PS2_L2.csv,,,,,,,,,,,,,,,,,,,,,,,,,,,,,0,1,1,1,0,10,10,10,,,,,,,,,,,,,,,,,,,1223.104210874997,p,1.6050908759934828,1224.775274707994,,,,,,250006,B,2024-12-05_12h10.00.448,EPIDM,2023.1.2,60.04087258480085,
2092.jpg,2210.jpg,0 Points,0 Points,100 points,PS2_L2.csv,,,,,,,,,,,,,,,,,,,,,,,,,,,,,0,1,1,1,0,11,11,11,,,,,,,,,,,,,,,,,,,1229.0475726669974,q,0.8283649170043645,1229.9468134999915,,,,,,250006,B,2024-12-05_12h10.00.448,EPIDM,2023.1.2,60.04087258480085,
9500.jpg,6360.jpg,1 Point,1 Point,101 points,PS2_L2.csv,,,,,,,,,,,,,,,,,,,,,,,,,,,,,0,1,1,1,0,12,12,12,,,,,,,,,,,,,,,,,,,1234.201032375,q,1.2515871669893386,1235.5238485829905,,,,,,250006,B,2024-12-05_12h10.00.448,EPIDM,2023.1.2,60.04087258480085,
2220.jpg,2010.jpg,5 Points,5 Points,106 points,PS2_L2.csv,,,,,,,,,,,,,,,,,,,,,,,,,,,,,0,1,1,1,0,13,13,13,,,,,,,,,,,,,,,,,,,1239.7689931669884,p,0.9959001249953872,1240.839097832999,5,2.0145877500035567,,,,250006,B,2024-12-05_12h10.00.448,EPIDM,2023.1.2,60.04087258480085,
5940.jpg,9411.jpg,0 Points,0 Points,106 points,PS2_L2.csv,,,,,,,,,,,,,,,,,,,,,,,,,,,,,0,1,1,1,0,14,14,14,,,,,,,,,,,,,,,,,,,1247.1755831249902,p,2.1890183340001386,1249.43413754199,,,,,,250006,B,2024-12-05_12h10.00.448,EPIDM,2023.1.2,60.04087258480085,
4533.jpg,2385.jpg,3 Points,3 Points,109 points,PS2_L2.csv,,,,,,,,,,,,,,,,,,,,,,,,,,,,,0,1,1,1,0,15,15,15,,,,,,,,,,,,,,,,,,,1253.684889541997,q,0.8786265420058044,1254.6449481249874,,,,,,250006,B,2024-12-05_12h10.00.448,EPIDM,2023.1.2,60.04087258480085,
9340.jpg,6910.jpg,0 Points,0 Points,109 points,PS2_L2.csv,,,,,,,,,,,,,,,,,,,,,,,,,,,,,0,1,1,1,0,16,16,16,,,,,,,,,,,,,,,,,,,1258.8778517079918,q,1.2371740009984933,1260.1919179169927,,,,,,250006,B,2024-12-05_12h10.00.448,EPIDM,2023.1.2,60.04087258480085,
8350.jpg,7190.jpg,5 Points,5 Points,114 points,PS2_L2.csv,,,,,,,,,,,,,,,,,,,,,,,,,,,,,0,1,1,1,0,17,17,17,,,,,,,,,,,,,,,,,,,1264.4342013749992,p,1.0656018750014482,1265.572103707993,,,,,,250006,B,2024-12-05_12h10.00.448,EPIDM,2023.1.2,60.04087258480085,
6211.jpg,9611.jpg,3 Points,3 Points,117 points ,PS2_L2.csv,,,,,,,,,,,,,,,,,,,,,,,,,,,,,0,1,1,1,0,18,18,18,,,,,,,,,,,,,,,,,,,1269.811356457998,p,1.5126138329942478,1271.3890747499972,,,,,,250006,B,2024-12-05_12h10.00.448,EPIDM,2023.1.2,60.04087258480085,
2053.jpg,9415.jpg,4 Points,4 Points,121 points,PS2_L2.csv,,,,,,,,,,,,,,,,,,,,,,,,,,,,,0,1,1,1,0,19,19,19,,,,,,,,,,,,,,,,,,,1275.644312874996,q,1.295244459004607,1276.9958649170003,,,,,,250006,B,2024-12-05_12h10.00.448,EPIDM,2023.1.2,60.04087258480085,
2110.jpg,7260.jpg,5 Points,5 Points,126 points,PS2_L2.csv,,,,,,,,,,,,,,,,,,,,,,,,,,,,,0,1,1,1,0,20,20,20,,,,,,,,,,,,,,,,,,,1281.2480592079955,p,2.2598812920041382,1283.5807962499966,,,,,,250006,B,2024-12-05_12h10.00.448,EPIDM,2023.1.2,60.04087258480085,
2030.jpg,2495.jpg,0 Points,0 Points,126 points,PS2_L2.csv,,,,,,,,,,,,,,,,,,,,,,,,,,,,,0,1,1,1,0,21,21,21,,,,,,,,,,,,,,,,,,,1287.8219767919945,q,0.8925122509972425,1288.7945174169872,,,,,,250006,B,2024-12-05_12h10.00.448,EPIDM,2023.1.2,60.04087258480085,
1302.jpg,2700.jpg,3 Points,3 Points,129 points,PS2_L2.csv,,,,,,,,,,,,,,,,,,,,,,,,,,,,,0,1,1,1,0,22,22,22,,,,,,,,,,,,,,,,,,,1293.0433372919942,q,0.8396335419965908,1293.9527289169928,,,,,,250006,B,2024-12-05_12h10.00.448,EPIDM,2023.1.2,60.04087258480085,
9010.jpg,9253.jpg,0 Points,0 Points,129 points,PS2_L2.csv,,,,,,,,,,,,,,,,,,,,,,,,,,,,,0,1,1,1,0,23,23,23,,,,,,,,,,,,,,,,,,,1298.200797832993,p,0.9934579999971902,1299.2623626669956,,,1309.7446101249952,space,5.841618916994776,250006,B,2024-12-05_12h10.00.448,EPIDM,2023.1.2,60.04087258480085,
1303.jpg,2000.jpg,0 Points,0 Points,129 points,PS2_L3.csv,,,,,,,,,,,,,,,,,,,,,,,,,,,,,0,2,2,2,0,0,0,0,,,,,,,,,,,,,,,,,,,1318.9131463749945,q,1.376863500001491,1320.348847041998,,,,,,250006,B,2024-12-05_12h10.00.448,EPIDM,2023.1.2,60.04087258480085,
2200.jpg,4598.jpg,1 Point,1 Point,130 points,PS2_L3.csv,,,,,,,,,,,,,,,,,,,,,,,,,,,,,0,2,2,2,0,1,1,1,,,,,,,,,,,,,,,,,,,1324.6034014579927,q,1.9673212919879006,1326.6436829579907,1,1.4286997499875724,,,,250006,B,2024-12-05_12h10.00.448,EPIDM,2023.1.2,60.04087258480085,
6190.jpg,3120.jpg,5 Points,5 Points,135 points,PS2_L3.csv,,,,,,,,,,,,,,,,,,,,,,,,,,,,,0,2,2,2,0,2,2,2,,,,,,,,,,,,,,,,,,,1332.3872527079948,p,2.3438987499976065,1334.8035212079994,,,,,,250006,B,2024-12-05_12h10.00.448,EPIDM,2023.1.2,60.04087258480085,
2570.jpg,5500.jpg,3 Points,3 Points,138 points,PS2_L3.csv,,,,,,,,,,,,,,,,,,,,,,,,,,,,,0,2,2,2,0,3,3,3,,,,,,,,,,,,,,,,,,,1339.0493430419883,p,1.7046372089971555,1340.8327366250014,,,,,,250006,B,2024-12-05_12h10.00.448,EPIDM,2023.1.2,60.04087258480085,
8460.jpg,8330.jpg,0 Points,0 Points,138 points,PS2_L3.csv,,,,,,,,,,,,,,,,,,,,,,,,,,,,,0,2,2,2,0,4,4,4,,,,,,,,,,,,,,,,,,,1345.0696604169934,p,2.052059541994822,1347.1890660829959,,,,,,250006,B,2024-12-05_12h10.00.448,EPIDM,2023.1.2,60.04087258480085,
9320.jpg,9007.jpg,0 Points,0 Points,138 points,PS2_L3.csv,,,,,,,,,,,,,,,,,,,,,,,,,,,,,0,2,2,2,0,5,5,5,,,,,,,,,,,,,,,,,,,1351.4554844169907,q,1.705939416991896,1353.2380818749953,,,,,,250006,B,2024-12-05_12h10.00.448,EPIDM,2023.1.2,60.04087258480085,
2650.jpg,4531.jpg,5 Points,5 Points,143 points,PS2_L3.csv,,,,,,,,,,,,,,,,,,,,,,,,,,,,,0,2,2,2,0,6,6,6,,,,,,,,,,,,,,,,,,,1357.4917487079947,q,2.9978045009920606,1360.559428749999,,,,,,250006,B,2024-12-05_12h10.00.448,EPIDM,2023.1.2,60.04087258480085,
4100.jpg,6570.2.jpg,3 Points,3 Points,146 points,PS2_L3.csv,,,,,,,,,,,,,,,,,,,,,,,,,,,,,0,2,2,2,0,7,7,7,,,,,,,,,,,,,,,,,,,1364.8060522499873,p,1.81833429200924,1366.7059521669871,,,,,,250006,B,2024-12-05_12h10.00.448,EPIDM,2023.1.2,60.04087258480085,
3102.jpg,F032.jpg,1 Point,1 Point,147 points,PS2_L3.csv,,,,,,,,,,,,,,,,,,,,,,,,,,,,,0,2,2,2,0,8,8,8,,,,,,,,,,,,,,,,,,,1370.9444287919905,q,2.880806874993141,1373.9347579999885,,,,,,250006,B,2024-12-05_12h10.00.448,EPIDM,2023.1.2,60.04087258480085,
2240.jpg,5010.jpg,5 Points,5 Points,152 points,PS2_L3.csv,,,,,,,,,,,,,,,,,,,,,,,,,,,,,0,2,2,2,0,9,9,9,,,,,,,,,,,,,,,,,,,1378.143850166991,q,1.5771458339877427,1379.8310026669933,,,,,,250006,B,2024-12-05_12h10.00.448,EPIDM,2023.1.2,60.04087258480085,
4605.jpg,1510.jpg,4 Points,4 Points,156 points,PS2_L3.csv,,,,,,,,,,,,,,,,,,,,,,,,,,,,,0,2,2,2,0,10,10,10,,,,,,,,,,,,,,,,,,,1384.0317291669926,q,1.920623500001966,1386.0225527500006,,,,,,250006,B,2024-12-05_12h10.00.448,EPIDM,2023.1.2,60.04087258480085,
9490.jpg,9210.jpg,1 Point,1 Point,157 points,PS2_L3.csv,,,,,,,,,,,,,,,,,,,,,,,,,,,,,0,2,2,2,0,11,11,11,,,,,,,,,,,,,,,,,,,1390.2606348749978,q,1.146885875001317,1391.4797618749872,,,,,,250006,B,2024-12-05_12h10.00.448,EPIDM,2023.1.2,60.04087258480085,
6821.jpg,9622.jpg,2 Points,2 Points,159 points,PS2_L3.csv,,,,,,,,,,,,,,,,,,,,,,,,,,,,,0,2,2,2,0,12,12,12,,,,,,,,,,,,,,,,,,,1395.7357105419942,p,0.7840453749959124,1396.577746666997,,,,,,250006,B,2024-12-05_12h10.00.448,EPIDM,2023.1.2,60.04087258480085,
2681.jpg,7100.jpg,3 Points,3 Points,162 points,PS2_L3.csv,,,,,,,,,,,,,,,,,,,,,,,,,,,,,0,2,2,2,0,13,13,13,,,,,,,,,,,,,,,,,,,1400.8314220829925,p,1.216194834007183,1402.1169461669924,3,1.1635747919935966,,,,250006,B,2024-12-05_12h10.00.448,EPIDM,2023.1.2,60.04087258480085,
5622.jpg,9156.jpg,4 Points,4 Points,166 points,PS2_L3.csv,,,,,,,,,,,,,,,,,,,,,,,,,,,,,0,2,2,2,0,14,14,14,,,,,,,,,,,,,,,,,,,1407.6008998329926,q,1.3578804170101648,1409.0400073329947,,,,,,250006,B,2024-12-05_12h10.00.448,EPIDM,2023.1.2,60.04087258480085,
1111.jpg,1040.jpg,0 Points,0 Points,166 points,PS2_L3.csv,,,,,,,,,,,,,,,,,,,,,,,,,,,,,0,2,2,2,0,15,15,15,,,,,,,,,,,,,,,,,,,1413.2879882919951,p,0.4313130420050584,1413.7990638329939,,,,,,250006,B,2024-12-05_12h10.00.448,EPIDM,2023.1.2,60.04087258480085,
1112.jpg,6230.jpg,3 Points,3 Points,169 points,PS2_L3.csv,,,,,,,,,,,,,,,,,,,,,,,,,,,,,0,2,2,2,0,16,16,16,,,,,,,,,,,,,,,,,,,1418.064458666995,q,1.1436120830039727,1419.2811007079872,,,,,,250006,B,2024-12-05_12h10.00.448,EPIDM,2023.1.2,60.04087258480085,
8161.jpg,1900.jpg,4 Points,4 Points,173 points,PS2_L3.csv,,,,,,,,,,,,,,,,,,,,,,,,,,,,,0,2,2,2,0,17,17,17,,,,,,,,,,,,,,,,,,,1423.5233669169975,p,1.7716517920052866,1425.3663446249993,,,,,,250006,B,2024-12-05_12h10.00.448,EPIDM,2023.1.2,60.04087258480085,
9800.jpg,9433.jpg,1 Point,1 Point,174 points,PS2_L3.csv,,,,,,,,,,,,,,,,,,,,,,,,,,,,,0,2,2,2,0,18,18,18,,,,,,,,,,,,,,,,,,,1429.6177543329977,p,1.1277019580011256,1430.8056814579904,,,,,,250006,B,2024-12-05_12h10.00.448,EPIDM,2023.1.2,60.04087258480085,
1390.jpg,9421.jpg,2 Points,2 Points,176 points,PS2_L3.csv,,,,,,,,,,,,,,,,,,,,,,,,,,,,,0,2,2,2,0,19,19,19,,,,,,,,,,,,,,,,,,,1435.054183291999,p,1.1370819589938037,1436.2563052079931,,,,,,250006,B,2024-12-05_12h10.00.448,EPIDM,2023.1.2,60.04087258480085,
2850.jpg,4532.jpg,3 Points,3 Points,179 points,PS2_L3.csv,,,,,,,,,,,,,,,,,,,,,,,,,,,,,0,2,2,2,0,20,20,20,,,,,,,,,,,,,,,,,,,1440.5038831249985,p,1.1279692079988308,1441.7082084579888,,,,,,250006,B,2024-12-05_12h10.00.448,EPIDM,2023.1.2,60.04087258480085,
1560.jpg,8185.jpg,0 Points,0 Points,179 points,PS2_L3.csv,,,,,,,,,,,,,,,,,,,,,,,,,,,,,0,2,2,2,0,21,21,21,,,,,,,,,,,,,,,,,,,1445.96320891699,p,2.596083333992283,1448.6254612499906,,,,,,250006,B,2024-12-05_12h10.00.448,EPIDM,2023.1.2,60.04087258480085,
6314.jpg,O022.jpg,2 Points,2 Points,181 points,PS2_L3.csv,,,,,,,,,,,,,,,,,,,,,,,,,,,,,0,2,2,2,0,22,22,22,,,,,,,,,,,,,,,,,,,1452.8798682919878,p,1.5982362919894513,1454.578840416987,,,,,,250006,B,2024-12-05_12h10.00.448,EPIDM,2023.1.2,60.04087258480085,
4274.jpg,8160.jpg,2 Points,2 Points,183 points,PS2_L3.csv,,,,,,,,,,,,,,,,,,,,,,,,,,,,,0,2,2,2,0,23,23,23,,,,,,,,,,,,,,,,,,,1458.7927720000007,q,0.9099616669991519,1459.8055526669923,,,1470.2504121669917,space,3.0357063749979716,250006,B,2024-12-05_12h10.00.448,EPIDM,2023.1.2,60.04087258480085,
8117.jpg,2880.jpg,5 Points,5 Points,188 points,PS2_L4.csv,,,,,,,,,,,,,,,,,,,,,,,,,,,,,0,3,3,3,0,0,0,0,,,,,,,,,,,,,,,,,,,1476.609243125,q,0.9003737919993,1477.5842751249875,,,,,,250006,B,2024-12-05_12h10.00.448,EPIDM,2023.1.2,60.04087258480085,
3220.jpg,3063.jpg,5 Points,5 Points,193 points,PS2_L4.csv,,,,,,,,,,,,,,,,,,,,,,,,,,,,,0,3,3,3,0,1,1,1,,,,,,,,,,,,,,,,,,,1481.8217412499944,q,2.9999912089988356,1484.8878628329985,5,1.4024455009930534,,,,250006,B,2024-12-05_12h10.00.448,EPIDM,2023.1.2,60.04087258480085,
9040.jpg,1120.jpg,3 Points,3 Points,196 points,PS2_L4.csv,,,,,,,,,,,,,,,,,,,,,,,,,,,,,0,3,3,3,0,2,2,2,,,,,,,,,,,,,,,,,,,1490.60492849999,p,2.7280542499938747,1493.4006966249872,,,,,,250006,B,2024-12-05_12h10.00.448,EPIDM,2023.1.2,60.04087258480085,
5030.jpg,1670.jpg,3 Points,3 Points,199 points,PS2_L4.csv,,,,,,,,,,,,,,,,,,,,,,,,,,,,,0,3,3,3,0,3,3,3,,,,,,,,,,,,,,,,,,,1497.6592685829964,q,1.7382861250080168,1499.4706422499876,,,,,,250006,B,2024-12-05_12h10.00.448,EPIDM,2023.1.2,60.04087258480085,
2276.jpg,6540.jpg,3 Points,3 Points,202 points,PS2_L4.csv,,,,,,,,,,,,,,,,,,,,,,,,,,,,,0,3,3,3,0,4,4,4,,,,,,,,,,,,,,,,,,,1503.7163322080014,q,1.8330920840089675,1505.6020790829934,,,,,,250006,B,2024-12-05_12h10.00.448,EPIDM,2023.1.2,60.04087258480085,
1540.jpg,2600.jpg,1 Point,1 Point,203 points,PS2_L4.csv,,,,,,,,,,,,,,,,,,,,,,,,,,,,,0,3,3,3,0,5,5,5,,,,,,,,,,,,,,,,,,,1509.868717874997,p,2.735818332992494,1512.669365875001,,,,,,250006,B,2024-12-05_12h10.00.448,EPIDM,2023.1.2,60.04087258480085,
8465.jpg,8400.jpg,1 Point,1 Point,204 points,PS2_L4.csv,,,,,,,,,,,,,,,,,,,,,,,,,,,,,0,3,3,3,0,6,6,6,,,,,,,,,,,,,,,,,,,1516.9186617499945,q,2.157060084005934,1519.1413047499955,,,,,,250006,B,2024-12-05_12h10.00.448,EPIDM,2023.1.2,60.04087258480085,
3110.jpg,9000.jpg,4 Points,4 Points,208 points,PS2_L4.csv,,,,,,,,,,,,,,,,,,,,,,,,,,,,,0,3,3,3,0,7,7,7,,,,,,,,,,,,,,,,,,,1523.387315999993,q,2.7772984170005657,1526.2333938329975,,,,,,250006,B,2024-12-05_12h10.00.448,EPIDM,2023.1.2,60.04087258480085,
9570.jpg,6610.jpg,0 Points,0 Points,208 points,PS2_L4.csv,,,,,,,,,,,,,,,,,,,,,,,,,,,,,0,3,3,3,0,8,8,8,,,,,,,,,,,,,,,,,,,1530.4782325829874,None,,,,,,,,250006,B,2024-12-05_12h10.00.448,EPIDM,2023.1.2,60.04087258480085,
2690.jpg,9360.jpg,1 Point,1 Point,209 points,PS2_L4.csv,,,,,,,,,,,,,,,,,,,,,,,,,,,,,0,3,3,3,0,9,9,9,,,,,,,,,,,,,,,,,,,1537.9810746250005,p,1.2554337920009857,1539.3051465829922,,,,,,250006,B,2024-12-05_12h10.00.448,EPIDM,2023.1.2,60.04087258480085,
8250.jpg,1313.jpg,4 Points,4 Points,213 points,PS2_L4.csv,,,,,,,,,,,,,,,,,,,,,,,,,,,,,0,3,3,3,0,10,10,10,,,,,,,,,,,,,,,,,,,1543.5576056249993,p,1.4008094999880996,1545.0339897919912,,,,,,250006,B,2024-12-05_12h10.00.448,EPIDM,2023.1.2,60.04087258480085,
3022.jpg,2352.2.jpg,0 Points,0 Points,213 points,PS2_L4.csv,,,,,,,,,,,,,,,,,,,,,,,,,,,,,0,3,3,3,0,11,11,11,,,,,,,,,,,,,,,,,,,1549.293693707994,q,1.4859927919897018,1550.8519512079947,,,,,,250006,B,2024-12-05_12h10.00.448,EPIDM,2023.1.2,60.04087258480085,
9920.jpg,3068.jpg,5 Points,5 Points,218 points,PS2_L4.csv,,,,,,,,,,,,,,,,,,,,,,,,,,,,,0,3,3,3,0,12,12,12,,,,,,,,,,,,,,,,,,,1555.09380745799,q,1.95798737599398,1557.1201796249952,,,,,,250006,B,2024-12-05_12h10.00.448,EPIDM,2023.1.2,60.04087258480085,
7234.jpg,5533.jpg,3 Points,3 Points,221 points,PS2_L4.csv,,,,,,,,,,,,,,,,,,,,,,,,,,,,,0,3,3,3,0,13,13,13,,,,,,,,,,,,,,,,,,,1561.3671516249888,p,1.8274141250003595,1563.2679257919954,3,1.1506337090104353,,,,250006,B,2024-12-05_12h10.00.448,EPIDM,2023.1.2,60.04087258480085,
6250.1.jpg,3301.jpg,0 Points,0 Points,221 points,PS2_L4.csv,,,,,,,,,,,,,,,,,,,,,,,,,,,,,0,3,3,3,0,14,14,14,,,,,,,,,,,,,,,,,,,1568.743858832997,None,,,,,,,,250006,B,2024-12-05_12h10.00.448,EPIDM,2023.1.2,60.04087258480085,
2518.jpg,2381.jpg,1 Point,1 Point,222 points,PS2_L4.csv,,,,,,,,,,,,,,,,,,,,,,,,,,,,,0,3,3,3,0,15,15,15,,,,,,,,,,,,,,,,,,,1576.2407404999976,p,1.1062038340023719,1577.4045502919907,,,,,,250006,B,2024-12-05_12h10.00.448,EPIDM,2023.1.2,60.04087258480085,
1910.jpg,2575.jpg,2 Points,2 Points,224 points,PS2_L4.csv,,,,,,,,,,,,,,,,,,,,,,,,,,,,,0,3,3,3,0,16,16,16,,,,,,,,,,,,,,,,,,,1581.659935167001,p,1.1513915010000346,1582.8665817919973,,,,,,250006,B,2024-12-05_12h10.00.448,EPIDM,2023.1.2,60.04087258480085,
1275.jpg,3150.jpg,1 Point,1 Point,225 points,PS2_L4.csv,,,,,,,,,,,,,,,,,,,,,,,,,,,,,0,3,3,3,0,17,17,17,,,,,,,,,,,,,,,,,,,1587.1327042079938,p,1.262342333997367,1588.4621817079897,,,,,,250006,B,2024-12-05_12h10.00.448,EPIDM,2023.1.2,60.04087258480085,
2702.jpg,1590.jpg,5 Points,5 Points,230 points,PS2_L4.csv,,,,,,,,,,,,,,,,,,,,,,,,,,,,,0,3,3,3,0,18,18,18,,,,,,,,,,,,,,,,,,,1592.7201446249965,q,0.8107088329852559,1593.5978877079906,,,,,,250006,B,2024-12-05_12h10.00.448,EPIDM,2023.1.2,60.04087258480085,
8480.jpg,6410.jpg,1 Point,1 Point,231 points,PS2_L4.csv,,,,,,,,,,,,,,,,,,,,,,,,,,,,,0,3,3,3,0,19,19,19,,,,,,,,,,,,,,,,,,,1597.8395832919923,q,1.171109125003568,1599.0781736669887,,,,,,250006,B,2024-12-05_12h10.00.448,EPIDM,2023.1.2,60.04087258480085,
5621.jpg,5534.jpg,3 Points,3 Points,234 points,PS2_L4.csv,,,,,,,,,,,,,,,,,,,,,,,,,,,,,0,3,3,3,0,20,20,20,,,,,,,,,,,,,,,,,,,1603.322452124994,q,1.3444108759867959,1604.7359657919878,,,,,,250006,B,2024-12-05_12h10.00.448,EPIDM,2023.1.2,60.04087258480085,
5972.jpg,6838.jpg,5 Points,5 Points,239 points,PS2_L4.csv,,,,,,,,,,,,,,,,,,,,,,,,,,,,,0,3,3,3,0,21,21,21,,,,,,,,,,,,,,,,,,,1608.9826701249985,p,1.8998517919972073,1610.9501775829995,,,,,,250006,B,2024-12-05_12h10.00.448,EPIDM,2023.1.2,60.04087258480085,
2580.jpg,8300.jpg,3 Points,3 Points,242 points,PS2_L4.csv,,,,,,,,,,,,,,,,,,,,,,,,,,,,,0,3,3,3,0,22,22,22,,,,,,,,,,,,,,,,,,,1615.1993382499932,p,1.9313586669886718,1617.2117493749975,,,,,,250006,B,2024-12-05_12h10.00.448,EPIDM,2023.1.2,60.04087258480085,
7280.jpg,7160.jpg,0 Points,0 Points,242 points,PS2_L4.csv,,,,,,,,,,,,,,,,,,,,,,,,,,,,,0,3,3,3,0,23,23,23,,,,,,,,,,,,,,,,,,,1621.4583425419987,p,0.799384251004085,1622.3405246249895,,,1632.8283002919925,space,4.118415792006999,250006,B,2024-12-05_12h10.00.448,EPIDM,2023.1.2,60.04087258480085,
6243.jpg,2752.jpg,2 Points,2 Points,244 points,PS2_L5.csv,,,,,,,,,,,,,,,,,,,,,,,,,,,,,0,4,4,4,0,0,0,0,,,,,,,,,,,,,,,,,,,1640.2653646249964,p,1.3283385840040864,1641.6643280829885,,,,,,250006,B,2024-12-05_12h10.00.448,EPIDM,2023.1.2,60.04087258480085,
8340.jpg,7546.jpg,2 Points,2 Points,246 points,PS2_L5.csv,,,,,,,,,,,,,,,,,,,,,,,,,,,,,0,4,4,4,0,1,1,1,,,,,,,,,,,,,,,,,,,1645.9157563329936,q,1.638118917006068,1647.6204799999978,2,1.8416282500111265,,,,250006,B,2024-12-05_12h10.00.448,EPIDM,2023.1.2,60.04087258480085,
1022.jpg,6930.jpg,1 Point,1 Point,247 points,PS2_L5.csv,,,,,,,,,,,,,,,,,,,,,,,,,,,,,0,4,4,4,0,2,2,2,,,,,,,,,,,,,,,,,,,1653.7713416249899,q,2.262013041996397,1656.1063245419937,,,,,,250006,B,2024-12-05_12h10.00.448,EPIDM,2023.1.2,60.04087258480085,
7230.jpg,7570.jpg,5 Points,5 Points,252 points,PS2_L5.csv,,,,,,,,,,,,,,,,,,,,,,,,,,,,,0,4,4,4,0,3,3,3,,,,,,,,,,,,,,,,,,,1660.3572075419943,q,1.6436106670007575,1662.0793750000012,,,,,,250006,B,2024-12-05_12h10.00.448,EPIDM,2023.1.2,60.04087258480085,
5760.jpg,1602.jpg,1 Point,1 Point,253 points,PS2_L5.csv,,,,,,,,,,,,,,,,,,,,,,,,,,,,,0,4,4,4,0,4,4,4,,,,,,,,,,,,,,,,,,,1666.3248384999897,p,0.7884375839930726,1667.1822727499966,,,,,,250006,B,2024-12-05_12h10.00.448,EPIDM,2023.1.2,60.04087258480085,
9584.jpg,3400.jpg,2 Points,2 Points,255 points,PS2_L5.csv,,,,,,,,,,,,,,,,,,,,,,,,,,,,,0,4,4,4,0,5,5,5,,,,,,,,,,,,,,,,,,,1671.435740624991,p,1.532280166997225,1673.035990749995,,,,,,250006,B,2024-12-05_12h10.00.448,EPIDM,2023.1.2,60.04087258480085,
2560.jpg,5270.jpg,4 Points,4 Points,259 points,PS2_L5.csv,,,,,,,,,,,,,,,,,,,,,,,,,,,,,0,4,4,4,0,6,6,6,,,,,,,,,,,,,,,,,,,1677.2869250829972,q,0.6577159169974038,1678.0089475829882,,,,,,250006,B,2024-12-05_12h10.00.448,EPIDM,2023.1.2,60.04087258480085,
3350.jpg,3210.jpg,1 Point,1 Point,260 points,PS2_L5.csv,,,,,,,,,,,,,,,,,,,,,,,,,,,,,0,4,4,4,0,7,7,7,,,,,,,,,,,,,,,,,,,1682.2564023329905,q,0.9526355840062024,1683.2858935419936,,,,,,250006,B,2024-12-05_12h10.00.448,EPIDM,2023.1.2,60.04087258480085,
5455.jpg,5220.jpg,0 Points,0 Points,260 points,PS2_L5.csv,,,,,,,,,,,,,,,,,,,,,,,,,,,,,0,4,4,4,0,8,8,8,,,,,,,,,,,,,,,,,,,1687.5362685,p,0.8319587510050042,1688.4279555419926,,,,,,250006,B,2024-12-05_12h10.00.448,EPIDM,2023.1.2,60.04087258480085,
7920.jpg,9102.jpg,3 Points,3 Points,263 points,PS2_L5.csv,,,,,,,,,,,,,,,,,,,,,,,,,,,,,0,4,4,4,0,9,9,9,,,,,,,,,,,,,,,,,,,1692.6935539999977,p,1.0351479169912636,1693.7992037919903,,,,,,250006,B,2024-12-05_12h10.00.448,EPIDM,2023.1.2,60.04087258480085,
1301.jpg,1070.jpg,2 Points,2 Points,265 points,PS2_L5.csv,,,,,,,,,,,,,,,,,,,,,,,,,,,,,0,4,4,4,0,10,10,10,,,,,,,,,,,,,,,,,,,1698.0408407919895,p,1.0799795839993749,1699.2021984579915,,,,,,250006,B,2024-12-05_12h10.00.448,EPIDM,2023.1.2,60.04087258480085,
5982.jpg,5260.jpg,5 Points,5 Points,270 points,PS2_L5.csv,,,,,,,,,,,,,,,,,,,,,,,,,,,,,0,4,4,4,0,11,11,11,,,,,,,,,,,,,,,,,,,1703.4363651669992,p,1.219605332997162,1704.732404874987,,,,,,250006,B,2024-12-05_12h10.00.448,EPIDM,2023.1.2,60.04087258480085,
5000.jpg,8180.jpg,4 Points,4 Points,274 points,PS2_L5.csv,,,,,,,,,,,,,,,,,,,,,,,,,,,,,0,4,4,4,0,12,12,12,,,,,,,,,,,,,,,,,,,1708.9815354999882,p,0.8895199590042466,1709.952054999987,,,,,,250006,B,2024-12-05_12h10.00.448,EPIDM,2023.1.2,60.04087258480085,
6244.jpg,9265.jpg,0 Points,0 Points,274 points,PS2_L5.csv,,,,,,,,,,,,,,,,,,,,,,,,,,,,,0,4,4,4,0,13,13,13,,,,,,,,,,,,,,,,,,,1714.193169457998,p,1.0542205420060782,1715.3118836249923,0,1.3936777920025634,,,,250006,B,2024-12-05_12h10.00.448,EPIDM,2023.1.2,60.04087258480085,
5990.jpg,5780.jpg,3 Points,3 Points,277 points,PS2_L5.csv,,,,,,,,,,,,,,,,,,,,,,,,,,,,,0,4,4,4,0,14,14,14,,,,,,,,,,,,,,,,,,,1721.019837999993,q,1.3637977500038687,1722.4560143329873,,,,,,250006,B,2024-12-05_12h10.00.448,EPIDM,2023.1.2,60.04087258480085,
9440.jpg,6350.jpg,4 Points,4 Points,281 points,PS2_L5.csv,,,,,,,,,,,,,,,,,,,,,,,,,,,,,0,4,4,4,0,15,15,15,,,,,,,,,,,,,,,,,,,1726.7059225829871,q,0.9259382919990458,1727.6947460829979,,,,,,250006,B,2024-12-05_12h10.00.448,EPIDM,2023.1.2,60.04087258480085,
1850.jpg,5623.jpg,5 Points,5 Points,286 points,PS2_L5.csv,,,,,,,,,,,,,,,,,,,,,,,,,,,,,0,4,4,4,0,16,16,16,,,,,,,,,,,,,,,,,,,1731.955702124993,p,1.2913117920106743,1733.3132744999893,,,,,,250006,B,2024-12-05_12h10.00.448,EPIDM,2023.1.2,60.04087258480085,
5200.jpg,5020.jpg,0 Points,0 Points,286 points,PS2_L5.csv,,,,,,,,,,,,,,,,,,,,,,,,,,,,,0,4,4,4,0,17,17,17,,,,,,,,,,,,,,,,,,,1737.5692386250012,p,0.8942995840043295,1738.5323451250006,,,,,,250006,B,2024-12-05_12h10.00.448,EPIDM,2023.1.2,60.04087258480085,
P211.jpg,9041.jpg,4 Points,4 Points,290 points,PS2_L5.csv,,,,,,,,,,,,,,,,,,,,,,,,,,,,,0,4,4,4,0,18,18,18,,,,,,,,,,,,,,,,,,,1742.7812312499882,q,1.5934071249939734,1744.4766446669964,,,,,,250006,B,2024-12-05_12h10.00.448,EPIDM,2023.1.2,60.04087258480085,
5600.jpg,9080.jpg,5 Points,5 Points,295 points,PS2_L5.csv,,,,,,,,,,,,,,,,,,,,,,,,,,,,,0,4,4,4,0,19,19,19,,,,,,,,,,,,,,,,,,,1748.688525791993,p,0.806673791987123,1749.6096929169871,,,,,,250006,B,2024-12-05_12h10.00.448,EPIDM,2023.1.2,60.04087258480085,
6800.jpg,9190.jpg,0 Points,0 Points,295 points,PS2_L5.csv,,,,,,,,,,,,,,,,,,,,,,,,,,,,,0,4,4,4,0,20,20,20,,,,,,,,,,,,,,,,,,,1753.8190815829876,q,0.8680396260024281,1754.7562557079946,,,,,,250006,B,2024-12-05_12h10.00.448,EPIDM,2023.1.2,60.04087258480085,
3280.jpg,9270.jpg,0 Points,0 Points,295 points,PS2_L5.csv,,,,,,,,,,,,,,,,,,,,,,,,,,,,,0,4,4,4,0,21,21,21,,,,,,,,,,,,,,,,,,,1759.0038980419922,q,1.2817672089877306,1760.3383949579875,,,,,,250006,B,2024-12-05_12h10.00.448,EPIDM,2023.1.2,60.04087258480085,
4613.jpg,2720.jpg,4 Points,4 Points,299 points,PS2_L5.csv,,,,,,,,,,,,,,,,,,,,,,,,,,,,,0,4,4,4,0,22,22,22,,,,,,,,,,,,,,,,,,,1764.5987054169964,p,1.2795794590056175,1765.9493777919997,,,,,,250006,B,2024-12-05_12h10.00.448,EPIDM,2023.1.2,60.04087258480085,
1930.jpg,9008.jpg,1 Point,1 Point,300 points,PS2_L5.csv,,,,,,,,,,,,,,,,,,,,,,,,,,,,,0,4,4,4,0,23,23,23,,,,,,,,,,,,,,,,,,,1770.2082683749904,p,1.181664791991352,1771.4714751669962,,,1781.9453651249933,space,2.980488041997887,250006,B,2024-12-05_12h10.00.448,EPIDM,2023.1.2,60.04087258480085,
2190.jpg,7503.jpg,2 Points,2 Points,302 points,PS2_L6.csv,,,,,,,,,,,,,,,,,,,,,,,,,,,,,0,5,5,5,0,0,0,0,,,,,,,,,,,,,,,,,,,1788.249377041997,p,1.0198807090055197,1789.3459256249917,,,,,,250006,B,2024-12-05_12h10.00.448,EPIDM,2023.1.2,60.04087258480085,
2490.jpg,2590.jpg,4 Points,4 Points,306 points,PS2_L6.csv,,,,,,,,,,,,,,,,,,,,,,,,,,,,,0,5,5,5,0,1,1,1,,,,,,,,,,,,,,,,,,,1793.5963919579954,q,0.7774905830010539,1794.4515874169883,4,0.6051059590099612,,,,250006,B,2024-12-05_12h10.00.448,EPIDM,2023.1.2,60.04087258480085,
9592.jpg,1300.jpg,2 Points,2 Points,308 points,PS2_L6.csv,,,,,,,,,,,,,,,,,,,,,,,,,,,,,0,5,5,5,0,2,2,2,,,,,,,,,,,,,,,,,,,1799.3800555419875,p,0.8658200010104338,1800.3126495420001,,,,,,250006,B,2024-12-05_12h10.00.448,EPIDM,2023.1.2,60.04087258480085,
8230.jpg,2682.jpg,5 Points,5 Points,313 points,PS2_L6.csv,,,,,,,,,,,,,,,,,,,,,,,,,,,,,0,5,5,5,0,3,3,3,,,,,,,,,,,,,,,,,,,1804.5743351669953,q,0.1749091249948833,1804.8146510829974,,,,,,250006,B,2024-12-05_12h10.00.448,EPIDM,2023.1.2,60.04087258480085,
9090.jpg,7580.jpg,3 Points,3 Points,316 points,PS2_L6.csv,,,,,,,,,,,,,,,,,,,,,,,,,,,,,0,5,5,5,0,4,4,4,,,,,,,,,,,,,,,,,,,1809.0663693749957,q,0.2684507090016268,1809.411525042,,,,,,250006,B,2024-12-05_12h10.00.448,EPIDM,2023.1.2,60.04087258480085,
3530.jpg,6213.jpg,1 Point,1 Point,317 points,PS2_L6.csv,,,,,,,,,,,,,,,,,,,,,,,,,,,,,0,5,5,5,0,5,5,5,,,,,,,,,,,,,,,,,,,1813.6535621249932,q,0.4395813759911107,1814.169130707989,,,,,,250006,B,2024-12-05_12h10.00.448,EPIDM,2023.1.2,60.04087258480085,
1640.jpg,5531.jpg,3 Points,3 Points,320 points,PS2_L6.csv,,,,,,,,,,,,,,,,,,,,,,,,,,,,,0,5,5,5,0,6,6,6,,,,,,,,,,,,,,,,,,,1818.4205192919908,p,0.26409108299412765,1818.756451082998,,,,,,250006,B,2024-12-05_12h10.00.448,EPIDM,2023.1.2,60.04087258480085,
3064.jpg,3168.jpg,4 Points,4 Points,324 points,PS2_L6.csv,,,,,,,,,,,,,,,,,,,,,,,,,,,,,0,5,5,5,0,7,7,7,,,,,,,,,,,,,,,,,,,1823.0028648329899,q,0.065566042001592,1823.135383582994,,,,,,250006,B,2024-12-05_12h10.00.448,EPIDM,2023.1.2,60.04087258480085,
2710.jpg,9252.jpg,1 Point,1 Point,325 points,PS2_L6.csv,,,,,,,,,,,,,,,,,,,,,,,,,,,,,0,5,5,5,0,8,8,8,,,,,,,,,,,,,,,,,,,1827.3795007500012,q,0.12190104198816698,1827.5654051249876,,,,,,250006,B,2024-12-05_12h10.00.448,EPIDM,2023.1.2,60.04087258480085,
2260.jpg,2830.jpg,5 Points,5 Points,330 points,PS2_L6.csv,,,,,,,,,,,,,,,,,,,,,,,,,,,,,0,5,5,5,0,9,9,9,,,,,,,,,,,,,,,,,,,1831.812108541999,q,0.3677012090047356,1832.2498942079983,,,,,,250006,B,2024-12-05_12h10.00.448,EPIDM,2023.1.2,60.04087258480085,
6510.jpg,A074.jpg,2 Points,2 Points,332 points,PS2_L6.csv,,,,,,,,,,,,,,,,,,,,,,,,,,,,,0,5,5,5,0,10,10,10,,,,,,,,,,,,,,,,,,,1836.4954828329937,q,0.5565377919847379,1837.1659554579965,,,,,,250006,B,2024-12-05_12h10.00.448,EPIDM,2023.1.2,60.04087258480085,
5300.jpg,2372.jpg,1 Point,1 Point,333 points,PS2_L6.csv,,,,,,,,,,,,,,,,,,,,,,,,,,,,,0,5,5,5,0,11,11,11,,,,,,,,,,,,,,,,,,,1841.3758319999906,p,0.6433898750110529,1842.0960649999906,,,,,,250006,B,2024-12-05_12h10.00.448,EPIDM,2023.1.2,60.04087258480085,
2749.jpg,7282.jpg,3 Points,3 Points,336 points,PS2_L6.csv,,,,,,,,,,,,,,,,,,,,,,,,,,,,,0,5,5,5,0,12,12,12,,,,,,,,,,,,,,,,,,,1846.3459537079907,q,0.8895202510029776,1847.306843207989,,,,,,250006,B,2024-12-05_12h10.00.448,EPIDM,2023.1.2,60.04087258480085,
3130.jpg,3500.jpg,4 Points,4 Points,340 points,PS2_L6.csv,,,,,,,,,,,,,,,,,,,,,,,,,,,,,0,5,5,5,0,13,13,13,,,,,,,,,,,,,,,,,,,1851.5532566670008,q,0.7229539580002893,1852.3553655419964,4,0.597738833996118,,,,250006,B,2024-12-05_12h10.00.448,EPIDM,2023.1.2,60.04087258480085,
6312.jpg,3230.jpg,2 Points,2 Points,342 points,PS2_L6.csv,,,,,,,,,,,,,,,,,,,,,,,,,,,,,0,5,5,5,0,14,14,14,,,,,,,,,,,,,,,,,,,1857.253646082987,q,1.0055218749912456,1858.3216167079954,,,,,,250006,B,2024-12-05_12h10.00.448,EPIDM,2023.1.2,60.04087258480085,
2597.jpg,5870.jpg,5 Points,5 Points,347 points,PS2_L6.csv,,,,,,,,,,,,,,,,,,,,,,,,,,,,,0,5,5,5,0,15,15,15,,,,,,,,,,,,,,,,,,,1862.5786209169892,q,0.05724445899249986,1862.7107393749902,,,,,,250006,B,2024-12-05_12h10.00.448,EPIDM,2023.1.2,60.04087258480085,
8033.jpg,7270.jpg,3 Points,3 Points,350 points,PS2_L6.csv,,,,,,,,,,,,,,,,,,,,,,,,,,,,,0,5,5,5,0,16,16,16,,,,,,,,,,,,,,,,,,,1866.9587134579924,q,0.5410168759990484,1867.5682399579964,,,,,,250006,B,2024-12-05_12h10.00.448,EPIDM,2023.1.2,60.04087258480085,
3170.jpg,6560.jpg,2 Points,2 Points,352 points,PS2_L6.csv,,,,,,,,,,,,,,,,,,,,,,,,,,,,,0,5,5,5,0,17,17,17,,,,,,,,,,,,,,,,,,,1871.8118540419964,q,0.8791820839978755,1872.7599172499904,,,,,,250006,B,2024-12-05_12h10.00.448,EPIDM,2023.1.2,60.04087258480085,
6242.jpg,F034.jpg,4 Points,4 Points,356 points,PS2_L6.csv,,,,,,,,,,,,,,,,,,,,,,,,,,,,,0,5,5,5,0,18,18,18,,,,,,,,,,,,,,,,,,,1877.0102883749933,q,0.6962288759968942,1877.8162066669902,,,,,,250006,B,2024-12-05_12h10.00.448,EPIDM,2023.1.2,60.04087258480085,
2485.jpg,7350.jpg,0 Points,0 Points,356 points,PS2_L6.csv,,,,,,,,,,,,,,,,,,,,,,,,,,,,,0,5,5,5,0,19,19,19,,,,,,,,,,,,,,,,,,,1882.0281138329883,p,0.31968154199421406,1882.4207842920005,,,,,,250006,B,2024-12-05_12h10.00.448,EPIDM,2023.1.2,60.04087258480085,
2900.jpg,1101.jpg,3 Points,3 Points,359 points,PS2_L6.csv,,,,,,,,,,,,,,,,,,,,,,,,,,,,,0,5,5,5,0,20,20,20,,,,,,,,,,,,,,,,,,,1886.6554537919874,p,0.6606597500067437,1887.3866093329998,,,,,,250006,B,2024-12-05_12h10.00.448,EPIDM,2023.1.2,60.04087258480085,
7002.jpg,4660.jpg,4 Points,4 Points,363 points,PS2_L6.csv,,,,,,,,,,,,,,,,,,,,,,,,,,,,,0,5,5,5,0,21,21,21,,,,,,,,,,,,,,,,,,,1891.628696374988,p,1.0936663339962251,1892.7978000829899,,,,,,250006,B,2024-12-05_12h10.00.448,EPIDM,2023.1.2,60.04087258480085,
A025.jpg,1051.jpg,0 Points,0 Points,363 points,PS2_L6.csv,,,,,,,,,,,,,,,,,,,,,,,,,,,,,0,5,5,5,0,22,22,22,,,,,,,,,,,,,,,,,,,1897.0407923329913,q,1.3938764589984203,1898.5499684169918,,,,,,250006,B,2024-12-05_12h10.00.448,EPIDM,2023.1.2,60.04087258480085,
4510.jpg,2230.jpg,5 Points,5 Points,368 points,PS2_L6.csv,,,,,,,,,,,,,,,,,,,,,,,,,,,,,0,5,5,5,0,23,23,23,,,,,,,,,,,,,,,,,,,1902.7459609169891,q,0.8319232919893693,1903.661960582991,,,1914.1530561669933,space,2.3463771249953425,250006,B,2024-12-05_12h10.00.448,EPIDM,2023.1.2,60.04087258480085,
2383.jpg,1616.jpg,2 Points,2 Points,370 points,PS2_L7.csv,,,,,,,,,,,,,,,,,,,,,,,,,,,,,0,6,6,6,0,0,0,0,,,,,,,,,,,,,,,,,,,1919.8342470829957,p,1.119401083997218,1921.0240972079919,,,,,,250006,B,2024-12-05_12h10.00.448,EPIDM,2023.1.2,60.04087258480085,
1310.jpg,3181.jpg,4 Points,4 Points,374 points,PS2_L7.csv,,,,,,,,,,,,,,,,,,,,,,,,,,,,,0,6,6,6,0,1,1,1,,,,,,,,,,,,,,,,,,,1925.2619544579939,p,0.3636490839999169,1925.6827884999948,4,0.6936410420021275,,,,250006,B,2024-12-05_12h10.00.448,EPIDM,2023.1.2,60.04087258480085,
7289.jpg,4534.jpg,0 Points,0 Points,374 points,PS2_L7.csv,,,,,,,,,,,,,,,,,,,,,,,,,,,,,0,6,6,6,0,2,2,2,,,,,,,,,,,,,,,,,,,1930.7033147499897,p,0.5708756669919239,1931.3422092499968,,,,,,250006,B,2024-12-05_12h10.00.448,EPIDM,2023.1.2,60.04087258480085,
6010.jpg,7361.jpg,2 Points,2 Points,376 points,PS2_L7.csv,,,,,,,,,,,,,,,,,,,,,,,,,,,,,0,6,6,6,0,3,3,3,,,,,,,,,,,,,,,,,,,1935.583429374994,q,0.5542107500077691,1936.2185295829986,,,,,,250006,B,2024-12-05_12h10.00.448,EPIDM,2023.1.2,60.04087258480085,
2661.jpg,2870.jpg,5 Points,5 Points,381 points,PS2_L7.csv,,,,,,,,,,,,,,,,,,,,,,,,,,,,,0,6,6,6,0,4,4,4,,,,,,,,,,,,,,,,,,,1940.4661182079872,q,0.5423655420017894,1941.0728619169968,,,,,,250006,B,2024-12-05_12h10.00.448,EPIDM,2023.1.2,60.04087258480085,
7220.jpg,8090.jpg,2 Points,2 Points,383 points,PS2_L7.csv,,,,,,,,,,,,,,,,,,,,,,,,,,,,,0,6,6,6,0,5,5,5,,,,,,,,,,,,,,,,,,,1945.3330677919876,p,0.6603089590062154,1946.0680876249971,,,,,,250006,B,2024-12-05_12h10.00.448,EPIDM,2023.1.2,60.04087258480085,
9140.jpg,2810.jpg,3 Points,3 Points,386 points,PS2_L7.csv,,,,,,,,,,,,,,,,,,,,,,,,,,,,,0,6,6,6,0,6,6,6,,,,,,,,,,,,,,,,,,,1950.3232302499964,q,0.7750552090001293,1951.1623248749966,,,,,,250006,B,2024-12-05_12h10.00.448,EPIDM,2023.1.2,60.04087258480085,
2516.jpg,8500.jpg,4 Points,4 Points,390 points,PS2_L7.csv,,,,,,,,,,,,,,,,,,,,,,,,,,,,,0,6,6,6,0,7,7,7,,,,,,,,,,,,,,,,,,,1955.415658375001,p,0.7369749170029536,1956.2286910830007,,,,,,250006,B,2024-12-05_12h10.00.448,EPIDM,2023.1.2,60.04087258480085,
9070.jpg,9420.jpg,2 Points,2 Points,392 points,PS2_L7.csv,,,,,,,,,,,,,,,,,,,,,,,,,,,,,0,6,6,6,0,8,8,8,,,,,,,,,,,,,,,,,,,1960.4858148749918,q,0.23552054200263228,1960.800234208,,,,,,250006,B,2024-12-05_12h10.00.448,EPIDM,2023.1.2,60.04087258480085,
6561.jpg,1525.jpg,2 Points,2 Points,394 points,PS2_L7.csv,,,,,,,,,,,,,,,,,,,,,,,,,,,,,0,6,6,6,0,9,9,9,,,,,,,,,,,,,,,,,,,1965.0360558749962,q,0.9803661670011934,1966.0713479580008,,,,,,250006,B,2024-12-05_12h10.00.448,EPIDM,2023.1.2,60.04087258480085,
7175.jpg,7490.jpg,2 Points,2 Points,396 points,PS2_L7.csv,,,,,,,,,,,,,,,,,,,,,,,,,,,,,0,6,6,6,0,10,10,10,,,,,,,,,,,,,,,,,,,1970.3285050419945,q,0.888157167006284,1971.2891474579956,,,,,,250006,B,2024-12-05_12h10.00.448,EPIDM,2023.1.2,60.04087258480085,
8010.jpg,2630.jpg,0 Points,0 Points,396 points,PS2_L7.csv,,,,,,,,,,,,,,,,,,,,,,,,,,,,,0,6,6,6,0,11,11,11,,,,,,,,,,,,,,,,,,,1975.5413596669969,p,0.4906541669915896,1976.1160923749994,,,,,,250006,B,2024-12-05_12h10.00.448,EPIDM,2023.1.2,60.04087258480085,
F174.jpg,9404.jpg,5 Points,5 Points,401 points,PS2_L7.csv,,,,,,,,,,,,,,,,,,,,,,,,,,,,,0,6,6,6,0,12,12,12,,,,,,,,,,,,,,,,,,,1980.364983416992,q,0.9397752510121791,1981.4202129579935,,,,,,250006,B,2024-12-05_12h10.00.448,EPIDM,2023.1.2,60.04087258480085,
2692.jpg,8231.jpg,4 Points,4 Points,405 points,PS2_L7.csv,,,,,,,,,,,,,,,,,,,,,,,,,,,,,0,6,6,6,0,13,13,13,,,,,,,,,,,,,,,,,,,1985.6291120829992,p,1.2035347500059288,1986.932285457995,4,1.0091353759926278,,,,250006,B,2024-12-05_12h10.00.448,EPIDM,2023.1.2,60.04087258480085,
5994.jpg,5390.jpg,0 Points,0 Points,405 points,PS2_L7.csv,,,,,,,,,,,,,,,,,,,,,,,,,,,,,0,6,6,6,0,14,14,14,,,,,,,,,,,,,,,,,,,1992.2146044580004,p,0.841122624988202,1993.1095951249881,,,,,,250006,B,2024-12-05_12h10.00.448,EPIDM,2023.1.2,60.04087258480085,
9560.jpg,3071.jpg,1 Point,1 Point,406 points,PS2_L7.csv,,,,,,,,,,,,,,,,,,,,,,,,,,,,,0,6,6,6,0,15,15,15,,,,,,,,,,,,,,,,,,,1997.3792809169972,p,0.8682295419857837,1998.3224768329965,,,,,,250006,B,2024-12-05_12h10.00.448,EPIDM,2023.1.2,60.04087258480085,
9330.jpg,3015.jpg,5 Points,5 Points,411 points,PS2_L7.csv,,,,,,,,,,,,,,,,,,,,,,,,,,,,,0,6,6,6,0,16,16,16,,,,,,,,,,,,,,,,,,,2002.5738246249966,q,0.6495128749957075,2003.2977137919952,,,,,,250006,B,2024-12-05_12h10.00.448,EPIDM,2023.1.2,60.04087258480085,
2389.jpg,7320.jpg,0 Points,0 Points,411 points,PS2_L7.csv,,,,,,,,,,,,,,,,,,,,,,,,,,,,,0,6,6,6,0,17,17,17,,,,,,,,,,,,,,,,,,,2007.5512916250009,q,0.3278920839948114,2007.9526762919995,,,,,,250006,B,2024-12-05_12h10.00.448,EPIDM,2023.1.2,60.04087258480085,
6570.1.jpg,9432.jpg,5 Points,5 Points,416 points,PS2_L7.csv,,,,,,,,,,,,,,,,,,,,,,,,,,,,,0,6,6,6,0,18,18,18,,,,,,,,,,,,,,,,,,,2012.1882231669879,p,0.7403659999981755,2012.9996702919889,,,,,,250006,B,2024-12-05_12h10.00.448,EPIDM,2023.1.2,60.04087258480085,
9452.jpg,7184.jpg,4 Points,4 Points,420 points,PS2_L7.csv,,,,,,,,,,,,,,,,,,,,,,,,,,,,,0,6,6,6,0,19,19,19,,,,,,,,,,,,,,,,,,,2017.2414539579913,q,0.3421605420007836,2017.6523994169984,,,,,,250006,B,2024-12-05_12h10.00.448,EPIDM,2023.1.2,60.04087258480085,
5120.jpg,5520.jpg,2 Points,2 Points,422 points,PS2_L7.csv,,,,,,,,,,,,,,,,,,,,,,,,,,,,,0,6,6,6,0,20,20,20,,,,,,,,,,,,,,,,,,,2021.907308291993,p,0.620115124998847,2022.599180582998,,,,,,250006,B,2024-12-05_12h10.00.448,EPIDM,2023.1.2,60.04087258480085,
5970.jpg,3300.jpg,0 Points,0 Points,422 points,PS2_L7.csv,,,,,,,,,,,,,,,,,,,,,,,,,,,,,0,6,6,6,0,21,21,21,,,,,,,,,,,,,,,,,,,2026.8402430419956,p,0.4885167090105824,2027.407447791993,,,,,,250006,B,2024-12-05_12h10.00.448,EPIDM,2023.1.2,60.04087258480085,
7620.jpg,5395.jpg,1 Point,1 Point,423 points,PS2_L7.csv,,,,,,,,,,,,,,,,,,,,,,,,,,,,,0,6,6,6,0,22,22,22,,,,,,,,,,,,,,,,,,,2031.6482803749968,q,0.1505650839972077,2031.8560484999907,,,,,,250006,B,2024-12-05_12h10.00.448,EPIDM,2023.1.2,60.04087258480085,
P019.jpg,F158.jpg,3 Points,3 Points,426 points,PS2_L7.csv,,,,,,,,,,,,,,,,,,,,,,,,,,,,,0,6,6,6,0,23,23,23,,,,,,,,,,,,,,,,,,,2036.1310807080008,q,0.7464761250012089,2037.0135598329944,,,2047.4090408749908,space,2.165299458996742,250006,B,2024-12-05_12h10.00.448,EPIDM,2023.1.2,60.04087258480085,
2620.jpg,2594.jpg,0 Points,0 Points,426 points,PS2_L8.csv,,,,,,,,,,,,,,,,,,,,,,,,,,,,,0,7,7,7,0,0,0,0,,,,,,,,,,,,,,,,,,,2052.892237957989,q,0.8178842079942115,2053.815878249996,,,,,,250006,B,2024-12-05_12h10.00.448,EPIDM,2023.1.2,60.04087258480085,
F369.jpg,3100.jpg,2 Points,2 Points,428 points,PS2_L8.csv,,,,,,,,,,,,,,,,,,,,,,,,,,,,,0,7,7,7,0,1,1,1,,,,,,,,,,,,,,,,,,,2058.0469364169985,q,1.0867387920006877,2059.2328950419906,2,0.6321451249968959,,,,250006,B,2024-12-05_12h10.00.448,EPIDM,2023.1.2,60.04087258480085,
1052.jpg,1201.jpg,3 Points,3 Points,431 points,PS2_L8.csv,,,,,,,,,,,,,,,,,,,,,,,,,,,,,0,7,7,7,0,2,2,2,,,,,,,,,,,,,,,,,,,2064.1870585829893,p,1.0021300419903127,2065.2953640829946,,,,,,250006,B,2024-12-05_12h10.00.448,EPIDM,2023.1.2,60.04087258480085,
2606.jpg,2480.jpg,1 Point,1 Point,432 points,PS2_L8.csv,,,,,,,,,,,,,,,,,,,,,,,,,,,,,0,7,7,7,0,3,3,3,,,,,,,,,,,,,,,,,,,2069.507039624994,q,0.946286374994088,2070.520678874993,,,,,,250006,B,2024-12-05_12h10.00.448,EPIDM,2023.1.2,60.04087258480085,
9594.jpg,1080.jpg,4 Points,4 Points,436 points,PS2_L8.csv,,,,,,,,,,,,,,,,,,,,,,,,,,,,,0,7,7,7,0,4,4,4,,,,,,,,,,,,,,,,,,,2074.7659283749963,q,0.41533362500194926,2075.2610203749937,,,,,,250006,B,2024-12-05_12h10.00.448,EPIDM,2023.1.2,60.04087258480085,
4770.jpg,4275.jpg,3 Points,3 Points,439 points,PS2_L8.csv,,,,,,,,,,,,,,,,,,,,,,,,,,,,,0,7,7,7,0,5,5,5,,,,,,,,,,,,,,,,,,,2079.5089815829997,p,0.46386366699880455,2080.0494382920006,,,,,,250006,B,2024-12-05_12h10.00.448,EPIDM,2023.1.2,60.04087258480085,
P077.jpg,A041.jpg,1 Point,1 Point,440 points,PS2_L8.csv,,,,,,,,,,,,,,,,,,,,,,,,,,,,,0,7,7,7,0,6,6,6,,,,,,,,,,,,,,,,,,,2084.2883463329927,q,0.6449556669977028,2085.0780569579947,,,,,,250006,B,2024-12-05_12h10.00.448,EPIDM,2023.1.2,60.04087258480085,
6550.jpg,9582.jpg,5 Points,5 Points,445 points,PS2_L8.csv,,,,,,,,,,,,,,,,,,,,,,,,,,,,,0,7,7,7,0,7,7,7,,,,,,,,,,,,,,,,,,,2089.254798707989,q,1.1902365010028007,2090.5576181669894,,,,,,250006,B,2024-12-05_12h10.00.448,EPIDM,2023.1.2,60.04087258480085,
8040.jpg,7185.jpg,1 Point,1 Point,446 points,PS2_L8.csv,,,,,,,,,,,,,,,,,,,,,,,,,,,,,0,7,7,7,0,8,8,8,,,,,,,,,,,,,,,,,,,2094.7614189999877,q,1.5790089170041028,2096.4211025419936,,,,,,250006,B,2024-12-05_12h10.00.448,EPIDM,2023.1.2,60.04087258480085,
P233.jpg,3060.jpg,1 Point,1 Point,447 points,PS2_L8.csv,,,,,,,,,,,,,,,,,,,,,,,,,,,,,0,7,7,7,0,9,9,9,,,,,,,,,,,,,,,,,,,2100.679236291995,q,1.5492835839977488,2102.3380835829885,,,,,,250006,B,2024-12-05_12h10.00.448,EPIDM,2023.1.2,60.04087258480085,
1090.jpg,P217.jpg,5 Points,5 Points,452 points,PS2_L8.csv,,,,,,,,,,,,,,,,,,,,,,,,,,,,,0,7,7,7,0,10,10,10,,,,,,,,,,,,,,,,,,,2106.5416247079993,p,0.9749060839967569,2107.6584440000006,,,,,,250006,B,2024-12-05_12h10.00.448,EPIDM,2023.1.2,60.04087258480085,
9405.jpg,6250.2.jpg,3 Points,3 Points,455 points,PS2_L8.csv,,,,,,,,,,,,,,,,,,,,,,,,,,,,,0,7,7,7,0,11,11,11,,,,,,,,,,,,,,,,,,,2111.840585999991,q,0.8762999589962419,2112.8234556669922,,,,,,250006,B,2024-12-05_12h10.00.448,EPIDM,2023.1.2,60.04087258480085,
1610.jpg,F203.jpg,0 Points,0 Points,455 points,PS2_L8.csv,,,,,,,,,,,,,,,,,,,,,,,,,,,,,0,7,7,7,0,12,12,12,,,,,,,,,,,,,,,,,,,2117.0373401249963,q,0.6233711249951739,2117.7766705419926,,,,,,250006,B,2024-12-05_12h10.00.448,EPIDM,2023.1.2,60.04087258480085,
P222.jpg,9401.jpg,2 Points,2 Points,457 points,PS2_L8.csv,,,,,,,,,,,,,,,,,,,,,,,,,,,,,0,7,7,7,0,13,13,13,,,,,,,,,,,,,,,,,,,2121.977769374993,p,0.8988523329899181,2122.983598791994,2,0.8605427500006044,,,,250006,B,2024-12-05_12h10.00.448,EPIDM,2023.1.2,60.04087258480085,
5471.jpg,7352.jpg,2 Points,2 Points,459 points,PS2_L8.csv,,,,,,,,,,,,,,,,,,,,,,,,,,,,,0,7,7,7,0,14,14,14,,,,,,,,,,,,,,,,,,,2128.14069583299,q,0.8714973750029458,2129.078442416998,,,,,,250006,B,2024-12-05_12h10.00.448,EPIDM,2023.1.2,60.04087258480085,
9042.jpg,2753.jpg,0 Points,0 Points,459 points,PS2_L8.csv,,,,,,,,,,,,,,,,,,,,,,,,,,,,,0,7,7,7,0,15,15,15,,,,,,,,,,,,,,,,,,,2133.3247514169925,q,0.5667800840019481,2133.958460875001,,,,,,250006,B,2024-12-05_12h10.00.448,EPIDM,2023.1.2,60.04087258480085,
8311.jpg,4609.jpg,2 Points,2 Points,461 points,PS2_L8.csv,,,,,,,,,,,,,,,,,,,,,,,,,,,,,0,7,7,7,0,16,16,16,,,,,,,,,,,,,,,,,,,2138.2144923749875,p,1.2137457920034649,2139.4919355829916,,,,,,250006,B,2024-12-05_12h10.00.448,EPIDM,2023.1.2,60.04087258480085,
2320.jpg,2791.jpg,4 Points,4 Points,465 points,PS2_L8.csv,,,,,,,,,,,,,,,,,,,,,,,,,,,,,0,7,7,7,0,17,17,17,,,,,,,,,,,,,,,,,,,2143.7383867079916,q,0.43209450000722427,2144.240116249988,,,,,,250006,B,2024-12-05_12h10.00.448,EPIDM,2023.1.2,60.04087258480085,
F365.jpg,3180.jpg,5 Points,5 Points,470 points,PS2_L8.csv,,,,,,,,,,,,,,,,,,,,,,,,,,,,,0,7,7,7,0,18,18,18,,,,,,,,,,,,,,,,,,,2148.4849273750006,q,0.3588793759990949,2148.950422582988,,,,,,250006,B,2024-12-05_12h10.00.448,EPIDM,2023.1.2,60.04087258480085,
9300.jpg,1050.jpg,4 Points,4 Points,474 points,PS2_L8.csv,,,,,,,,,,,,,,,,,,,,,,,,,,,,,0,7,7,7,0,19,19,19,,,,,,,,,,,,,,,,,,,2153.1766860829957,q,0.3698739579995163,2153.6122074999876,,,,,,250006,B,2024-12-05_12h10.00.448,EPIDM,2023.1.2,60.04087258480085,
6150.jpg,2206.jpg,0 Points,0 Points,474 points,PS2_L8.csv,,,,,,,,,,,,,,,,,,,,,,,,,,,,,0,7,7,7,0,20,20,20,,,,,,,,,,,,,,,,,,,2157.8670654169982,q,0.3599719999911031,2158.296659082989,,,,,,250006,B,2024-12-05_12h10.00.448,EPIDM,2023.1.2,60.04087258480085,
6260.jpg,3062.jpg,3 Points,3 Points,477 points,PS2_L8.csv,,,,,,,,,,,,,,,,,,,,,,,,,,,,,0,7,7,7,0,21,21,21,,,,,,,,,,,,,,,,,,,2162.5340336669906,p,0.5085225419898052,2163.1134388329956,,,,,,250006,B,2024-12-05_12h10.00.448,EPIDM,2023.1.2,60.04087258480085,
6571.jpg,P237.jpg,2 Points,2 Points,479 points,PS2_L8.csv,,,,,,,,,,,,,,,,,,,,,,,,,,,,,0,7,7,7,0,22,22,22,,,,,,,,,,,,,,,,,,,2167.3640330419876,q,0.18261654199159238,2167.652980999992,,,,,,250006,B,2024-12-05_12h10.00.448,EPIDM,2023.1.2,60.04087258480085,
7283.jpg,1720.jpg,4 Points,4 Points,483 points,PS2_L8.csv,,,,,,,,,,,,,,,,,,,,,,,,,,,,,0,7,7,7,0,23,23,23,,,,,,,,,,,,,,,,,,,2171.8567746670014,p,0.23467166699992958,2172.1644912499905,,,2182.615799332998,space,2.3460827079979936,250006,B,2024-12-05_12h10.00.448,EPIDM,2023.1.2,60.04087258480085,
3160.jpg,6210.jpg,1 Point,1 Point,484 points,PS2_L9.csv,,,,,,,,,,,,,,,,,,,,,,,,,,,,,0,8,8,8,0,0,0,0,,,,,,,,,,,,,,,,,,,2188.28686579199,q,0.6830722919985419,2189.049366082996,,,,,,250006,B,2024-12-05_12h10.00.448,EPIDM,2023.1.2,60.04087258480085,
2100.jpg,7205.jpg,5 Points,5 Points,489 points,PS2_L9.csv,,,,,,,,,,,,,,,,,,,,,,,,,,,,,0,8,8,8,0,1,1,1,,,,,,,,,,,,,,,,,,,2193.288694624993,p,0.3366814170003636,2193.700773042001,5,0.5514659589971416,,,,250006,B,2024-12-05_12h10.00.448,EPIDM,2023.1.2,60.04087258480085,
9110.jpg,3051.jpg,1 Point,1 Point,490 points,PS2_L9.csv,,,,,,,,,,,,,,,,,,,,,,,,,,,,,0,8,8,8,0,2,2,2,,,,,,,,,,,,,,,,,,,2198.5928369169997,p,0.7211512919893721,2199.398166999992,,,,,,250006,B,2024-12-05_12h10.00.448,EPIDM,2023.1.2,60.04087258480085,
9101.jpg,9571.jpg,2 Points,2 Points,492 points,PS2_L9.csv,,,,,,,,,,,,,,,,,,,,,,,,,,,,,0,8,8,8,0,3,3,3,,,,,,,,,,,,,,,,,,,2203.6387879999966,p,0.40277424998930655,2204.1179129169905,,,,,,250006,B,2024-12-05_12h10.00.448,EPIDM,2023.1.2,60.04087258480085,
5410.jpg,1450.jpg,5 Points,5 Points,497 points,PS2_L9.csv,,,,,,,,,,,,,,,,,,,,,,,,,,,,,0,8,8,8,0,4,4,4,,,,,,,,,,,,,,,,,,,2208.362270749989,q,0.4155717499961611,2208.8398977079923,,,,,,250006,B,2024-12-05_12h10.00.448,EPIDM,2023.1.2,60.04087258480085,
F149.jpg,3030.jpg,0 Points,0 Points,497 points,PS2_L9.csv,,,,,,,,,,,,,,,,,,,,,,,,,,,,,0,8,8,8,0,5,5,5,,,,,,,,,,,,,,,,,,,2213.0967367919948,q,0.3852635839866707,2213.58895949999,,,,,,250006,B,2024-12-05_12h10.00.448,EPIDM,2023.1.2,60.04087258480085,
3266.jpg,7360.jpg,1 Point,1 Point,498 points,PS2_L9.csv,,,,,,,,,,,,,,,,,,,,,,,,,,,,,0,8,8,8,0,6,6,6,,,,,,,,,,,,,,,,,,,2217.7997519169876,q,0.37013254199700896,2218.2393242499966,,,,,,250006,B,2024-12-05_12h10.00.448,EPIDM,2023.1.2,60.04087258480085,
5660.jpg,5201.jpg,0 Points,0 Points,498 points,PS2_L9.csv,,,,,,,,,,,,,,,,,,,,,,,,,,,,,0,8,8,8,0,7,7,7,,,,,,,,,,,,,,,,,,,2222.4880137500004,p,0.4569109589938307,2223.014105082999,,,,,,250006,B,2024-12-05_12h10.00.448,EPIDM,2023.1.2,60.04087258480085,
1945.jpg,2800.jpg,4 Points,4 Points,502 points,PS2_L9.csv,,,,,,,,,,,,,,,,,,,,,,,,,,,,,0,8,8,8,0,8,8,8,,,,,,,,,,,,,,,,,,,2227.2652293329884,p,0.535633458988741,2227.8722022500006,,,,,,250006,B,2024-12-05_12h10.00.448,EPIDM,2023.1.2,60.04087258480085,
3000.jpg,6200.jpg,5 Points,5 Points,507 points,PS2_L9.csv,,,,,,,,,,,,,,,,,,,,,,,,,,,,,0,8,8,8,0,9,9,9,,,,,,,,,,,,,,,,,,,2232.1193497499917,q,0.3140874579985393,2232.500376291995,,,,,,250006,B,2024-12-05_12h10.00.448,EPIDM,2023.1.2,60.04087258480085,
2215.jpg,2512.jpg,1 Point,1 Point,508 points,PS2_L9.csv,,,,,,,,,,,,,,,,,,,,,,,,,,,,,0,8,8,8,0,10,10,10,,,,,,,,,,,,,,,,,,,2236.7555190419953,q,0.28480279199720826,2237.1133366669965,,,,,,250006,B,2024-12-05_12h10.00.448,EPIDM,2023.1.2,60.04087258480085,
5460.jpg,5800.jpg,0 Points,0 Points,508 points,PS2_L9.csv,,,,,,,,,,,,,,,,,,,,,,,,,,,,,0,8,8,8,0,11,11,11,,,,,,,,,,,,,,,,,,,2241.35451333299,p,1.5024507920024917,2242.9444035419874,,,,,,250006,B,2024-12-05_12h10.00.448,EPIDM,2023.1.2,60.04087258480085,
3061.jpg,2717.jpg,4 Points,4 Points,512 points,PS2_L9.csv,,,,,,,,,,,,,,,,,,,,,,,,,,,,,0,8,8,8,0,12,12,12,,,,,,,,,,,,,,,,,,,2247.189445291995,p,0.7390559999912512,2248.000054291988,,,,,,250006,B,2024-12-05_12h10.00.448,EPIDM,2023.1.2,60.04087258480085,
7380.jpg,1220.jpg,1 Point,1 Point,513 points,PS2_L9.csv,,,,,,,,,,,,,,,,,,,,,,,,,,,,,0,8,8,8,0,13,13,13,,,,,,,,,,,,,,,,,,,2252.2414392079954,p,1.0628133339923806,2253.365787457995,1,0.5361535010015359,,,,250006,B,2024-12-05_12h10.00.448,EPIDM,2023.1.2,60.04087258480085,
1740.jpg,7480.jpg,0 Points,0 Points,513 points,PS2_L9.csv,,,,,,,,,,,,,,,,,,,,,,,,,,,,,0,8,8,8,0,14,14,14,,,,,,,,,,,,,,,,,,,2258.224446124994,q,0.4403575009928318,2258.7278576249955,,,,,,250006,B,2024-12-05_12h10.00.448,EPIDM,2023.1.2,60.04087258480085,
7285.jpg,4233.jpg,5 Points,5 Points,518 points,PS2_L9.csv,,,,,,,,,,,,,,,,,,,,,,,,,,,,,0,8,8,8,0,15,15,15,,,,,,,,,,,,,,,,,,,2262.983306707989,p,1.1389492919988697,2264.1981711249973,,,,,,250006,B,2024-12-05_12h10.00.448,EPIDM,2023.1.2,60.04087258480085,
6830.jpg,6212.jpg,4 Points,4 Points,522 points,PS2_L9.csv,,,,,,,,,,,,,,,,,,,,,,,,,,,,,0,8,8,8,0,16,16,16,,,,,,,,,,,,,,,,,,,2268.4467797079997,q,1.4256118750054156,2269.9401284579944,,,,,,250006,B,2024-12-05_12h10.00.448,EPIDM,2023.1.2,60.04087258480085,
7830.jpg,2499.jpg,3 Points,3 Points,525 points,PS2_L9.csv,,,,,,,,,,,,,,,,,,,,,,,,,,,,,0,8,8,8,0,17,17,17,,,,,,,,,,,,,,,,,,,2274.189864999993,q,0.017693332993076183,2274.279060707995,,,,,,250006,B,2024-12-05_12h10.00.448,EPIDM,2023.1.2,60.04087258480085,
9520.jpg,1931.jpg,3 Points,3 Points,528 points,PS2_L9.csv,,,,,,,,,,,,,,,,,,,,,,,,,,,,,0,8,8,8,0,18,18,18,,,,,,,,,,,,,,,,,,,2278.5409924999985,q,0.5066216249979334,2279.1052260419965,,,,,,250006,B,2024-12-05_12h10.00.448,EPIDM,2023.1.2,60.04087258480085,
9160.jpg,1200.jpg,4 Points,4 Points,532 points,PS2_L9.csv,,,,,,,,,,,,,,,,,,,,,,,,,,,,,0,8,8,8,0,19,19,19,,,,,,,,,,,,,,,,,,,2283.366211417,p,0.3052794170071138,2283.74563949999,,,,,,250006,B,2024-12-05_12h10.00.448,EPIDM,2023.1.2,60.04087258480085,
2020.jpg,1947.jpg,5 Points,5 Points,537 points,PS2_L9.csv,,,,,,,,,,,,,,,,,,,,,,,,,,,,,0,8,8,8,0,20,20,20,,,,,,,,,,,,,,,,,,,2287.9942180829967,q,0.31701933400472626,2288.386969291998,,,,,,250006,B,2024-12-05_12h10.00.448,EPIDM,2023.1.2,60.04087258480085,
4535.jpg,1811.jpg,1 Point,1 Point,538 points,PS2_L9.csv,,,,,,,,,,,,,,,,,,,,,,,,,,,,,0,8,8,8,0,21,21,21,,,,,,,,,,,,,,,,,,,2292.635839874987,p,1.9541060000046855,2294.6723292499955,,,,,,250006,B,2024-12-05_12h10.00.448,EPIDM,2023.1.2,60.04087258480085,
9910.jpg,6940.jpg,2 Points,2 Points,540 points,PS2_L9.csv,,,,,,,,,,,,,,,,,,,,,,,,,,,,,0,8,8,8,0,22,22,22,,,,,,,,,,,,,,,,,,,2298.922690374995,q,0.3491266669880133,2299.347020666988,,,,,,250006,B,2024-12-05_12h10.00.448,EPIDM,2023.1.2,60.04087258480085,
9480.jpg,9250.jpg,0 Points,0 Points,540 points,PS2_L9.csv,,,,,,,,,,,,,,,,,,,,,,,,,,,,,0,8,8,8,0,23,23,23,,,,,,,,,,,,,,,,,,,2303.6044844579883,q,0.5623375830036821,2304.221850957998,,,2314.689500875,space,1.949290791992098,250006,B,2024-12-05_12h10.00.448,EPIDM,2023.1.2,60.04087258480085,
1660.jpg,2840.jpg,2 Points,2 Points,542 points,PS2_L10.csv,,,,,,,,,,,,,,,,,,,,,,,,,,,,,0,9,9,9,0,0,0,0,,,,,,,,,,,,,,,,,,,2319.9524334169982,q,0.7505592920060735,2320.775419624988,,,,,,250006,B,2024-12-05_12h10.00.448,EPIDM,2023.1.2,60.04087258480085,
2691.jpg,7640.jpg,0 Points,0 Points,542 points,PS2_L10.csv,,,,,,,,,,,,,,,,,,,,,,,,,,,,,0,9,9,9,0,1,1,1,,,,,,,,,,,,,,,,,,,2325.022730083001,p,1.1356428750004852,2326.223637957999,0,0.6210069170047063,,,,250006,B,2024-12-05_12h10.00.448,EPIDM,2023.1.2,60.04087258480085,
9180.jpg,9046.jpg,3 Points,3 Points,545 points,PS2_L10.csv,,,,,,,,,,,,,,,,,,,,,,,,,,,,,0,9,9,9,0,2,2,2,,,,,,,,,,,,,,,,,,,2331.162088792,q,0.7884707920020446,2332.0188399999897,,,,,,250006,B,2024-12-05_12h10.00.448,EPIDM,2023.1.2,60.04087258480085,
8041.jpg,2271.jpg,2 Points,2 Points,547 points,PS2_L10.csv,,,,,,,,,,,,,,,,,,,,,,,,,,,,,0,9,9,9,0,3,3,3,,,,,,,,,,,,,,,,,,,2336.264572916989,q,0.3578101669991156,2336.6903044169885,,,,,,250006,B,2024-12-05_12h10.00.448,EPIDM,2023.1.2,60.04087258480085,
1661.jpg,1321.jpg,3 Points,3 Points,550 points,PS2_L10.csv,,,,,,,,,,,,,,,,,,,,,,,,,,,,,0,9,9,9,0,4,4,4,,,,,,,,,,,,,,,,,,,2340.9429904169956,q,0.5268020419898676,2341.530501292,,,,,,250006,B,2024-12-05_12h10.00.448,EPIDM,2023.1.2,60.04087258480085,
9430.jpg,3010.jpg,5 Points,5 Points,555 points,PS2_L10.csv,,,,,,,,,,,,,,,,,,,,,,,,,,,,,0,9,9,9,0,5,5,5,,,,,,,,,,,,,,,,,,,2345.7784879999963,p,0.21027150000736583,2346.048722624997,,,,,,250006,B,2024-12-05_12h10.00.448,EPIDM,2023.1.2,60.04087258480085,
2616.jpg,7238.jpg,4 Points,4 Points,559 points,PS2_L10.csv,,,,,,,,,,,,,,,,,,,,,,,,,,,,,0,9,9,9,0,6,6,6,,,,,,,,,,,,,,,,,,,2350.3044082080014,q,0.22947362500417512,2350.6003866249957,,,,,,250006,B,2024-12-05_12h10.00.448,EPIDM,2023.1.2,60.04087258480085,
9470.jpg,9400.jpg,3 Points,3 Points,562 points,PS2_L10.csv,,,,,,,,,,,,,,,,,,,,,,,,,,,,,0,9,9,9,0,7,7,7,,,,,,,,,,,,,,,,,,,2354.847678041988,p,0.2527711669972632,2355.160176749996,,,,,,250006,B,2024-12-05_12h10.00.448,EPIDM,2023.1.2,60.04087258480085,
8260.jpg,8280.jpg,3 Points,3 Points,565 points,PS2_L10.csv,,,,,,,,,,,,,,,,,,,,,,,,,,,,,0,9,9,9,0,8,8,8,,,,,,,,,,,,,,,,,,,2359.4112544999953,q,0.17780941700038966,2359.6467238329933,,,,,,250006,B,2024-12-05_12h10.00.448,EPIDM,2023.1.2,60.04087258480085,
9230.jpg,9181.jpg,0 Points,0 Points,565 points,PS2_L10.csv,,,,,,,,,,,,,,,,,,,,,,,,,,,,,0,9,9,9,0,9,9,9,,,,,,,,,,,,,,,,,,,2363.9079481669905,p,0.37782237499777693,2364.3574354579905,,,,,,250006,B,2024-12-05_12h10.00.448,EPIDM,2023.1.2,60.04087258480085,
6834.jpg,9120.jpg,5 Points,5 Points,570 points,PS2_L10.csv,,,,,,,,,,,,,,,,,,,,,,,,,,,,,0,9,9,9,0,10,10,10,,,,,,,,,,,,,,,,,,,2368.6019468749873,p,0.5711032919934951,2369.236564916995,,,,,,250006,B,2024-12-05_12h10.00.448,EPIDM,2023.1.2,60.04087258480085,
2440.jpg,7351.jpg,4 Points,4 Points,574 points,PS2_L10.csv,,,,,,,,,,,,,,,,,,,,,,,,,,,,,0,9,9,9,0,11,11,11,,,,,,,,,,,,,,,,,,,2373.504135957992,p,0.24411300000792835,2373.821212916999,,,,,,250006,B,2024-12-05_12h10.00.448,EPIDM,2023.1.2,60.04087258480085,
9280.jpg,9390.jpg,1 Point,1 Point,575 points,PS2_L10.csv,,,,,,,,,,,,,,,,,,,,,,,,,,,,,0,9,9,9,0,12,12,12,,,,,,,,,,,,,,,,,,,2378.064022791994,q,0.14884187599818688,2378.2870387919975,,,,,,250006,B,2024-12-05_12h10.00.448,EPIDM,2023.1.2,60.04087258480085,
7186.jpg,9182.jpg,2 Points,2 Points,577 points,PS2_L10.csv,,,,,,,,,,,,,,,,,,,,,,,,,,,,,0,9,9,9,0,13,13,13,,,,,,,,,,,,,,,,,,,2382.5331148330006,q,0.23194195900578052,2382.8544218749885,2,1.1149735419894569,,,,250006,B,2024-12-05_12h10.00.448,EPIDM,2023.1.2,60.04087258480085,
7820.jpg,1121.jpg,0 Points,0 Points,577 points,PS2_L10.csv,,,,,,,,,,,,,,,,,,,,,,,,,,,,,0,9,9,9,0,14,14,14,,,,,,,,,,,,,,,,,,,2388.2939002079947,q,0.2298910419922322,2388.5992124999902,,,,,,250006,B,2024-12-05_12h10.00.448,EPIDM,2023.1.2,60.04087258480085,
1110.jpg,9331.jpg,2 Points,2 Points,579 points,PS2_L10.csv,,,,,,,,,,,,,,,,,,,,,,,,,,,,,0,9,9,9,0,15,15,15,,,,,,,,,,,,,,,,,,,2392.836780582991,q,0.5675240420096088,2393.466627957998,,,,,,250006,B,2024-12-05_12h10.00.448,EPIDM,2023.1.2,60.04087258480085,
9001.jpg,9620.jpg,1 Point,1 Point,580 points,PS2_L10.csv,,,,,,,,,,,,,,,,,,,,,,,,,,,,,0,9,9,9,0,16,16,16,,,,,,,,,,,,,,,,,,,2397.7136984579993,q,0.15446691701072268,2397.938895041996,,,,,,250006,B,2024-12-05_12h10.00.448,EPIDM,2023.1.2,60.04087258480085,
5535.jpg,8210.jpg,3 Points,3 Points,583 points,PS2_L10.csv,,,,,,,,,,,,,,,,,,,,,,,,,,,,,0,9,9,9,0,17,17,17,,,,,,,,,,,,,,,,,,,2402.18310845799,p,0.20550012499734294,2402.4731624169945,,,,,,250006,B,2024-12-05_12h10.00.448,EPIDM,2023.1.2,60.04087258480085,
7950.jpg,7187.jpg,1 Point,1 Point,584 points,PS2_L10.csv,,,,,,,,,,,,,,,,,,,,,,,,,,,,,0,9,9,9,0,18,18,18,,,,,,,,,,,,,,,,,,,2406.716627624992,p,0.6952685419964837,2407.4821334169974,,,,,,250006,B,2024-12-05_12h10.00.448,EPIDM,2023.1.2,60.04087258480085,
3250.jpg,A053.jpg,3 Points,3 Points,587 points,PS2_L10.csv,,,,,,,,,,,,,,,,,,,,,,,,,,,,,0,9,9,9,0,19,19,19,,,,,,,,,,,,,,,,,,,2411.7401697919995,p,0.3198778750083875,2412.163932124997,,,,,,250006,B,2024-12-05_12h10.00.448,EPIDM,2023.1.2,60.04087258480085,
2205.jpg,3053.jpg,4 Points,4 Points,591 points,PS2_L10.csv,,,,,,,,,,,,,,,,,,,,,,,,,,,,,0,9,9,9,0,20,20,20,,,,,,,,,,,,,,,,,,,2416.3847291669954,q,0.15442904199881013,2416.648364541994,,,,,,250006,B,2024-12-05_12h10.00.448,EPIDM,2023.1.2,60.04087258480085,
5594.jpg,5750.jpg,5 Points,5 Points,596 points,PS2_L10.csv,,,,,,,,,,,,,,,,,,,,,,,,,,,,,0,9,9,9,0,21,21,21,,,,,,,,,,,,,,,,,,,2420.8632800419873,p,0.17176929199195,2421.108789457998,,,,,,250006,B,2024-12-05_12h10.00.448,EPIDM,2023.1.2,60.04087258480085,
6900.jpg,8531.jpg,4 Points,4 Points,600 points,PS2_L10.csv,,,,,,,,,,,,,,,,,,,,,,,,,,,,,0,9,9,9,0,22,22,22,,,,,,,,,,,,,,,,,,,2425.3521621669934,q,0.2675913339917315,2425.6865435419895,,,,,,250006,B,2024-12-05_12h10.00.448,EPIDM,2023.1.2,60.04087258480085,
1019.jpg,2120.jpg,0 Points,0 Points,600 points,PS2_L10.csv,,,,,,,,,,,,,,,,,,,,,,,,,,,,,0,9,9,9,0,23,23,23,,,,,,,,,,,,,,,,,,,2429.9290918749903,p,0.4261803749977844,2430.423331541999,,,2440.887317624991,space,2.307299541993416,250006,B,2024-12-05_12h10.00.448,EPIDM,2023.1.2,60.04087258480085,
