L_Scene,R_Scene,Points_L,Points_R,PtTotal,blockFile,Instructions_Loop.thisRepN,Instructions_Loop.thisTrialN,Instructions_Loop.thisN,Instructions_Loop.thisIndex,Redo_Instructions_Loop.thisRepN,Redo_Instructions_Loop.thisTrialN,Redo_Instructions_Loop.thisN,Redo_Instructions_Loop.thisIndex,Practice_Encoding_Loop.thisRepN,Practice_Encoding_Loop.thisTrialN,Practice_Encoding_Loop.thisN,Practice_Encoding_Loop.thisIndex,Practice_Response_Fail_Loop.thisRepN,Practice_Response_Fail_Loop.thisTrialN,Practice_Response_Fail_Loop.thisN,Practice_Response_Fail_Loop.thisIndex,Practice_FB_Loop.thisRepN,Practice_FB_Loop.thisTrialN,Practice_FB_Loop.thisN,Practice_FB_Loop.thisIndex,Practice_Attention_Loop.thisRepN,Practice_Attention_Loop.thisTrialN,Practice_Attention_Loop.thisN,Practice_Attention_Loop.thisIndex,Practice_EncBrk_Loop.thisRepN,Practice_EncBrk_Loop.thisTrialN,Practice_EncBrk_Loop.thisN,Practice_EncBrk_Loop.thisIndex,Encoding_Loop.thisRepN,Encoding_Loop.thisTrialN,Encoding_Loop.thisN,Encoding_Loop.thisIndex,EncStim_Loop.thisRepN,EncStim_Loop.thisTrialN,EncStim_Loop.thisN,EncStim_Loop.thisIndex,Response_Fail_Loop.thisRepN,Response_Fail_Loop.thisTrialN,Response_Fail_Loop.thisN,Response_Fail_Loop.thisIndex,FB_Loop.thisRepN,FB_Loop.thisTrialN,FB_Loop.thisN,FB_Loop.thisIndex,Attention_Loop.thisRepN,Attention_Loop.thisTrialN,Attention_Loop.thisN,Attention_Loop.thisIndex,EncBrk_Loop.thisRepN,EncBrk_Loop.thisTrialN,EncBrk_Loop.thisN,EncBrk_Loop.thisIndex,Transition_Enc.keys,Transition_Enc.rt,Encoding_Resp.started,Encoding_Resp.keys,Encoding_Resp.rt,R_Point_FB_Stim.started,Attn_resp.keys,Attn_resp.rt,Progress_Tracker.started,EncBrk_Resp.keys,EncBrk_Resp.rt,participant,Group,date,expName,psychopyVersion,frameRate,
,,,,,,,,,,,,,,,,,,,,,,,,,,,,,,,,,,,,,,,,,,,,,,,,,,,,,,,,,,space,10.981112417008262,,,,,,,,,,272593,B,2024-12-07_11h38.48.455,EPIDM,2023.1.2,None,
A060.jpg,F041.jpg,5 Points,5 Points,5 Points,,,,,,,,,,0,0,0,0,,,,,,,,,,,,,,,,,,,,,,,,,,,,,,,,,,,,,,,,,,,1049.0681314160029,p,2.4109154580219183,1051.6220659999963,,,,,,272593,B,2024-12-07_11h38.48.455,EPIDM,2023.1.2,None,
O161.jpg,1812.jpg,2 Points,2 Points,7 Points,,,,,,,,,,0,1,1,1,,,,,,,,,,,,,,,,,,,,,,,,,,,,,,,,,,,,,,,,,,,1055.803748833001,q,2.5705888340016827,1058.5123254579958,,,,,,272593,B,2024-12-07_11h38.48.455,EPIDM,2023.1.2,None,
O013.jpg,A001.jpg,3 Points,3 Points,10 Points,,,,,,,,,,0,2,2,2,,,,,,,,,,,,,,,,,,,,,,,,,,,,,,,,,,,,,,,,,,,1062.7006580000016,q,1.8105465420085238,1064.65686933299,,,,,,272593,B,2024-12-07_11h38.48.455,EPIDM,2023.1.2,None,
P036.jpg,F273.jpg,5 Points,5 Points,15 Points,,,,,,,,,,0,3,3,3,,,,,,,,,,,,,,,,,,,,,,,,,,,,,,,,,,,,,,,,,,,1068.8236564580002,q,2.8782956250215648,1071.8608749159903,,,,,,272593,B,2024-12-07_11h38.48.455,EPIDM,2023.1.2,None,
L130.jpg,2393.jpg,0 Points,0 Points,15 Points,,,,,,,,,,0,4,4,4,,,,,,,,,,,,,,,,,,,,,,,,,,,,,,,,,,,,,,,,,,,1076.011752874998,q,2.6576083330146503,1078.8110808329948,0,3.6508202080149204,,,,272593,B,2024-12-07_11h38.48.455,EPIDM,2023.1.2,None,
F279.jpg,P033.jpg,3 Points,3 Points,18 Points,,,,,,,,,,0,5,5,5,,,,,,,,,,,,,,,,,,,,,,,,,,,,,,,,,,,,,,,,,,,1086.7409674579976,p,3.153095375004341,1090.0634789999895,,,,,,272593,B,2024-12-07_11h38.48.455,EPIDM,2023.1.2,None,
A104.jpg,2593.jpg,2 Points,2 Points,20 Points,,,,,,,,,,0,6,6,6,,,,,,,,,,,,,,,,,,,,,,,,,,,,,,,,,,,,,,,,,,,1094.2100677909912,q,2.804328833008185,1097.1428284580034,,,,,,272593,B,2024-12-07_11h38.48.455,EPIDM,2023.1.2,None,
2598.jpg,2605.jpg,0 Points,0 Points,20 Points,,,,,,,,,,0,7,7,7,,,,,,,,,,,,,,,,,,,,,,,,,,,,,,,,,,,,,,,,,,,1101.3363827499998,q,2.8537564590078546,1104.2588065829914,,,,,,272593,B,2024-12-07_11h38.48.455,EPIDM,2023.1.2,None,
L005.jpg,O011.jpg,1 Points,1 Points,21 Points,,,,,,,,,,0,8,8,8,,,,,,,,,,,,,,,,,,,,,,,,,,,,,,,,,,,,,,,,,,,1108.513188375,q,2.916334583016578,1111.5664394579944,,,,,,272593,B,2024-12-07_11h38.48.455,EPIDM,2023.1.2,None,
8186.jpg,F078.jpg,2 Points,2 Points,23 Points,,,,,,,,,,0,9,9,9,,,,,,,,,,,,,,,,,,,,,,,,,,,,,,,,,,,,,,,,,,,1115.7535202500003,q,2.7156427090085344,1118.6121911249938,2,1.827968542012968,1130.7144898749975,space,4.930657791017438,272593,B,2024-12-07_11h38.48.455,EPIDM,2023.1.2,None,
,,,,,,,,,,,,,,,,,,,,,,,,,,,,,,,,,,,,,,,,,,,,,,,,,,,,,,,,,,space,6.704046291008126,,,,,,,,,,272593,B,2024-12-07_11h38.48.455,EPIDM,2023.1.2,None,
7284.jpg,8021.jpg,4 Points,4 Points,4 Points,PS2_L1.csv,,,,,,,,,,,,,,,,,,,,,,,,,,,,,0,0,0,0,0,0,0,0,,,,,,,,,,,,,,,,,,,1165.1275081249914,q,2.108297709011822,1167.3535952079983,,,,,,272593,B,2024-12-07_11h38.48.455,EPIDM,2023.1.2,None,
2214.jpg,4500.jpg,3 Points,3 Points,7 points,PS2_L1.csv,,,,,,,,,,,,,,,,,,,,,,,,,,,,,0,0,0,0,0,1,1,1,,,,,,,,,,,,,,,,,,,1171.5551362080005,q,2.177255750008044,1173.812665999998,3,1.5154693750228034,,,,272593,B,2024-12-07_11h38.48.455,EPIDM,2023.1.2,None,
1280.jpg,9402.jpg,2 Points,2 Points,9 points,PS2_L1.csv,,,,,,,,,,,,,,,,,,,,,,,,,,,,,0,0,0,0,0,2,2,2,,,,,,,,,,,,,,,,,,,1179.6531461659906,q,2.798225958002149,1182.5150836660032,,,,,,272593,B,2024-12-07_11h38.48.455,EPIDM,2023.1.2,None,
1650.jpg,2130.jpg,1 Points,1 Points,10 points,PS2_L1.csv,,,,,,,,,,,,,,,,,,,,,,,,,,,,,0,0,0,0,0,3,3,3,,,,,,,,,,,,,,,,,,,1186.7638107499952,q,3.648959291007486,1190.4901963750017,,,,,,272593,B,2024-12-07_11h38.48.455,EPIDM,2023.1.2,None,
2221.jpg,2270.jpg,2 Points,2 Points,12 points,PS2_L1.csv,,,,,,,,,,,,,,,,,,,,,,,,,,,,,0,0,0,0,0,4,4,4,,,,,,,,,,,,,,,,,,,1194.7412164580019,p,2.2238360840128735,1197.0316944160004,,,,,,272593,B,2024-12-07_11h38.48.455,EPIDM,2023.1.2,None,
9373.jpg,9410.jpg,0 Points,0 Points,12 points,PS2_L1.csv,,,,,,,,,,,,,,,,,,,,,,,,,,,,,0,0,0,0,0,5,5,5,,,,,,,,,,,,,,,,,,,1201.2842059999966,p,1.9426705000078073,1203.3006568749988,,,,,,272593,B,2024-12-07_11h38.48.455,EPIDM,2023.1.2,None,
4250.jpg,7060.jpg,5 Points,5 Points,17 points,PS2_L1.csv,,,,,,,,,,,,,,,,,,,,,,,,,,,,,0,0,0,0,0,6,6,6,,,,,,,,,,,,,,,,,,,1207.557497457994,q,2.2220950000046287,1209.848854249998,,,,,,272593,B,2024-12-07_11h38.48.455,EPIDM,2023.1.2,None,
5130.jpg,1810.jpg,3 Points,3 Points,20 points,PS2_L1.csv,,,,,,,,,,,,,,,,,,,,,,,,,,,,,0,0,0,0,0,7,7,7,,,,,,,,,,,,,,,,,,,1214.097223165998,q,2.170332292007515,1216.3410070410027,,,,,,272593,B,2024-12-07_11h38.48.455,EPIDM,2023.1.2,None,
6370.jpg,1270.jpg,4 Points,4 Points,24 points,PS2_L1.csv,,,,,,,,,,,,,,,,,,,,,,,,,,,,,0,0,0,0,0,8,8,8,,,,,,,,,,,,,,,,,,,1220.5776340000011,q,2.5877850420074537,1223.2407912079943,,,,,,272593,B,2024-12-07_11h38.48.455,EPIDM,2023.1.2,None,
5480.jpg,8200.jpg,4 Points,4 Points,28 points,PS2_L1.csv,,,,,,,,,,,,,,,,,,,,,,,,,,,,,0,0,0,0,0,9,9,9,,,,,,,,,,,,,,,,,,,1227.4886733750027,q,1.9136795410158811,1229.486537416,,,,,,272593,B,2024-12-07_11h38.48.455,EPIDM,2023.1.2,None,
2520.jpg,8503.jpg,2 Points,2 Points,30 points,PS2_L1.csv,,,,,,,,,,,,,,,,,,,,,,,,,,,,,0,0,0,0,0,10,10,10,,,,,,,,,,,,,,,,,,,1233.7338150409923,q,3.067950208002003,1236.88952099999,,,,,,272593,B,2024-12-07_11h38.48.455,EPIDM,2023.1.2,None,
5971.jpg,9912.jpg,5 Points,5 Points,35 points,PS2_L1.csv,,,,,,,,,,,,,,,,,,,,,,,,,,,,,0,0,0,0,0,11,11,11,,,,,,,,,,,,,,,,,,,1241.136766249998,p,1.1215674160048366,1242.32634637499,,,,,,272593,B,2024-12-07_11h38.48.455,EPIDM,2023.1.2,None,
7195.jpg,2487.jpg,2 Points,2 Points,37 points,PS2_L1.csv,,,,,,,,,,,,,,,,,,,,,,,,,,,,,0,0,0,0,0,12,12,12,,,,,,,,,,,,,,,,,,,1246.5778670409927,q,2.5929122080124216,1249.2488678329973,,,,,,272593,B,2024-12-07_11h38.48.455,EPIDM,2023.1.2,None,
6840.jpg,3080.jpg,1 Points,1 Points,38 points,PS2_L1.csv,,,,,,,,,,,,,,,,,,,,,,,,,,,,,0,0,0,0,0,13,13,13,,,,,,,,,,,,,,,,,,,1253.4937363749923,p,1.6127688750129892,1255.1809794159926,1,1.8892398750176653,,,,272593,B,2024-12-07_11h38.48.455,EPIDM,2023.1.2,None,
5510.jpg,2514.jpg,5 Points,5 Points,43 points,PS2_L1.csv,,,,,,,,,,,,,,,,,,,,,,,,,,,,,0,0,0,0,0,14,14,14,,,,,,,,,,,,,,,,,,,1261.3766209159949,p,2.2737785000063013,1263.7234278749966,,,,,,272593,B,2024-12-07_11h38.48.455,EPIDM,2023.1.2,None,
7170.jpg,2170.jpg,2 Points,2 Points,45 points,PS2_L1.csv,,,,,,,,,,,,,,,,,,,,,,,,,,,,,0,0,0,0,0,15,15,15,,,,,,,,,,,,,,,,,,,1267.9799284159963,p,3.111034417015617,1271.1757867499982,,,,,,272593,B,2024-12-07_11h38.48.455,EPIDM,2023.1.2,None,
6020.jpg,6300.jpg,2 Points,2 Points,47 points,PS2_L1.csv,,,,,,,,,,,,,,,,,,,,,,,,,,,,,0,0,0,0,0,16,16,16,,,,,,,,,,,,,,,,,,,1275.4132945409947,p,2.388567125002737,1277.866459249999,,,,,,272593,B,2024-12-07_11h38.48.455,EPIDM,2023.1.2,None,
1942.jpg,2890.jpg,1 Points,1 Points,48 points,PS2_L1.csv,,,,,,,,,,,,,,,,,,,,,,,,,,,,,0,0,0,0,0,17,17,17,,,,,,,,,,,,,,,,,,,1282.1123574999947,q,2.1530849170085276,1284.3284868329938,,,,,,272593,B,2024-12-07_11h38.48.455,EPIDM,2023.1.2,None,
6241.jpg,9561.jpg,3 Points,3 Points,51 points,PS2_L1.csv,,,,,,,,,,,,,,,,,,,,,,,,,,,,,0,0,0,0,0,18,18,18,,,,,,,,,,,,,,,,,,,1288.5801793749997,None,,,,,,,,272593,B,2024-12-07_11h38.48.455,EPIDM,2023.1.2,None,
4536.jpg,2280.jpg,4 Points,4 Points,55 points,PS2_L1.csv,,,,,,,,,,,,,,,,,,,,,,,,,,,,,0,0,0,0,0,19,19,19,,,,,,,,,,,,,,,,,,,1296.0788271249912,p,0.9468003340152791,1297.0977589999966,,,,,,272593,B,2024-12-07_11h38.48.455,EPIDM,2023.1.2,None,
6000.jpg,6836.jpg,4 Points,4 Points,59 points,PS2_L1.csv,,,,,,,,,,,,,,,,,,,,,,,,,,,,,0,0,0,0,0,20,20,20,,,,,,,,,,,,,,,,,,,1301.3469509999995,p,1.3661169999977574,1302.782738540991,,,,,,272593,B,2024-12-07_11h38.48.455,EPIDM,2023.1.2,None,
8232.jpg,4279.jpg,5 Points,5 Points,64 points,PS2_L1.csv,,,,,,,,,,,,,,,,,,,,,,,,,,,,,0,0,0,0,0,21,21,21,,,,,,,,,,,,,,,,,,,1307.0287160829903,q,2.900820917013334,1310.0061144999927,,,,,,272593,B,2024-12-07_11h38.48.455,EPIDM,2023.1.2,None,
2312.jpg,2722.jpg,1 Points,1 Points,65 points,PS2_L1.csv,,,,,,,,,,,,,,,,,,,,,,,,,,,,,0,0,0,0,0,22,22,22,,,,,,,,,,,,,,,,,,,1314.2522972909937,q,3.3564452920109034,1317.6789816249948,,,,,,272593,B,2024-12-07_11h38.48.455,EPIDM,2023.1.2,None,
2750.jpg,9050.jpg,4 Points,4 Points,69 points,PS2_L1.csv,,,,,,,,,,,,,,,,,,,,,,,,,,,,,0,0,0,0,0,23,23,23,,,,,,,,,,,,,,,,,,,1321.9188429999922,p,2.0342636670102365,1324.0243762909959,,,1334.519811666003,space,21.576585708011407,272593,B,2024-12-07_11h38.48.455,EPIDM,2023.1.2,None,
1113.jpg,1240.jpg,3 Points,3 Points,72 points,PS2_L2.csv,,,,,,,,,,,,,,,,,,,,,,,,,,,,,0,1,1,1,0,0,0,0,,,,,,,,,,,,,,,,,,,1359.4144234580017,q,1.2420742500107735,1360.738016000003,,,,,,272593,B,2024-12-07_11h38.48.455,EPIDM,2023.1.2,None,
8220.jpg,2410.jpg,4 Points,4 Points,76 points,PS2_L2.csv,,,,,,,,,,,,,,,,,,,,,,,,,,,,,0,1,1,1,0,1,1,1,,,,,,,,,,,,,,,,,,,1364.9713122079993,p,1.581424625008367,1366.6211183749983,4,2.1862059580162168,,,,272593,B,2024-12-07_11h38.48.455,EPIDM,2023.1.2,None,
4621.jpg,3550.jpg,2 Points,2 Points,78 points,PS2_L2.csv,,,,,,,,,,,,,,,,,,,,,,,,,,,,,0,1,1,1,0,2,2,2,,,,,,,,,,,,,,,,,,,1373.1114301249909,q,1.7523960830149008,1374.9310735409963,,,,,,272593,B,2024-12-07_11h38.48.455,EPIDM,2023.1.2,None,
2751.jpg,6313.jpg,3 Points,3 Points,81 points,PS2_L2.csv,,,,,,,,,,,,,,,,,,,,,,,,,,,,,0,1,1,1,0,3,3,3,,,,,,,,,,,,,,,,,,,1379.1837764579977,p,0.9520625410077628,1380.2021898749954,,,,,,272593,B,2024-12-07_11h38.48.455,EPIDM,2023.1.2,None,
4689.jpg,7009.jpg,5 Points,5 Points,86 points,PS2_L2.csv,,,,,,,,,,,,,,,,,,,,,,,,,,,,,0,1,1,1,0,4,4,4,,,,,,,,,,,,,,,,,,,1384.4441349159897,q,1.5472764590085717,1386.0636838749924,,,,,,272593,B,2024-12-07_11h38.48.455,EPIDM,2023.1.2,None,
6831.jpg,2141.jpg,5 Points,5 Points,91 points,PS2_L2.csv,,,,,,,,,,,,,,,,,,,,,,,,,,,,,0,1,1,1,0,5,5,5,,,,,,,,,,,,,,,,,,,1390.3306519579928,p,1.6057387080072658,1392.0093274579995,,,,,,272593,B,2024-12-07_11h38.48.455,EPIDM,2023.1.2,None,
9417.jpg,6530.jpg,1 Point,1 Point,92 points,PS2_L2.csv,,,,,,,,,,,,,,,,,,,,,,,,,,,,,0,1,1,1,0,6,6,6,,,,,,,,,,,,,,,,,,,1396.253575750001,q,2.15437508301693,1398.4765301659936,,,,,,272593,B,2024-12-07_11h38.48.455,EPIDM,2023.1.2,None,
7237.jpg,8510.jpg,4 Points,4 Points,96 points,PS2_L2.csv,,,,,,,,,,,,,,,,,,,,,,,,,,,,,0,1,1,1,0,7,7,7,,,,,,,,,,,,,,,,,,,1402.7262677909894,q,1.54536258301232,1404.3467550829955,,,,,,272593,B,2024-12-07_11h38.48.455,EPIDM,2023.1.2,None,
4608.jpg,8320.jpg,1 Point,1 Point,97 points,PS2_L2.csv,,,,,,,,,,,,,,,,,,,,,,,,,,,,,0,1,1,1,0,8,8,8,,,,,,,,,,,,,,,,,,,1408.5957771660032,q,1.7316772920021322,1410.3906181659986,,,,,,272593,B,2024-12-07_11h38.48.455,EPIDM,2023.1.2,None,
9254.jpg,9290.jpg,2 Points,2 Points,99 points,PS2_L2.csv,,,,,,,,,,,,,,,,,,,,,,,,,,,,,0,1,1,1,0,9,9,9,,,,,,,,,,,,,,,,,,,1414.645782958003,q,1.5453009580087382,1416.2571192909963,,,,,,272593,B,2024-12-07_11h38.48.455,EPIDM,2023.1.2,None,
9530.jpg,9220.jpg,1 Point,1 Point,100 points,PS2_L2.csv,,,,,,,,,,,,,,,,,,,,,,,,,,,,,0,1,1,1,0,10,10,10,,,,,,,,,,,,,,,,,,,1420.5163063329965,p,1.9468053340096958,1422.5160285409947,,,,,,272593,B,2024-12-07_11h38.48.455,EPIDM,2023.1.2,None,
2092.jpg,2210.jpg,0 Points,0 Points,100 points,PS2_L2.csv,,,,,,,,,,,,,,,,,,,,,,,,,,,,,0,1,1,1,0,11,11,11,,,,,,,,,,,,,,,,,,,1426.7967447909905,p,1.1380384580115788,1428.0007889159897,,,,,,272593,B,2024-12-07_11h38.48.455,EPIDM,2023.1.2,None,
9500.jpg,6360.jpg,1 Point,1 Point,101 points,PS2_L2.csv,,,,,,,,,,,,,,,,,,,,,,,,,,,,,0,1,1,1,0,12,12,12,,,,,,,,,,,,,,,,,,,1432.2531971659919,p,1.8739007920084987,1434.1908254159935,,,,,,272593,B,2024-12-07_11h38.48.455,EPIDM,2023.1.2,None,
2220.jpg,2010.jpg,5 Points,5 Points,106 points,PS2_L2.csv,,,,,,,,,,,,,,,,,,,,,,,,,,,,,0,1,1,1,0,13,13,13,,,,,,,,,,,,,,,,,,,1438.443738499991,q,2.602690250016167,1441.1274142079928,5,2.181642792013008,,,,272593,B,2024-12-07_11h38.48.455,EPIDM,2023.1.2,None,
5940.jpg,9411.jpg,0 Points,0 Points,106 points,PS2_L2.csv,,,,,,,,,,,,,,,,,,,,,,,,,,,,,0,1,1,1,0,14,14,14,,,,,,,,,,,,,,,,,,,1447.6216586249939,q,1.9222143330116523,1449.6129999159893,,,,,,272593,B,2024-12-07_11h38.48.455,EPIDM,2023.1.2,None,
4533.jpg,2385.jpg,3 Points,3 Points,109 points,PS2_L2.csv,,,,,,,,,,,,,,,,,,,,,,,,,,,,,0,1,1,1,0,15,15,15,,,,,,,,,,,,,,,,,,,1453.862282957998,p,1.3921115420234855,1455.3240726660006,,,,,,272593,B,2024-12-07_11h38.48.455,EPIDM,2023.1.2,None,
9340.jpg,6910.jpg,0 Points,0 Points,109 points,PS2_L2.csv,,,,,,,,,,,,,,,,,,,,,,,,,,,,,0,1,1,1,0,16,16,16,,,,,,,,,,,,,,,,,,,1459.5729606249952,p,1.6237205000215909,1461.275689749993,,,,,,272593,B,2024-12-07_11h38.48.455,EPIDM,2023.1.2,None,
8350.jpg,7190.jpg,5 Points,5 Points,114 points,PS2_L2.csv,,,,,,,,,,,,,,,,,,,,,,,,,,,,,0,1,1,1,0,17,17,17,,,,,,,,,,,,,,,,,,,1465.5188392909913,q,1.7740878330077976,1467.3762260410003,,,,,,272593,B,2024-12-07_11h38.48.455,EPIDM,2023.1.2,None,
6211.jpg,9611.jpg,3 Points,3 Points,117 points ,PS2_L2.csv,,,,,,,,,,,,,,,,,,,,,,,,,,,,,0,1,1,1,0,18,18,18,,,,,,,,,,,,,,,,,,,1471.6122722909931,p,1.314566790999379,1472.994757458,,,,,,272593,B,2024-12-07_11h38.48.455,EPIDM,2023.1.2,None,
2053.jpg,9415.jpg,4 Points,4 Points,121 points,PS2_L2.csv,,,,,,,,,,,,,,,,,,,,,,,,,,,,,0,1,1,1,0,19,19,19,,,,,,,,,,,,,,,,,,,1477.246916499993,q,1.598600917015574,1478.9019215000008,,,,,,272593,B,2024-12-07_11h38.48.455,EPIDM,2023.1.2,None,
2110.jpg,7260.jpg,5 Points,5 Points,126 points,PS2_L2.csv,,,,,,,,,,,,,,,,,,,,,,,,,,,,,0,1,1,1,0,20,20,20,,,,,,,,,,,,,,,,,,,1483.1612987909903,q,1.5235552920057671,1484.7594145829935,,,,,,272593,B,2024-12-07_11h38.48.455,EPIDM,2023.1.2,None,
2030.jpg,2495.jpg,0 Points,0 Points,126 points,PS2_L2.csv,,,,,,,,,,,,,,,,,,,,,,,,,,,,,0,1,1,1,0,21,21,21,,,,,,,,,,,,,,,,,,,1488.998128207997,q,1.9116176660172641,1490.9803138749994,,,,,,272593,B,2024-12-07_11h38.48.455,EPIDM,2023.1.2,None,
1302.jpg,2700.jpg,3 Points,3 Points,129 points,PS2_L2.csv,,,,,,,,,,,,,,,,,,,,,,,,,,,,,0,1,1,1,0,22,22,22,,,,,,,,,,,,,,,,,,,1495.2274884159997,q,3.2330226250196574,1498.5277268329955,,,,,,272593,B,2024-12-07_11h38.48.455,EPIDM,2023.1.2,None,
9010.jpg,9253.jpg,0 Points,0 Points,129 points,PS2_L2.csv,,,,,,,,,,,,,,,,,,,,,,,,,,,,,0,1,1,1,0,23,23,23,,,,,,,,,,,,,,,,,,,1502.7705639159976,q,1.6668522500112886,1504.5099671249918,,,1514.9611884579936,space,19.275391458999366,272593,B,2024-12-07_11h38.48.455,EPIDM,2023.1.2,None,
1303.jpg,2000.jpg,0 Points,0 Points,129 points,PS2_L3.csv,,,,,,,,,,,,,,,,,,,,,,,,,,,,,0,2,2,2,0,0,0,0,,,,,,,,,,,,,,,,,,,1537.5603914579988,q,1.3398853749968112,1538.957453875002,,,,,,272593,B,2024-12-07_11h38.48.455,EPIDM,2023.1.2,None,
2200.jpg,4598.jpg,1 Point,1 Point,130 points,PS2_L3.csv,,,,,,,,,,,,,,,,,,,,,,,,,,,,,0,2,2,2,0,1,1,1,,,,,,,,,,,,,,,,,,,1543.2171150409995,q,0.8263002920139115,1544.1230764999927,1,1.5175214580085594,,,,272593,B,2024-12-07_11h38.48.455,EPIDM,2023.1.2,None,
6190.jpg,3120.jpg,5 Points,5 Points,135 points,PS2_L3.csv,,,,,,,,,,,,,,,,,,,,,,,,,,,,,0,2,2,2,0,2,2,2,,,,,,,,,,,,,,,,,,,1549.9604176249995,p,0.9556126250099624,1550.998162457996,,,,,,272593,B,2024-12-07_11h38.48.455,EPIDM,2023.1.2,None,
2570.jpg,5500.jpg,3 Points,3 Points,138 points,PS2_L3.csv,,,,,,,,,,,,,,,,,,,,,,,,,,,,,0,2,2,2,0,3,3,3,,,,,,,,,,,,,,,,,,,1555.2400756659918,p,1.7002614160155645,1557.015470290993,,,,,,272593,B,2024-12-07_11h38.48.455,EPIDM,2023.1.2,None,
8460.jpg,8330.jpg,0 Points,0 Points,138 points,PS2_L3.csv,,,,,,,,,,,,,,,,,,,,,,,,,,,,,0,2,2,2,0,4,4,4,,,,,,,,,,,,,,,,,,,1561.2554754159937,q,2.02817479101941,1563.3564212499914,,,,,,272593,B,2024-12-07_11h38.48.455,EPIDM,2023.1.2,None,
9320.jpg,9007.jpg,0 Points,0 Points,138 points,PS2_L3.csv,,,,,,,,,,,,,,,,,,,,,,,,,,,,,0,2,2,2,0,5,5,5,,,,,,,,,,,,,,,,,,,1567.6128977909975,p,1.3504346250119852,1569.0346062079916,,,,,,272593,B,2024-12-07_11h38.48.455,EPIDM,2023.1.2,None,
2650.jpg,4531.jpg,5 Points,5 Points,143 points,PS2_L3.csv,,,,,,,,,,,,,,,,,,,,,,,,,,,,,0,2,2,2,0,6,6,6,,,,,,,,,,,,,,,,,,,1573.2852533330006,p,1.6716333750082413,1575.0314872909948,,,,,,272593,B,2024-12-07_11h38.48.455,EPIDM,2023.1.2,None,
4100.jpg,6570.2.jpg,3 Points,3 Points,146 points,PS2_L3.csv,,,,,,,,,,,,,,,,,,,,,,,,,,,,,0,2,2,2,0,7,7,7,,,,,,,,,,,,,,,,,,,1579.2697712910012,p,1.5333882910053944,1580.8741048329975,,,,,,272593,B,2024-12-07_11h38.48.455,EPIDM,2023.1.2,None,
3102.jpg,F032.jpg,1 Point,1 Point,147 points,PS2_L3.csv,,,,,,,,,,,,,,,,,,,,,,,,,,,,,0,2,2,2,0,8,8,8,,,,,,,,,,,,,,,,,,,1585.1254830410035,q,1.3978942090179771,1586.6344149579963,,,,,,272593,B,2024-12-07_11h38.48.455,EPIDM,2023.1.2,None,
2240.jpg,5010.jpg,5 Points,5 Points,152 points,PS2_L3.csv,,,,,,,,,,,,,,,,,,,,,,,,,,,,,0,2,2,2,0,9,9,9,,,,,,,,,,,,,,,,,,,1590.8494821249915,q,1.9212420410185587,1592.8825704999908,,,,,,272593,B,2024-12-07_11h38.48.455,EPIDM,2023.1.2,None,
4605.jpg,1510.jpg,4 Points,4 Points,156 points,PS2_L3.csv,,,,,,,,,,,,,,,,,,,,,,,,,,,,,0,2,2,2,0,10,10,10,,,,,,,,,,,,,,,,,,,1597.0894883750007,p,2.288767000020016,1599.4578954159952,,,,,,272593,B,2024-12-07_11h38.48.455,EPIDM,2023.1.2,None,
9490.jpg,9210.jpg,1 Point,1 Point,157 points,PS2_L3.csv,,,,,,,,,,,,,,,,,,,,,,,,,,,,,0,2,2,2,0,11,11,11,,,,,,,,,,,,,,,,,,,1603.6951907499897,q,0.9956963750009891,1604.7651663750003,,,,,,272593,B,2024-12-07_11h38.48.455,EPIDM,2023.1.2,None,
6821.jpg,9622.jpg,2 Points,2 Points,159 points,PS2_L3.csv,,,,,,,,,,,,,,,,,,,,,,,,,,,,,0,2,2,2,0,12,12,12,,,,,,,,,,,,,,,,,,,1609.0214153330016,p,0.908757000011974,1609.9895424159913,,,,,,272593,B,2024-12-07_11h38.48.455,EPIDM,2023.1.2,None,
2681.jpg,7100.jpg,3 Points,3 Points,162 points,PS2_L3.csv,,,,,,,,,,,,,,,,,,,,,,,,,,,,,0,2,2,2,0,13,13,13,,,,,,,,,,,,,,,,,,,1614.2486418329936,q,1.561811375009711,1615.8813759579934,3,0.9784299170132726,,,,272593,B,2024-12-07_11h38.48.455,EPIDM,2023.1.2,None,
5622.jpg,9156.jpg,4 Points,4 Points,166 points,PS2_L3.csv,,,,,,,,,,,,,,,,,,,,,,,,,,,,,0,2,2,2,0,14,14,14,,,,,,,,,,,,,,,,,,,1621.1780881250015,p,2.4726236250135116,1623.734695541003,,,,,,272593,B,2024-12-07_11h38.48.455,EPIDM,2023.1.2,None,
1111.jpg,1040.jpg,0 Points,0 Points,166 points,PS2_L3.csv,,,,,,,,,,,,,,,,,,,,,,,,,,,,,0,2,2,2,0,15,15,15,,,,,,,,,,,,,,,,,,,1627.9755955409928,q,0.8178042080107844,1628.8641515409981,,,,,,272593,B,2024-12-07_11h38.48.455,EPIDM,2023.1.2,None,
1112.jpg,6230.jpg,3 Points,3 Points,169 points,PS2_L3.csv,,,,,,,,,,,,,,,,,,,,,,,,,,,,,0,2,2,2,0,16,16,16,,,,,,,,,,,,,,,,,,,1633.112431415997,q,2.0103188330103876,1635.2063296659908,,,,,,272593,B,2024-12-07_11h38.48.455,EPIDM,2023.1.2,None,
8161.jpg,1900.jpg,4 Points,4 Points,173 points,PS2_L3.csv,,,,,,,,,,,,,,,,,,,,,,,,,,,,,0,2,2,2,0,17,17,17,,,,,,,,,,,,,,,,,,,1639.4563410830015,q,1.6165243750147056,1641.1417284999916,,,,,,272593,B,2024-12-07_11h38.48.455,EPIDM,2023.1.2,None,
9800.jpg,9433.jpg,1 Point,1 Point,174 points,PS2_L3.csv,,,,,,,,,,,,,,,,,,,,,,,,,,,,,0,2,2,2,0,18,18,18,,,,,,,,,,,,,,,,,,,1645.3919356659899,p,1.4491237500187708,1646.905630207999,,,,,,272593,B,2024-12-07_11h38.48.455,EPIDM,2023.1.2,None,
1390.jpg,9421.jpg,2 Points,2 Points,176 points,PS2_L3.csv,,,,,,,,,,,,,,,,,,,,,,,,,,,,,0,2,2,2,0,19,19,19,,,,,,,,,,,,,,,,,,,1651.1541936249996,p,1.8390760000183946,1653.068037124991,,,,,,272593,B,2024-12-07_11h38.48.455,EPIDM,2023.1.2,None,
2850.jpg,4532.jpg,3 Points,3 Points,179 points,PS2_L3.csv,,,,,,,,,,,,,,,,,,,,,,,,,,,,,0,2,2,2,0,20,20,20,,,,,,,,,,,,,,,,,,,1657.31860220799,q,2.8104911250120495,1660.1969396659988,,,,,,272593,B,2024-12-07_11h38.48.455,EPIDM,2023.1.2,None,
1560.jpg,8185.jpg,0 Points,0 Points,179 points,PS2_L3.csv,,,,,,,,,,,,,,,,,,,,,,,,,,,,,0,2,2,2,0,21,21,21,,,,,,,,,,,,,,,,,,,1664.4563124580018,q,2.6008708750014193,1667.129281040994,,,,,,272593,B,2024-12-07_11h38.48.455,EPIDM,2023.1.2,None,
6314.jpg,O022.jpg,2 Points,2 Points,181 points,PS2_L3.csv,,,,,,,,,,,,,,,,,,,,,,,,,,,,,0,2,2,2,0,22,22,22,,,,,,,,,,,,,,,,,,,1671.3800950000004,p,3.668168542018975,1675.1543370409927,,,,,,272593,B,2024-12-07_11h38.48.455,EPIDM,2023.1.2,None,
4274.jpg,8160.jpg,2 Points,2 Points,183 points,PS2_L3.csv,,,,,,,,,,,,,,,,,,,,,,,,,,,,,0,2,2,2,0,23,23,23,,,,,,,,,,,,,,,,,,,1679.3734701659996,q,1.794975875003729,1681.2808706249925,,,1691.6990891250025,space,16.79608158400515,272593,B,2024-12-07_11h38.48.455,EPIDM,2023.1.2,None,
8117.jpg,2880.jpg,5 Points,5 Points,188 points,PS2_L4.csv,,,,,,,,,,,,,,,,,,,,,,,,,,,,,0,3,3,3,0,0,0,0,,,,,,,,,,,,,,,,,,,1711.8199170409935,q,1.3886872500152094,1713.280841874992,,,,,,272593,B,2024-12-07_11h38.48.455,EPIDM,2023.1.2,None,
3220.jpg,3063.jpg,5 Points,5 Points,193 points,PS2_L4.csv,,,,,,,,,,,,,,,,,,,,,,,,,,,,,0,3,3,3,0,1,1,1,,,,,,,,,,,,,,,,,,,1717.5303887079936,q,0.9818845410190988,1718.5710972499946,5,1.848391083010938,,,,272593,B,2024-12-07_11h38.48.455,EPIDM,2023.1.2,None,
9040.jpg,1120.jpg,3 Points,3 Points,196 points,PS2_L4.csv,,,,,,,,,,,,,,,,,,,,,,,,,,,,,0,3,3,3,0,2,2,2,,,,,,,,,,,,,,,,,,,1724.7259151249891,q,1.4901489170151763,1726.2775894160004,,,,,,272593,B,2024-12-07_11h38.48.455,EPIDM,2023.1.2,None,
5030.jpg,1670.jpg,3 Points,3 Points,199 points,PS2_L4.csv,,,,,,,,,,,,,,,,,,,,,,,,,,,,,0,3,3,3,0,3,3,3,,,,,,,,,,,,,,,,,,,1730.5258612499892,p,0.9771626250003465,1731.569878957991,,,,,,272593,B,2024-12-07_11h38.48.455,EPIDM,2023.1.2,None,
2276.jpg,6540.jpg,3 Points,3 Points,202 points,PS2_L4.csv,,,,,,,,,,,,,,,,,,,,,,,,,,,,,0,3,3,3,0,4,4,4,,,,,,,,,,,,,,,,,,,1735.839285790993,q,1.6970385830063606,1737.587258790998,,,,,,272593,B,2024-12-07_11h38.48.455,EPIDM,2023.1.2,None,
1540.jpg,2600.jpg,1 Point,1 Point,203 points,PS2_L4.csv,,,,,,,,,,,,,,,,,,,,,,,,,,,,,0,3,3,3,0,5,5,5,,,,,,,,,,,,,,,,,,,1741.859058499991,q,2.0920978330104845,1744.0183900830016,,,,,,272593,B,2024-12-07_11h38.48.455,EPIDM,2023.1.2,None,
8465.jpg,8400.jpg,1 Point,1 Point,204 points,PS2_L4.csv,,,,,,,,,,,,,,,,,,,,,,,,,,,,,0,3,3,3,0,6,6,6,,,,,,,,,,,,,,,,,,,1748.2653090410022,p,2.5736372920073336,1750.9116119999962,,,,,,272593,B,2024-12-07_11h38.48.455,EPIDM,2023.1.2,None,
3110.jpg,9000.jpg,4 Points,4 Points,208 points,PS2_L4.csv,,,,,,,,,,,,,,,,,,,,,,,,,,,,,0,3,3,3,0,7,7,7,,,,,,,,,,,,,,,,,,,1755.1702619580028,q,0.8200762080086861,1756.0634750829922,,,,,,272593,B,2024-12-07_11h38.48.455,EPIDM,2023.1.2,None,
9570.jpg,6610.jpg,0 Points,0 Points,208 points,PS2_L4.csv,,,,,,,,,,,,,,,,,,,,,,,,,,,,,0,3,3,3,0,8,8,8,,,,,,,,,,,,,,,,,,,1760.311851749997,q,2.13506800000323,1762.5137693750003,,,,,,272593,B,2024-12-07_11h38.48.455,EPIDM,2023.1.2,None,
2690.jpg,9360.jpg,1 Point,1 Point,209 points,PS2_L4.csv,,,,,,,,,,,,,,,,,,,,,,,,,,,,,0,3,3,3,0,9,9,9,,,,,,,,,,,,,,,,,,,1766.7583868749934,q,1.3684444170066854,1768.1960950829962,,,,,,272593,B,2024-12-07_11h38.48.455,EPIDM,2023.1.2,None,
8250.jpg,1313.jpg,4 Points,4 Points,213 points,PS2_L4.csv,,,,,,,,,,,,,,,,,,,,,,,,,,,,,0,3,3,3,0,10,10,10,,,,,,,,,,,,,,,,,,,1772.4345867079974,q,1.8190079590131063,1774.3322672909999,,,,,,272593,B,2024-12-07_11h38.48.455,EPIDM,2023.1.2,None,
3022.jpg,2352.2.jpg,0 Points,0 Points,213 points,PS2_L4.csv,,,,,,,,,,,,,,,,,,,,,,,,,,,,,0,3,3,3,0,11,11,11,,,,,,,,,,,,,,,,,,,1778.5708402500022,q,1.586977792016114,1780.2315654159902,,,,,,272593,B,2024-12-07_11h38.48.455,EPIDM,2023.1.2,None,
9920.jpg,3068.jpg,5 Points,5 Points,218 points,PS2_L4.csv,,,,,,,,,,,,,,,,,,,,,,,,,,,,,0,3,3,3,0,12,12,12,,,,,,,,,,,,,,,,,,,1784.4803394159972,q,1.398193708009785,1785.9502239580033,,,,,,272593,B,2024-12-07_11h38.48.455,EPIDM,2023.1.2,None,
7234.jpg,5533.jpg,3 Points,3 Points,221 points,PS2_L4.csv,,,,,,,,,,,,,,,,,,,,,,,,,,,,,0,3,3,3,0,13,13,13,,,,,,,,,,,,,,,,,,,1790.2047092499997,q,1.488770125011797,1791.7570761660027,3,1.6031980420229957,,,,272593,B,2024-12-07_11h38.48.455,EPIDM,2023.1.2,None,
6250.1.jpg,3301.jpg,0 Points,0 Points,221 points,PS2_L4.csv,,,,,,,,,,,,,,,,,,,,,,,,,,,,,0,3,3,3,0,14,14,14,,,,,,,,,,,,,,,,,,,1797.6852035829943,q,1.200065375014674,1798.9640577910031,,,,,,272593,B,2024-12-07_11h38.48.455,EPIDM,2023.1.2,None,
2518.jpg,2381.jpg,1 Point,1 Point,222 points,PS2_L4.csv,,,,,,,,,,,,,,,,,,,,,,,,,,,,,0,3,3,3,0,15,15,15,,,,,,,,,,,,,,,,,,,1803.2106193329964,q,1.5939350420085248,1804.868610999998,,,,,,272593,B,2024-12-07_11h38.48.455,EPIDM,2023.1.2,None,
1910.jpg,2575.jpg,2 Points,2 Points,224 points,PS2_L4.csv,,,,,,,,,,,,,,,,,,,,,,,,,,,,,0,3,3,3,0,16,16,16,,,,,,,,,,,,,,,,,,,1809.1275101659994,p,2.3505332920030924,1811.5447514159896,,,,,,272593,B,2024-12-07_11h38.48.455,EPIDM,2023.1.2,None,
1275.jpg,3150.jpg,1 Point,1 Point,225 points,PS2_L4.csv,,,,,,,,,,,,,,,,,,,,,,,,,,,,,0,3,3,3,0,17,17,17,,,,,,,,,,,,,,,,,,,1815.8033894580003,p,1.5134783750108909,1817.3884527499904,,,,,,272593,B,2024-12-07_11h38.48.455,EPIDM,2023.1.2,None,
2702.jpg,1590.jpg,5 Points,5 Points,230 points,PS2_L4.csv,,,,,,,,,,,,,,,,,,,,,,,,,,,,,0,3,3,3,0,18,18,18,,,,,,,,,,,,,,,,,,,1821.633187415995,p,2.8672612080117688,1824.579379082992,,,,,,272593,B,2024-12-07_11h38.48.455,EPIDM,2023.1.2,None,
8480.jpg,6410.jpg,1 Point,1 Point,231 points,PS2_L4.csv,,,,,,,,,,,,,,,,,,,,,,,,,,,,,0,3,3,3,0,19,19,19,,,,,,,,,,,,,,,,,,,1828.8234186249902,q,2.01429137501691,1830.9060474579892,,,,,,272593,B,2024-12-07_11h38.48.455,EPIDM,2023.1.2,None,
5621.jpg,5534.jpg,3 Points,3 Points,234 points,PS2_L4.csv,,,,,,,,,,,,,,,,,,,,,,,,,,,,,0,3,3,3,0,20,20,20,,,,,,,,,,,,,,,,,,,1835.146037457991,p,2.618726166008855,1837.8327327909938,,,,,,272593,B,2024-12-07_11h38.48.455,EPIDM,2023.1.2,None,
5972.jpg,6838.jpg,5 Points,5 Points,239 points,PS2_L4.csv,,,,,,,,,,,,,,,,,,,,,,,,,,,,,0,3,3,3,0,21,21,21,,,,,,,,,,,,,,,,,,,1842.0862587500014,p,2.3583404579985654,1844.5130613329966,,,,,,272593,B,2024-12-07_11h38.48.455,EPIDM,2023.1.2,None,
2580.jpg,8300.jpg,3 Points,3 Points,242 points,PS2_L4.csv,,,,,,,,,,,,,,,,,,,,,,,,,,,,,0,3,3,3,0,22,22,22,,,,,,,,,,,,,,,,,,,1848.7566117499955,q,1.7770106670068344,1850.600394041001,,,,,,272593,B,2024-12-07_11h38.48.455,EPIDM,2023.1.2,None,
7280.jpg,7160.jpg,0 Points,0 Points,242 points,PS2_L4.csv,,,,,,,,,,,,,,,,,,,,,,,,,,,,,0,3,3,3,0,23,23,23,,,,,,,,,,,,,,,,,,,1854.8457416659949,q,1.7583477080188459,1856.686705125001,,,1867.1483060829923,space,22.24759237501712,272593,B,2024-12-07_11h38.48.455,EPIDM,2023.1.2,None,
6243.jpg,2752.jpg,2 Points,2 Points,244 points,PS2_L5.csv,,,,,,,,,,,,,,,,,,,,,,,,,,,,,0,4,4,4,0,0,0,0,,,,,,,,,,,,,,,,,,,1892.7151723749994,p,1.3199485420191195,1894.1079249579925,,,,,,272593,B,2024-12-07_11h38.48.455,EPIDM,2023.1.2,None,
8340.jpg,7546.jpg,2 Points,2 Points,246 points,PS2_L5.csv,,,,,,,,,,,,,,,,,,,,,,,,,,,,,0,4,4,4,0,1,1,1,,,,,,,,,,,,,,,,,,,1898.3686227500002,q,1.882577875017887,1900.316569082992,2,1.1539519170037238,,,,272593,B,2024-12-07_11h38.48.455,EPIDM,2023.1.2,None,
1022.jpg,6930.jpg,1 Point,1 Point,247 points,PS2_L5.csv,,,,,,,,,,,,,,,,,,,,,,,,,,,,,0,4,4,4,0,2,2,2,,,,,,,,,,,,,,,,,,,1905.771593957994,q,0.9035971660050564,1906.7460795410007,,,,,,272593,B,2024-12-07_11h38.48.455,EPIDM,2023.1.2,None,
7230.jpg,7570.jpg,5 Points,5 Points,252 points,PS2_L5.csv,,,,,,,,,,,,,,,,,,,,,,,,,,,,,0,4,4,4,0,3,3,3,,,,,,,,,,,,,,,,,,,1910.991707041001,p,1.4268235830095364,1912.4922670410015,,,,,,272593,B,2024-12-07_11h38.48.455,EPIDM,2023.1.2,None,
5760.jpg,1602.jpg,1 Point,1 Point,253 points,PS2_L5.csv,,,,,,,,,,,,,,,,,,,,,,,,,,,,,0,4,4,4,0,4,4,4,,,,,,,,,,,,,,,,,,,1916.7515034579992,p,2.797324125014711,1919.6234014579968,,,,,,272593,B,2024-12-07_11h38.48.455,EPIDM,2023.1.2,None,
9584.jpg,3400.jpg,2 Points,2 Points,255 points,PS2_L5.csv,,,,,,,,,,,,,,,,,,,,,,,,,,,,,0,4,4,4,0,5,5,5,,,,,,,,,,,,,,,,,,,1923.8775486249942,q,2.5894436670059804,1926.5351977499959,,,,,,272593,B,2024-12-07_11h38.48.455,EPIDM,2023.1.2,None,
2560.jpg,5270.jpg,4 Points,4 Points,259 points,PS2_L5.csv,,,,,,,,,,,,,,,,,,,,,,,,,,,,,0,4,4,4,0,6,6,6,,,,,,,,,,,,,,,,,,,1930.7815343330003,q,1.612840583009529,1932.4683534579963,,,,,,272593,B,2024-12-07_11h38.48.455,EPIDM,2023.1.2,None,
3350.jpg,3210.jpg,1 Point,1 Point,260 points,PS2_L5.csv,,,,,,,,,,,,,,,,,,,,,,,,,,,,,0,4,4,4,0,7,7,7,,,,,,,,,,,,,,,,,,,1936.72134491599,q,2.5057319160114275,1939.2975520829932,,,,,,272593,B,2024-12-07_11h38.48.455,EPIDM,2023.1.2,None,
5455.jpg,5220.jpg,0 Points,0 Points,260 points,PS2_L5.csv,,,,,,,,,,,,,,,,,,,,,,,,,,,,,0,4,4,4,0,8,8,8,,,,,,,,,,,,,,,,,,,1943.5540522079973,q,1.4564475410152227,1945.0742601660022,,,,,,272593,B,2024-12-07_11h38.48.455,EPIDM,2023.1.2,None,
7920.jpg,9102.jpg,3 Points,3 Points,263 points,PS2_L5.csv,,,,,,,,,,,,,,,,,,,,,,,,,,,,,0,4,4,4,0,9,9,9,,,,,,,,,,,,,,,,,,,1949.3315057500004,p,1.8697375410120003,1951.280461125003,,,,,,272593,B,2024-12-07_11h38.48.455,EPIDM,2023.1.2,None,
1301.jpg,1070.jpg,2 Points,2 Points,265 points,PS2_L5.csv,,,,,,,,,,,,,,,,,,,,,,,,,,,,,0,4,4,4,0,10,10,10,,,,,,,,,,,,,,,,,,,1955.5207526250015,q,0.7530010830087122,1956.3547852909978,,,,,,272593,B,2024-12-07_11h38.48.455,EPIDM,2023.1.2,None,
5982.jpg,5260.jpg,5 Points,5 Points,270 points,PS2_L5.csv,,,,,,,,,,,,,,,,,,,,,,,,,,,,,0,4,4,4,0,11,11,11,,,,,,,,,,,,,,,,,,,1960.617089833002,q,1.7683944160089595,1962.4597034579929,,,,,,272593,B,2024-12-07_11h38.48.455,EPIDM,2023.1.2,None,
5000.jpg,8180.jpg,4 Points,4 Points,274 points,PS2_L5.csv,,,,,,,,,,,,,,,,,,,,,,,,,,,,,0,4,4,4,0,12,12,12,,,,,,,,,,,,,,,,,,,1966.6960149579972,p,2.6985658340126975,1969.4796819579933,,,,,,272593,B,2024-12-07_11h38.48.455,EPIDM,2023.1.2,None,
6244.jpg,9265.jpg,0 Points,0 Points,274 points,PS2_L5.csv,,,,,,,,,,,,,,,,,,,,,,,,,,,,,0,4,4,4,0,13,13,13,,,,,,,,,,,,,,,,,,,1973.717386624994,q,1.9807080420141574,1975.7741439160018,0,2.283274709014222,,,,272593,B,2024-12-07_11h38.48.455,EPIDM,2023.1.2,None,
5990.jpg,5780.jpg,3 Points,3 Points,277 points,PS2_L5.csv,,,,,,,,,,,,,,,,,,,,,,,,,,,,,0,4,4,4,0,14,14,14,,,,,,,,,,,,,,,,,,,1982.3573672499915,p,1.8275107500085142,1984.2481190410035,,,,,,272593,B,2024-12-07_11h38.48.455,EPIDM,2023.1.2,None,
9440.jpg,6350.jpg,4 Points,4 Points,281 points,PS2_L5.csv,,,,,,,,,,,,,,,,,,,,,,,,,,,,,0,4,4,4,0,15,15,15,,,,,,,,,,,,,,,,,,,1988.499188916001,p,1.3102714580163592,1989.8806284579914,,,,,,272593,B,2024-12-07_11h38.48.455,EPIDM,2023.1.2,None,
1850.jpg,5623.jpg,5 Points,5 Points,286 points,PS2_L5.csv,,,,,,,,,,,,,,,,,,,,,,,,,,,,,0,4,4,4,0,16,16,16,,,,,,,,,,,,,,,,,,,1994.1323487079935,q,1.5166760410065763,1995.723323415994,,,,,,272593,B,2024-12-07_11h38.48.455,EPIDM,2023.1.2,None,
5200.jpg,5020.jpg,0 Points,0 Points,286 points,PS2_L5.csv,,,,,,,,,,,,,,,,,,,,,,,,,,,,,0,4,4,4,0,17,17,17,,,,,,,,,,,,,,,,,,,1999.9786555409955,q,1.1347619170119287,2001.1957835829962,,,,,,272593,B,2024-12-07_11h38.48.455,EPIDM,2023.1.2,None,
P211.jpg,9041.jpg,4 Points,4 Points,290 points,PS2_L5.csv,,,,,,,,,,,,,,,,,,,,,,,,,,,,,0,4,4,4,0,18,18,18,,,,,,,,,,,,,,,,,,,2005.445871457996,p,1.418930250016274,2006.9722012909915,,,,,,272593,B,2024-12-07_11h38.48.455,EPIDM,2023.1.2,None,
5600.jpg,9080.jpg,5 Points,5 Points,295 points,PS2_L5.csv,,,,,,,,,,,,,,,,,,,,,,,,,,,,,0,4,4,4,0,19,19,19,,,,,,,,,,,,,,,,,,,2011.1890120000025,q,0.8675775000010617,2012.1302926659991,,,,,,272593,B,2024-12-07_11h38.48.455,EPIDM,2023.1.2,None,
6800.jpg,9190.jpg,0 Points,0 Points,295 points,PS2_L5.csv,,,,,,,,,,,,,,,,,,,,,,,,,,,,,0,4,4,4,0,20,20,20,,,,,,,,,,,,,,,,,,,2016.3721321249905,p,0.9240472910169046,2017.3686208750005,,,,,,272593,B,2024-12-07_11h38.48.455,EPIDM,2023.1.2,None,
3280.jpg,9270.jpg,0 Points,0 Points,295 points,PS2_L5.csv,,,,,,,,,,,,,,,,,,,,,,,,,,,,,0,4,4,4,0,21,21,21,,,,,,,,,,,,,,,,,,,2021.6164600829943,p,1.2327272500115214,2022.9207011659892,,,,,,272593,B,2024-12-07_11h38.48.455,EPIDM,2023.1.2,None,
4613.jpg,2720.jpg,4 Points,4 Points,299 points,PS2_L5.csv,,,,,,,,,,,,,,,,,,,,,,,,,,,,,0,4,4,4,0,22,22,22,,,,,,,,,,,,,,,,,,,2027.1859272079892,p,1.5263897920085583,2028.777146332999,,,,,,272593,B,2024-12-07_11h38.48.455,EPIDM,2023.1.2,None,
1930.jpg,9008.jpg,1 Point,1 Point,300 points,PS2_L5.csv,,,,,,,,,,,,,,,,,,,,,,,,,,,,,0,4,4,4,0,23,23,23,,,,,,,,,,,,,,,,,,,2033.0313319159904,q,1.6088942080095876,2034.7219649999897,,,2045.1845912080025,space,32.094314375004615,272593,B,2024-12-07_11h38.48.455,EPIDM,2023.1.2,None,
2190.jpg,7503.jpg,2 Points,2 Points,302 points,PS2_L6.csv,,,,,,,,,,,,,,,,,,,,,,,,,,,,,0,5,5,5,0,0,0,0,,,,,,,,,,,,,,,,,,,2080.5896170829947,p,1.1534363750106422,2081.8166110409948,,,,,,272593,B,2024-12-07_11h38.48.455,EPIDM,2023.1.2,None,
2490.jpg,2590.jpg,4 Points,4 Points,306 points,PS2_L6.csv,,,,,,,,,,,,,,,,,,,,,,,,,,,,,0,5,5,5,0,1,1,1,,,,,,,,,,,,,,,,,,,2086.0599944580026,q,1.9860659160185605,2088.116979457991,4,1.3543945000128588,,,,272593,B,2024-12-07_11h38.48.455,EPIDM,2023.1.2,None,
9592.jpg,1300.jpg,2 Points,2 Points,308 points,PS2_L6.csv,,,,,,,,,,,,,,,,,,,,,,,,,,,,,0,5,5,5,0,2,2,2,,,,,,,,,,,,,,,,,,,2093.7833403749974,q,0.8468572080164449,2094.700491374999,,,,,,272593,B,2024-12-07_11h38.48.455,EPIDM,2023.1.2,None,
8230.jpg,2682.jpg,5 Points,5 Points,313 points,PS2_L6.csv,,,,,,,,,,,,,,,,,,,,,,,,,,,,,0,5,5,5,0,3,3,3,,,,,,,,,,,,,,,,,,,2098.9467618749914,q,1.5554688750125933,2100.562275249991,,,,,,272593,B,2024-12-07_11h38.48.455,EPIDM,2023.1.2,None,
9090.jpg,7580.jpg,3 Points,3 Points,316 points,PS2_L6.csv,,,,,,,,,,,,,,,,,,,,,,,,,,,,,0,5,5,5,0,4,4,4,,,,,,,,,,,,,,,,,,,2104.816422457996,q,2.7011214580124943,2107.5963254579983,,,,,,272593,B,2024-12-07_11h38.48.455,EPIDM,2023.1.2,None,
3530.jpg,6213.jpg,1 Point,1 Point,317 points,PS2_L6.csv,,,,,,,,,,,,,,,,,,,,,,,,,,,,,0,5,5,5,0,5,5,5,,,,,,,,,,,,,,,,,,,2111.837322708001,q,2.0010841250186786,2113.906497666001,,,,,,272593,B,2024-12-07_11h38.48.455,EPIDM,2023.1.2,None,
1640.jpg,5531.jpg,3 Points,3 Points,320 points,PS2_L6.csv,,,,,,,,,,,,,,,,,,,,,,,,,,,,,0,5,5,5,0,6,6,6,,,,,,,,,,,,,,,,,,,2118.152742833001,q,1.821683791000396,2120.072388790999,,,,,,272593,B,2024-12-07_11h38.48.455,EPIDM,2023.1.2,None,
3064.jpg,3168.jpg,4 Points,4 Points,324 points,PS2_L6.csv,,,,,,,,,,,,,,,,,,,,,,,,,,,,,0,5,5,5,0,7,7,7,,,,,,,,,,,,,,,,,,,2124.302898665992,p,1.3187831250106683,2125.6912169999996,,,,,,272593,B,2024-12-07_11h38.48.455,EPIDM,2023.1.2,None,
2710.jpg,9252.jpg,1 Point,1 Point,325 points,PS2_L6.csv,,,,,,,,,,,,,,,,,,,,,,,,,,,,,0,5,5,5,0,8,8,8,,,,,,,,,,,,,,,,,,,2129.9362150829984,q,2.4940350000106264,2132.4961872909917,,,,,,272593,B,2024-12-07_11h38.48.455,EPIDM,2023.1.2,None,
2260.jpg,2830.jpg,5 Points,5 Points,330 points,PS2_L6.csv,,,,,,,,,,,,,,,,,,,,,,,,,,,,,0,5,5,5,0,9,9,9,,,,,,,,,,,,,,,,,,,2136.7417227080005,p,1.639670542004751,2138.4500398329983,,,,,,272593,B,2024-12-07_11h38.48.455,EPIDM,2023.1.2,None,
6510.jpg,A074.jpg,2 Points,2 Points,332 points,PS2_L6.csv,,,,,,,,,,,,,,,,,,,,,,,,,,,,,0,5,5,5,0,10,10,10,,,,,,,,,,,,,,,,,,,2142.699477874994,p,1.90581729200494,2144.7128494999924,,,,,,272593,B,2024-12-07_11h38.48.455,EPIDM,2023.1.2,None,
5300.jpg,2372.jpg,1 Point,1 Point,333 points,PS2_L6.csv,,,,,,,,,,,,,,,,,,,,,,,,,,,,,0,5,5,5,0,11,11,11,,,,,,,,,,,,,,,,,,,2148.9183906249964,q,1.295147333003115,2150.319023582997,,,,,,272593,B,2024-12-07_11h38.48.455,EPIDM,2023.1.2,None,
2749.jpg,7282.jpg,3 Points,3 Points,336 points,PS2_L6.csv,,,,,,,,,,,,,,,,,,,,,,,,,,,,,0,5,5,5,0,12,12,12,,,,,,,,,,,,,,,,,,,2154.5249475409946,p,1.1363099170121131,2155.739081540989,,,,,,272593,B,2024-12-07_11h38.48.455,EPIDM,2023.1.2,None,
3130.jpg,3500.jpg,4 Points,4 Points,340 points,PS2_L6.csv,,,,,,,,,,,,,,,,,,,,,,,,,,,,,0,5,5,5,0,13,13,13,,,,,,,,,,,,,,,,,,,2159.975437000001,p,1.0940052090154495,2161.147198665989,4,1.3141572080057813,,,,272593,B,2024-12-07_11h38.48.455,EPIDM,2023.1.2,None,
6312.jpg,3230.jpg,2 Points,2 Points,342 points,PS2_L6.csv,,,,,,,,,,,,,,,,,,,,,,,,,,,,,0,5,5,5,0,14,14,14,,,,,,,,,,,,,,,,,,,2166.7847270829952,p,1.0364970410155365,2167.8999177499936,,,,,,272593,B,2024-12-07_11h38.48.455,EPIDM,2023.1.2,None,
2597.jpg,5870.jpg,5 Points,5 Points,347 points,PS2_L6.csv,,,,,,,,,,,,,,,,,,,,,,,,,,,,,0,5,5,5,0,15,15,15,,,,,,,,,,,,,,,,,,,2172.1429704159964,p,1.6531302500079619,2173.8688286249962,,,,,,272593,B,2024-12-07_11h38.48.455,EPIDM,2023.1.2,None,
8033.jpg,7270.jpg,3 Points,3 Points,350 points,PS2_L6.csv,,,,,,,,,,,,,,,,,,,,,,,,,,,,,0,5,5,5,0,16,16,16,,,,,,,,,,,,,,,,,,,2178.115127665995,q,1.465650000012829,2179.651385624995,,,,,,272593,B,2024-12-07_11h38.48.455,EPIDM,2023.1.2,None,
3170.jpg,6560.jpg,2 Points,2 Points,352 points,PS2_L6.csv,,,,,,,,,,,,,,,,,,,,,,,,,,,,,0,5,5,5,0,17,17,17,,,,,,,,,,,,,,,,,,,2183.8941940410004,p,1.0858903340122197,2185.036860124994,,,,,,272593,B,2024-12-07_11h38.48.455,EPIDM,2023.1.2,None,
6242.jpg,F034.jpg,4 Points,4 Points,356 points,PS2_L6.csv,,,,,,,,,,,,,,,,,,,,,,,,,,,,,0,5,5,5,0,18,18,18,,,,,,,,,,,,,,,,,,,2189.2964784159994,q,1.4041871250083204,2190.8055789579957,,,,,,272593,B,2024-12-07_11h38.48.455,EPIDM,2023.1.2,None,
2485.jpg,7350.jpg,0 Points,0 Points,356 points,PS2_L6.csv,,,,,,,,,,,,,,,,,,,,,,,,,,,,,0,5,5,5,0,19,19,19,,,,,,,,,,,,,,,,,,,2195.014597040994,q,1.3891467909998028,2196.5111645829893,,,,,,272593,B,2024-12-07_11h38.48.455,EPIDM,2023.1.2,None,
2900.jpg,1101.jpg,3 Points,3 Points,359 points,PS2_L6.csv,,,,,,,,,,,,,,,,,,,,,,,,,,,,,0,5,5,5,0,20,20,20,,,,,,,,,,,,,,,,,,,2200.7176619999955,p,1.2078950000141049,2202.0031547909894,,,,,,272593,B,2024-12-07_11h38.48.455,EPIDM,2023.1.2,None,
7002.jpg,4660.jpg,4 Points,4 Points,363 points,PS2_L6.csv,,,,,,,,,,,,,,,,,,,,,,,,,,,,,0,5,5,5,0,21,21,21,,,,,,,,,,,,,,,,,,,2206.2441437499947,q,1.5195001250103815,2207.8489024159935,,,,,,272593,B,2024-12-07_11h38.48.455,EPIDM,2023.1.2,None,
A025.jpg,1051.jpg,0 Points,0 Points,363 points,PS2_L6.csv,,,,,,,,,,,,,,,,,,,,,,,,,,,,,0,5,5,5,0,22,22,22,,,,,,,,,,,,,,,,,,,2212.0923390410026,q,1.7597992090013577,2213.9620355410007,,,,,,272593,B,2024-12-07_11h38.48.455,EPIDM,2023.1.2,None,
4510.jpg,2230.jpg,5 Points,5 Points,368 points,PS2_L6.csv,,,,,,,,,,,,,,,,,,,,,,,,,,,,,0,5,5,5,0,23,23,23,,,,,,,,,,,,,,,,,,,2218.160022415992,p,0.7396120830089785,2219.0141156659956,,,2229.4559789579944,space,24.298669917014195,272593,B,2024-12-07_11h38.48.455,EPIDM,2023.1.2,None,
2383.jpg,1616.jpg,2 Points,2 Points,370 points,PS2_L7.csv,,,,,,,,,,,,,,,,,,,,,,,,,,,,,0,6,6,6,0,0,0,0,,,,,,,,,,,,,,,,,,,2257.0687468329998,p,1.9965559160045814,2259.1461393749923,,,,,,272593,B,2024-12-07_11h38.48.455,EPIDM,2023.1.2,None,
1310.jpg,3181.jpg,4 Points,4 Points,374 points,PS2_L7.csv,,,,,,,,,,,,,,,,,,,,,,,,,,,,,0,6,6,6,0,1,1,1,,,,,,,,,,,,,,,,,,,2263.386015790995,q,0.7051434160093777,2264.166601707999,4,1.596611709013814,,,,272593,B,2024-12-07_11h38.48.455,EPIDM,2023.1.2,None,
7289.jpg,4534.jpg,0 Points,0 Points,374 points,PS2_L7.csv,,,,,,,,,,,,,,,,,,,,,,,,,,,,,0,6,6,6,0,2,2,2,,,,,,,,,,,,,,,,,,,2270.082416791003,q,1.0869182090100367,2271.244551875003,,,,,,272593,B,2024-12-07_11h38.48.455,EPIDM,2023.1.2,None,
6010.jpg,7361.jpg,2 Points,2 Points,376 points,PS2_L7.csv,,,,,,,,,,,,,,,,,,,,,,,,,,,,,0,6,6,6,0,3,3,3,,,,,,,,,,,,,,,,,,,2275.496140499992,p,1.0583980410010554,2276.6242369579995,,,,,,272593,B,2024-12-07_11h38.48.455,EPIDM,2023.1.2,None,
2661.jpg,2870.jpg,5 Points,5 Points,381 points,PS2_L7.csv,,,,,,,,,,,,,,,,,,,,,,,,,,,,,0,6,6,6,0,4,4,4,,,,,,,,,,,,,,,,,,,2280.8655549999967,q,1.857614625012502,2282.7796738329926,,,,,,272593,B,2024-12-07_11h38.48.455,EPIDM,2023.1.2,None,
7220.jpg,8090.jpg,2 Points,2 Points,383 points,PS2_L7.csv,,,,,,,,,,,,,,,,,,,,,,,,,,,,,0,6,6,6,0,5,5,5,,,,,,,,,,,,,,,,,,,2287.0386579579936,q,1.6506264160125284,2288.75502245799,,,,,,272593,B,2024-12-07_11h38.48.455,EPIDM,2023.1.2,None,
9140.jpg,2810.jpg,3 Points,3 Points,386 points,PS2_L7.csv,,,,,,,,,,,,,,,,,,,,,,,,,,,,,0,6,6,6,0,6,6,6,,,,,,,,,,,,,,,,,,,2293.0065878329915,q,2.171291750011733,2295.2411991249974,,,,,,272593,B,2024-12-07_11h38.48.455,EPIDM,2023.1.2,None,
2516.jpg,8500.jpg,4 Points,4 Points,390 points,PS2_L7.csv,,,,,,,,,,,,,,,,,,,,,,,,,,,,,0,6,6,6,0,7,7,7,,,,,,,,,,,,,,,,,,,2299.4871979159943,q,1.7863357920141425,2301.3493449160014,,,,,,272593,B,2024-12-07_11h38.48.455,EPIDM,2023.1.2,None,
9070.jpg,9420.jpg,2 Points,2 Points,392 points,PS2_L7.csv,,,,,,,,,,,,,,,,,,,,,,,,,,,,,0,6,6,6,0,8,8,8,,,,,,,,,,,,,,,,,,,2305.607191624993,p,1.0178021250030724,2306.694380832996,,,,,,272593,B,2024-12-07_11h38.48.455,EPIDM,2023.1.2,None,
6561.jpg,1525.jpg,2 Points,2 Points,394 points,PS2_L7.csv,,,,,,,,,,,,,,,,,,,,,,,,,,,,,0,6,6,6,0,9,9,9,,,,,,,,,,,,,,,,,,,2310.9483705829916,p,1.3571423340035835,2312.369666790997,,,,,,272593,B,2024-12-07_11h38.48.455,EPIDM,2023.1.2,None,
7175.jpg,7490.jpg,2 Points,2 Points,396 points,PS2_L7.csv,,,,,,,,,,,,,,,,,,,,,,,,,,,,,0,6,6,6,0,10,10,10,,,,,,,,,,,,,,,,,,,2316.622370665995,q,0.7949235840060282,2317.4905434579996,,,,,,272593,B,2024-12-07_11h38.48.455,EPIDM,2023.1.2,None,
8010.jpg,2630.jpg,0 Points,0 Points,396 points,PS2_L7.csv,,,,,,,,,,,,,,,,,,,,,,,,,,,,,0,6,6,6,0,11,11,11,,,,,,,,,,,,,,,,,,,2321.737346790993,q,1.3680249170138268,2323.176853124998,,,,,,272593,B,2024-12-07_11h38.48.455,EPIDM,2023.1.2,None,
F174.jpg,9404.jpg,5 Points,5 Points,401 points,PS2_L7.csv,,,,,,,,,,,,,,,,,,,,,,,,,,,,,0,6,6,6,0,12,12,12,,,,,,,,,,,,,,,,,,,2327.4235426249943,q,0.8262369170115562,2328.364973165997,,,,,,272593,B,2024-12-07_11h38.48.455,EPIDM,2023.1.2,None,
2692.jpg,8231.jpg,4 Points,4 Points,405 points,PS2_L7.csv,,,,,,,,,,,,,,,,,,,,,,,,,,,,,0,6,6,6,0,13,13,13,,,,,,,,,,,,,,,,,,,2332.566870333001,q,2.0978987500129733,2334.732728374991,4,0.9686941250110976,,,,272593,B,2024-12-07_11h38.48.455,EPIDM,2023.1.2,None,
5994.jpg,5390.jpg,0 Points,0 Points,405 points,PS2_L7.csv,,,,,,,,,,,,,,,,,,,,,,,,,,,,,0,6,6,6,0,14,14,14,,,,,,,,,,,,,,,,,,,2340.0143248329987,p,0.7776788330083946,2340.8520977079897,,,,,,272593,B,2024-12-07_11h38.48.455,EPIDM,2023.1.2,None,
9560.jpg,3071.jpg,1 Point,1 Point,406 points,PS2_L7.csv,,,,,,,,,,,,,,,,,,,,,,,,,,,,,0,6,6,6,0,15,15,15,,,,,,,,,,,,,,,,,,,2345.1065829579893,p,1.1736527910106815,2346.3414815409924,,,,,,272593,B,2024-12-07_11h38.48.455,EPIDM,2023.1.2,None,
9330.jpg,3015.jpg,5 Points,5 Points,411 points,PS2_L7.csv,,,,,,,,,,,,,,,,,,,,,,,,,,,,,0,6,6,6,0,16,16,16,,,,,,,,,,,,,,,,,,,2350.6002000000008,q,1.1760074170015287,2351.850966165992,,,,,,272593,B,2024-12-07_11h38.48.455,EPIDM,2023.1.2,None,
2389.jpg,7320.jpg,0 Points,0 Points,411 points,PS2_L7.csv,,,,,,,,,,,,,,,,,,,,,,,,,,,,,0,6,6,6,0,17,17,17,,,,,,,,,,,,,,,,,,,2356.1036286659946,q,1.5686095000128262,2357.7475779160013,,,,,,272593,B,2024-12-07_11h38.48.455,EPIDM,2023.1.2,None,
6570.1.jpg,9432.jpg,5 Points,5 Points,416 points,PS2_L7.csv,,,,,,,,,,,,,,,,,,,,,,,,,,,,,0,6,6,6,0,18,18,18,,,,,,,,,,,,,,,,,,,2361.987530540995,p,0.7076965830055997,2362.7673695409903,,,,,,272593,B,2024-12-07_11h38.48.455,EPIDM,2023.1.2,None,
9452.jpg,7184.jpg,4 Points,4 Points,420 points,PS2_L7.csv,,,,,,,,,,,,,,,,,,,,,,,,,,,,,0,6,6,6,0,19,19,19,,,,,,,,,,,,,,,,,,,2367.0157469999976,q,1.7120138330210466,2368.7924193329964,,,,,,272593,B,2024-12-07_11h38.48.455,EPIDM,2023.1.2,None,
5120.jpg,5520.jpg,2 Points,2 Points,422 points,PS2_L7.csv,,,,,,,,,,,,,,,,,,,,,,,,,,,,,0,6,6,6,0,20,20,20,,,,,,,,,,,,,,,,,,,2373.0362861250032,p,1.8351659170148196,2374.9414835829957,,,,,,272593,B,2024-12-07_11h38.48.455,EPIDM,2023.1.2,None,
5970.jpg,3300.jpg,0 Points,0 Points,422 points,PS2_L7.csv,,,,,,,,,,,,,,,,,,,,,,,,,,,,,0,6,6,6,0,21,21,21,,,,,,,,,,,,,,,,,,,2379.182775124995,q,0.5688764590158826,2379.811306040996,,,,,,272593,B,2024-12-07_11h38.48.455,EPIDM,2023.1.2,None,
7620.jpg,5395.jpg,1 Point,1 Point,423 points,PS2_L7.csv,,,,,,,,,,,,,,,,,,,,,,,,,,,,,0,6,6,6,0,22,22,22,,,,,,,,,,,,,,,,,,,2384.068003624998,q,1.0107409170159372,2385.145495040997,,,,,,272593,B,2024-12-07_11h38.48.455,EPIDM,2023.1.2,None,
P019.jpg,F158.jpg,3 Points,3 Points,426 points,PS2_L7.csv,,,,,,,,,,,,,,,,,,,,,,,,,,,,,0,6,6,6,0,23,23,23,,,,,,,,,,,,,,,,,,,2389.3994417499925,p,1.9917608340037987,2391.5219905409904,,,2401.9665869579912,space,13.128592500012019,272593,B,2024-12-07_11h38.48.455,EPIDM,2023.1.2,None,
2620.jpg,2594.jpg,0 Points,0 Points,426 points,PS2_L8.csv,,,,,,,,,,,,,,,,,,,,,,,,,,,,,0,7,7,7,0,0,0,0,,,,,,,,,,,,,,,,,,,2418.423034624997,p,0.7271612910117256,2419.258258499991,,,,,,272593,B,2024-12-07_11h38.48.455,EPIDM,2023.1.2,None,
F369.jpg,3100.jpg,2 Points,2 Points,428 points,PS2_L8.csv,,,,,,,,,,,,,,,,,,,,,,,,,,,,,0,7,7,7,0,1,1,1,,,,,,,,,,,,,,,,,,,2423.464352625,q,1.0854546670016134,2424.6471134579915,2,1.4525785840087337,,,,272593,B,2024-12-07_11h38.48.455,EPIDM,2023.1.2,None,
1052.jpg,1201.jpg,3 Points,3 Points,431 points,PS2_L8.csv,,,,,,,,,,,,,,,,,,,,,,,,,,,,,0,7,7,7,0,2,2,2,,,,,,,,,,,,,,,,,,,2430.4320353749936,p,0.9508609580079792,2431.4776928749925,,,,,,272593,B,2024-12-07_11h38.48.455,EPIDM,2023.1.2,None,
2606.jpg,2480.jpg,1 Point,1 Point,432 points,PS2_L8.csv,,,,,,,,,,,,,,,,,,,,,,,,,,,,,0,7,7,7,0,3,3,3,,,,,,,,,,,,,,,,,,,2435.6884658749914,p,1.0936649170034798,2436.8435400409944,,,,,,272593,B,2024-12-07_11h38.48.455,EPIDM,2023.1.2,None,
9594.jpg,1080.jpg,4 Points,4 Points,436 points,PS2_L8.csv,,,,,,,,,,,,,,,,,,,,,,,,,,,,,0,7,7,7,0,4,4,4,,,,,,,,,,,,,,,,,,,2441.1015156659996,q,0.7285281670192489,2441.8997426659917,,,,,,272593,B,2024-12-07_11h38.48.455,EPIDM,2023.1.2,None,
4770.jpg,4275.jpg,3 Points,3 Points,439 points,PS2_L8.csv,,,,,,,,,,,,,,,,,,,,,,,,,,,,,0,7,7,7,0,5,5,5,,,,,,,,,,,,,,,,,,,2446.141658458,p,1.7443360000033863,2447.9681045000034,,,,,,272593,B,2024-12-07_11h38.48.455,EPIDM,2023.1.2,None,
P077.jpg,A041.jpg,1 Point,1 Point,440 points,PS2_L8.csv,,,,,,,,,,,,,,,,,,,,,,,,,,,,,0,7,7,7,0,6,6,6,,,,,,,,,,,,,,,,,,,2452.2183457499923,q,0.5632980420050444,2452.92909125,,,,,,272593,B,2024-12-07_11h38.48.455,EPIDM,2023.1.2,None,
6550.jpg,9582.jpg,5 Points,5 Points,445 points,PS2_L8.csv,,,,,,,,,,,,,,,,,,,,,,,,,,,,,0,7,7,7,0,7,7,7,,,,,,,,,,,,,,,,,,,2457.1062673330016,q,1.3396567500167293,2458.5487617909967,,,,,,272593,B,2024-12-07_11h38.48.455,EPIDM,2023.1.2,None,
8040.jpg,7185.jpg,1 Point,1 Point,446 points,PS2_L8.csv,,,,,,,,,,,,,,,,,,,,,,,,,,,,,0,7,7,7,0,8,8,8,,,,,,,,,,,,,,,,,,,2462.7611435829895,q,1.060345000019879,2463.894813291001,,,,,,272593,B,2024-12-07_11h38.48.455,EPIDM,2023.1.2,None,
P233.jpg,3060.jpg,1 Point,1 Point,447 points,PS2_L8.csv,,,,,,,,,,,,,,,,,,,,,,,,,,,,,0,7,7,7,0,9,9,9,,,,,,,,,,,,,,,,,,,2468.144096707998,p,1.2928564170142636,2469.5485202499985,,,,,,272593,B,2024-12-07_11h38.48.455,EPIDM,2023.1.2,None,
1090.jpg,P217.jpg,5 Points,5 Points,452 points,PS2_L8.csv,,,,,,,,,,,,,,,,,,,,,,,,,,,,,0,7,7,7,0,10,10,10,,,,,,,,,,,,,,,,,,,2473.771325499998,q,1.9700688750162954,2475.8485089579917,,,,,,272593,B,2024-12-07_11h38.48.455,EPIDM,2023.1.2,None,
9405.jpg,6250.2.jpg,3 Points,3 Points,455 points,PS2_L8.csv,,,,,,,,,,,,,,,,,,,,,,,,,,,,,0,7,7,7,0,11,11,11,,,,,,,,,,,,,,,,,,,2480.050612915991,q,1.1943616250064224,2481.3552972909965,,,,,,272593,B,2024-12-07_11h38.48.455,EPIDM,2023.1.2,None,
1610.jpg,F203.jpg,0 Points,0 Points,455 points,PS2_L8.csv,,,,,,,,,,,,,,,,,,,,,,,,,,,,,0,7,7,7,0,12,12,12,,,,,,,,,,,,,,,,,,,2485.560861207996,p,2.1884999580070144,2487.8525964159926,,,,,,272593,B,2024-12-07_11h38.48.455,EPIDM,2023.1.2,None,
P222.jpg,9401.jpg,2 Points,2 Points,457 points,PS2_L8.csv,,,,,,,,,,,,,,,,,,,,,,,,,,,,,0,7,7,7,0,13,13,13,,,,,,,,,,,,,,,,,,,2492.065489916,p,1.0435898330179043,2493.2204232079966,2,1.3445191670180066,,,,272593,B,2024-12-07_11h38.48.455,EPIDM,2023.1.2,None,
5471.jpg,7352.jpg,2 Points,2 Points,459 points,PS2_L8.csv,,,,,,,,,,,,,,,,,,,,,,,,,,,,,0,7,7,7,0,14,14,14,,,,,,,,,,,,,,,,,,,2498.8775139579957,q,0.8875755420158384,2499.8309444999904,,,,,,272593,B,2024-12-07_11h38.48.455,EPIDM,2023.1.2,None,
9042.jpg,2753.jpg,0 Points,0 Points,459 points,PS2_L8.csv,,,,,,,,,,,,,,,,,,,,,,,,,,,,,0,7,7,7,0,15,15,15,,,,,,,,,,,,,,,,,,,2504.076784541001,q,1.886462250011391,2506.029709249997,,,,,,272593,B,2024-12-07_11h38.48.455,EPIDM,2023.1.2,None,
8311.jpg,4609.jpg,2 Points,2 Points,461 points,PS2_L8.csv,,,,,,,,,,,,,,,,,,,,,,,,,,,,,0,7,7,7,0,16,16,16,,,,,,,,,,,,,,,,,,,2510.2868432499963,q,1.4932235830056015,2511.8489927079936,,,,,,272593,B,2024-12-07_11h38.48.455,EPIDM,2023.1.2,None,
2320.jpg,2791.jpg,4 Points,4 Points,465 points,PS2_L8.csv,,,,,,,,,,,,,,,,,,,,,,,,,,,,,0,7,7,7,0,17,17,17,,,,,,,,,,,,,,,,,,,2516.1033371660014,p,2.275480875003268,2518.444922249997,,,,,,272593,B,2024-12-07_11h38.48.455,EPIDM,2023.1.2,None,
F365.jpg,3180.jpg,5 Points,5 Points,470 points,PS2_L8.csv,,,,,,,,,,,,,,,,,,,,,,,,,,,,,0,7,7,7,0,18,18,18,,,,,,,,,,,,,,,,,,,2522.699275207997,p,1.4562896670104237,2524.2604998329916,,,,,,272593,B,2024-12-07_11h38.48.455,EPIDM,2023.1.2,None,
9300.jpg,1050.jpg,4 Points,4 Points,474 points,PS2_L8.csv,,,,,,,,,,,,,,,,,,,,,,,,,,,,,0,7,7,7,0,19,19,19,,,,,,,,,,,,,,,,,,,2528.4815501249977,p,1.3868625000031898,2529.9569327909994,,,,,,272593,B,2024-12-07_11h38.48.455,EPIDM,2023.1.2,None,
6150.jpg,2206.jpg,0 Points,0 Points,474 points,PS2_L8.csv,,,,,,,,,,,,,,,,,,,,,,,,,,,,,0,7,7,7,0,20,20,20,,,,,,,,,,,,,,,,,,,2534.180853500002,p,2.2947087080101483,2536.5505682499934,,,,,,272593,B,2024-12-07_11h38.48.455,EPIDM,2023.1.2,None,
6260.jpg,3062.jpg,3 Points,3 Points,477 points,PS2_L8.csv,,,,,,,,,,,,,,,,,,,,,,,,,,,,,0,7,7,7,0,21,21,21,,,,,,,,,,,,,,,,,,,2540.796293249994,p,1.2316867920162622,2542.097252874999,,,,,,272593,B,2024-12-07_11h38.48.455,EPIDM,2023.1.2,None,
6571.jpg,P237.jpg,2 Points,2 Points,479 points,PS2_L8.csv,,,,,,,,,,,,,,,,,,,,,,,,,,,,,0,7,7,7,0,22,22,22,,,,,,,,,,,,,,,,,,,2546.352761749993,q,1.2587409999978263,2547.7188590000005,,,,,,272593,B,2024-12-07_11h38.48.455,EPIDM,2023.1.2,None,
7283.jpg,1720.jpg,4 Points,4 Points,483 points,PS2_L8.csv,,,,,,,,,,,,,,,,,,,,,,,,,,,,,0,7,7,7,0,23,23,23,,,,,,,,,,,,,,,,,,,2551.9229002499924,p,2.1838687080162345,2554.185327500003,,,2564.665521832998,space,23.377272417012136,272593,B,2024-12-07_11h38.48.455,EPIDM,2023.1.2,None,
3160.jpg,6210.jpg,1 Point,1 Point,484 points,PS2_L9.csv,,,,,,,,,,,,,,,,,,,,,,,,,,,,,0,8,8,8,0,0,0,0,,,,,,,,,,,,,,,,,,,2591.3578259579954,p,0.7469701670052018,2592.182734957998,,,,,,272593,B,2024-12-07_11h38.48.455,EPIDM,2023.1.2,None,
2100.jpg,7205.jpg,5 Points,5 Points,489 points,PS2_L9.csv,,,,,,,,,,,,,,,,,,,,,,,,,,,,,0,8,8,8,0,1,1,1,,,,,,,,,,,,,,,,,,,2596.427942333001,q,1.0306634580047103,2597.5297051249945,5,1.9926705000107177,,,,272593,B,2024-12-07_11h38.48.455,EPIDM,2023.1.2,None,
9110.jpg,3051.jpg,1 Point,1 Point,490 points,PS2_L9.csv,,,,,,,,,,,,,,,,,,,,,,,,,,,,,0,8,8,8,0,2,2,2,,,,,,,,,,,,,,,,,,,2603.838203708001,q,0.7550815830181818,2604.6732269159984,,,,,,272593,B,2024-12-07_11h38.48.455,EPIDM,2023.1.2,None,
9101.jpg,9571.jpg,2 Points,2 Points,492 points,PS2_L9.csv,,,,,,,,,,,,,,,,,,,,,,,,,,,,,0,8,8,8,0,3,3,3,,,,,,,,,,,,,,,,,,,2608.9074274579907,p,1.3985289170086617,2610.3777582499897,,,,,,272593,B,2024-12-07_11h38.48.455,EPIDM,2023.1.2,None,
5410.jpg,1450.jpg,5 Points,5 Points,497 points,PS2_L9.csv,,,,,,,,,,,,,,,,,,,,,,,,,,,,,0,8,8,8,0,4,4,4,,,,,,,,,,,,,,,,,,,2614.617264332992,q,0.7838599590177182,2615.4607710830023,,,,,,272593,B,2024-12-07_11h38.48.455,EPIDM,2023.1.2,None,
F149.jpg,3030.jpg,0 Points,0 Points,497 points,PS2_L9.csv,,,,,,,,,,,,,,,,,,,,,,,,,,,,,0,8,8,8,0,5,5,5,,,,,,,,,,,,,,,,,,,2619.7132959579903,q,1.0159811250050552,2620.8328332910023,,,,,,272593,B,2024-12-07_11h38.48.455,EPIDM,2023.1.2,None,
3266.jpg,7360.jpg,1 Point,1 Point,498 points,PS2_L9.csv,,,,,,,,,,,,,,,,,,,,,,,,,,,,,0,8,8,8,0,6,6,6,,,,,,,,,,,,,,,,,,,2625.0420214579935,q,0.9835143330128631,2626.0994396659953,,,,,,272593,B,2024-12-07_11h38.48.455,EPIDM,2023.1.2,None,
5660.jpg,5201.jpg,0 Points,0 Points,498 points,PS2_L9.csv,,,,,,,,,,,,,,,,,,,,,,,,,,,,,0,8,8,8,0,7,7,7,,,,,,,,,,,,,,,,,,,2630.3472223330027,p,1.38157612500072,2631.8058374579996,,,,,,272593,B,2024-12-07_11h38.48.455,EPIDM,2023.1.2,None,
1945.jpg,2800.jpg,4 Points,4 Points,502 points,PS2_L9.csv,,,,,,,,,,,,,,,,,,,,,,,,,,,,,0,8,8,8,0,8,8,8,,,,,,,,,,,,,,,,,,,2636.0571293749963,q,2.358767917015939,2638.4861209579976,,,,,,272593,B,2024-12-07_11h38.48.455,EPIDM,2023.1.2,None,
3000.jpg,6200.jpg,5 Points,5 Points,507 points,PS2_L9.csv,,,,,,,,,,,,,,,,,,,,,,,,,,,,,0,8,8,8,0,9,9,9,,,,,,,,,,,,,,,,,,,2642.7400801249896,p,0.5882423340081004,2643.3996242499998,,,,,,272593,B,2024-12-07_11h38.48.455,EPIDM,2023.1.2,None,
2215.jpg,2512.jpg,1 Point,1 Point,508 points,PS2_L9.csv,,,,,,,,,,,,,,,,,,,,,,,,,,,,,0,8,8,8,0,10,10,10,,,,,,,,,,,,,,,,,,,2647.6461282910022,p,1.5536841670109425,2649.2712525410025,,,,,,272593,B,2024-12-07_11h38.48.455,EPIDM,2023.1.2,None,
5460.jpg,5800.jpg,0 Points,0 Points,508 points,PS2_L9.csv,,,,,,,,,,,,,,,,,,,,,,,,,,,,,0,8,8,8,0,11,11,11,,,,,,,,,,,,,,,,,,,2653.5165262910014,q,0.4604182910115924,2654.068686957995,,,,,,272593,B,2024-12-07_11h38.48.455,EPIDM,2023.1.2,None,
3061.jpg,2717.jpg,4 Points,4 Points,512 points,PS2_L9.csv,,,,,,,,,,,,,,,,,,,,,,,,,,,,,0,8,8,8,0,12,12,12,,,,,,,,,,,,,,,,,,,2658.313250166,p,1.0627471670159139,2659.4517065830005,,,,,,272593,B,2024-12-07_11h38.48.455,EPIDM,2023.1.2,None,
7380.jpg,1220.jpg,1 Point,1 Point,513 points,PS2_L9.csv,,,,,,,,,,,,,,,,,,,,,,,,,,,,,0,8,8,8,0,13,13,13,,,,,,,,,,,,,,,,,,,2663.7106205409946,p,1.0169610830052989,2664.7863602080033,1,1.159417625007336,,,,272593,B,2024-12-07_11h38.48.455,EPIDM,2023.1.2,None,
1740.jpg,7480.jpg,0 Points,0 Points,513 points,PS2_L9.csv,,,,,,,,,,,,,,,,,,,,,,,,,,,,,0,8,8,8,0,14,14,14,,,,,,,,,,,,,,,,,,,2670.2812013329967,q,1.5660420420172159,2671.907280540996,,,,,,272593,B,2024-12-07_11h38.48.455,EPIDM,2023.1.2,None,
7285.jpg,4233.jpg,5 Points,5 Points,518 points,PS2_L9.csv,,,,,,,,,,,,,,,,,,,,,,,,,,,,,0,8,8,8,0,15,15,15,,,,,,,,,,,,,,,,,,,2676.158013291002,q,2.18568866699934,2678.4272810830007,,,,,,272593,B,2024-12-07_11h38.48.455,EPIDM,2023.1.2,None,
6830.jpg,6212.jpg,4 Points,4 Points,522 points,PS2_L9.csv,,,,,,,,,,,,,,,,,,,,,,,,,,,,,0,8,8,8,0,16,16,16,,,,,,,,,,,,,,,,,,,2682.665980165999,q,1.2471746670053108,2683.9757532079966,,,,,,272593,B,2024-12-07_11h38.48.455,EPIDM,2023.1.2,None,
7830.jpg,2499.jpg,3 Points,3 Points,525 points,PS2_L9.csv,,,,,,,,,,,,,,,,,,,,,,,,,,,,,0,8,8,8,0,17,17,17,,,,,,,,,,,,,,,,,,,2688.2247539160016,p,1.8220821250142762,2690.1190934999904,,,,,,272593,B,2024-12-07_11h38.48.455,EPIDM,2023.1.2,None,
9520.jpg,1931.jpg,3 Points,3 Points,528 points,PS2_L9.csv,,,,,,,,,,,,,,,,,,,,,,,,,,,,,0,8,8,8,0,18,18,18,,,,,,,,,,,,,,,,,,,2694.365823040993,q,2.1062022920086747,2696.5252158329968,,,,,,272593,B,2024-12-07_11h38.48.455,EPIDM,2023.1.2,None,
9160.jpg,1200.jpg,4 Points,4 Points,532 points,PS2_L9.csv,,,,,,,,,,,,,,,,,,,,,,,,,,,,,0,8,8,8,0,19,19,19,,,,,,,,,,,,,,,,,,,2700.7886645830004,q,1.1940733330120565,2702.058978999994,,,,,,272593,B,2024-12-07_11h38.48.455,EPIDM,2023.1.2,None,
2020.jpg,1947.jpg,5 Points,5 Points,537 points,PS2_L9.csv,,,,,,,,,,,,,,,,,,,,,,,,,,,,,0,8,8,8,0,20,20,20,,,,,,,,,,,,,,,,,,,2706.305155957991,q,0.7344632500025909,2707.1196051659936,,,,,,272593,B,2024-12-07_11h38.48.455,EPIDM,2023.1.2,None,
4535.jpg,1811.jpg,1 Point,1 Point,538 points,PS2_L9.csv,,,,,,,,,,,,,,,,,,,,,,,,,,,,,0,8,8,8,0,21,21,21,,,,,,,,,,,,,,,,,,,2711.3681342499913,p,1.071738083017408,2712.5116245410027,,,,,,272593,B,2024-12-07_11h38.48.455,EPIDM,2023.1.2,None,
9910.jpg,6940.jpg,2 Points,2 Points,540 points,PS2_L9.csv,,,,,,,,,,,,,,,,,,,,,,,,,,,,,0,8,8,8,0,22,22,22,,,,,,,,,,,,,,,,,,,2716.7478334999905,q,1.554964083014056,2718.377624582994,,,,,,272593,B,2024-12-07_11h38.48.455,EPIDM,2023.1.2,None,
9480.jpg,9250.jpg,0 Points,0 Points,540 points,PS2_L9.csv,,,,,,,,,,,,,,,,,,,,,,,,,,,,,0,8,8,8,0,23,23,23,,,,,,,,,,,,,,,,,,,2722.6211987080023,p,1.7216164170240518,2724.4019189160026,,,2734.9158814580005,space,13.48952170801931,272593,B,2024-12-07_11h38.48.455,EPIDM,2023.1.2,None,
1660.jpg,2840.jpg,2 Points,2 Points,542 points,PS2_L10.csv,,,,,,,,,,,,,,,,,,,,,,,,,,,,,0,9,9,9,0,0,0,0,,,,,,,,,,,,,,,,,,,2751.7174532909994,q,1.5281744170060847,2753.3292484999984,,,,,,272593,B,2024-12-07_11h38.48.455,EPIDM,2023.1.2,None,
2691.jpg,7640.jpg,0 Points,0 Points,542 points,PS2_L10.csv,,,,,,,,,,,,,,,,,,,,,,,,,,,,,0,9,9,9,0,1,1,1,,,,,,,,,,,,,,,,,,,2757.574601540997,p,1.1110891250136774,2758.752981957994,0,1.6703955420089187,,,,272593,B,2024-12-07_11h38.48.455,EPIDM,2023.1.2,None,
9180.jpg,9046.jpg,3 Points,3 Points,545 points,PS2_L10.csv,,,,,,,,,,,,,,,,,,,,,,,,,,,,,0,9,9,9,0,2,2,2,,,,,,,,,,,,,,,,,,,2764.7230556249997,q,0.46698712500801776,2765.2535967500007,,,,,,272593,B,2024-12-07_11h38.48.455,EPIDM,2023.1.2,None,
8041.jpg,2271.jpg,2 Points,2 Points,547 points,PS2_L10.csv,,,,,,,,,,,,,,,,,,,,,,,,,,,,,0,9,9,9,0,3,3,3,,,,,,,,,,,,,,,,,,,2769.5086144160014,p,0.9451170829997864,2770.5244151249935,,,,,,272593,B,2024-12-07_11h38.48.455,EPIDM,2023.1.2,None,
1661.jpg,1321.jpg,3 Points,3 Points,550 points,PS2_L10.csv,,,,,,,,,,,,,,,,,,,,,,,,,,,,,0,9,9,9,0,4,4,4,,,,,,,,,,,,,,,,,,,2774.779686875001,q,1.345966959008365,2776.1921010829974,,,,,,272593,B,2024-12-07_11h38.48.455,EPIDM,2023.1.2,None,
9430.jpg,3010.jpg,5 Points,5 Points,555 points,PS2_L10.csv,,,,,,,,,,,,,,,,,,,,,,,,,,,,,0,9,9,9,0,5,5,5,,,,,,,,,,,,,,,,,,,2780.447213749998,q,0.8304265000188025,2781.329784040994,,,,,,272593,B,2024-12-07_11h38.48.455,EPIDM,2023.1.2,None,
2616.jpg,7238.jpg,4 Points,4 Points,559 points,PS2_L10.csv,,,,,,,,,,,,,,,,,,,,,,,,,,,,,0,9,9,9,0,6,6,6,,,,,,,,,,,,,,,,,,,2785.591746582999,p,0.6530375000002095,2786.3171186659893,,,,,,272593,B,2024-12-07_11h38.48.455,EPIDM,2023.1.2,None,
9470.jpg,9400.jpg,3 Points,3 Points,562 points,PS2_L10.csv,,,,,,,,,,,,,,,,,,,,,,,,,,,,,0,9,9,9,0,7,7,7,,,,,,,,,,,,,,,,,,,2790.5722647079965,q,1.2807527920085704,2791.9182970409893,,,,,,272593,B,2024-12-07_11h38.48.455,EPIDM,2023.1.2,None,
8260.jpg,8280.jpg,3 Points,3 Points,565 points,PS2_L10.csv,,,,,,,,,,,,,,,,,,,,,,,,,,,,,0,9,9,9,0,8,8,8,,,,,,,,,,,,,,,,,,,2796.1691149160033,q,0.9721049170038896,2797.1979630409915,,,,,,272593,B,2024-12-07_11h38.48.455,EPIDM,2023.1.2,None,
9230.jpg,9181.jpg,0 Points,0 Points,565 points,PS2_L10.csv,,,,,,,,,,,,,,,,,,,,,,,,,,,,,0,9,9,9,0,9,9,9,,,,,,,,,,,,,,,,,,,2801.44954758299,p,1.0273491660045693,2802.549067499989,,,,,,272593,B,2024-12-07_11h38.48.455,EPIDM,2023.1.2,None,
6834.jpg,9120.jpg,5 Points,5 Points,570 points,PS2_L10.csv,,,,,,,,,,,,,,,,,,,,,,,,,,,,,0,9,9,9,0,10,10,10,,,,,,,,,,,,,,,,,,,2806.802696083003,q,1.753687083008117,2808.6148833329935,,,,,,272593,B,2024-12-07_11h38.48.455,EPIDM,2023.1.2,None,
2440.jpg,7351.jpg,4 Points,4 Points,574 points,PS2_L10.csv,,,,,,,,,,,,,,,,,,,,,,,,,,,,,0,9,9,9,0,11,11,11,,,,,,,,,,,,,,,,,,,2812.8736795000004,q,2.6830768750078278,2815.631882916001,,,,,,272593,B,2024-12-07_11h38.48.455,EPIDM,2023.1.2,None,
9280.jpg,9390.jpg,1 Point,1 Point,575 points,PS2_L10.csv,,,,,,,,,,,,,,,,,,,,,,,,,,,,,0,9,9,9,0,12,12,12,,,,,,,,,,,,,,,,,,,2819.8761769999983,p,1.0644531670113793,2821.015032665993,,,,,,272593,B,2024-12-07_11h38.48.455,EPIDM,2023.1.2,None,
7186.jpg,9182.jpg,2 Points,2 Points,577 points,PS2_L10.csv,,,,,,,,,,,,,,,,,,,,,,,,,,,,,0,9,9,9,0,13,13,13,,,,,,,,,,,,,,,,,,,2825.262050249992,q,1.6306692090147408,2826.9711236250005,2,3.255632708009216,,,,272593,B,2024-12-07_11h38.48.455,EPIDM,2023.1.2,None,
7820.jpg,1121.jpg,0 Points,0 Points,577 points,PS2_L10.csv,,,,,,,,,,,,,,,,,,,,,,,,,,,,,0,9,9,9,0,14,14,14,,,,,,,,,,,,,,,,,,,2834.5488711249927,q,0.8385605000075884,2835.467559500001,,,,,,272593,B,2024-12-07_11h38.48.455,EPIDM,2023.1.2,None,
1110.jpg,9331.jpg,2 Points,2 Points,579 points,PS2_L10.csv,,,,,,,,,,,,,,,,,,,,,,,,,,,,,0,9,9,9,0,15,15,15,,,,,,,,,,,,,,,,,,,2839.714840332992,q,2.3131605830130866,2842.0974297499924,,,,,,272593,B,2024-12-07_11h38.48.455,EPIDM,2023.1.2,None,
9001.jpg,9620.jpg,1 Point,1 Point,580 points,PS2_L10.csv,,,,,,,,,,,,,,,,,,,,,,,,,,,,,0,9,9,9,0,16,16,16,,,,,,,,,,,,,,,,,,,2846.356389374996,q,0.8556268329994055,2847.2885481249978,,,,,,272593,B,2024-12-07_11h38.48.455,EPIDM,2023.1.2,None,
5535.jpg,8210.jpg,3 Points,3 Points,583 points,PS2_L10.csv,,,,,,,,,,,,,,,,,,,,,,,,,,,,,0,9,9,9,0,17,17,17,,,,,,,,,,,,,,,,,,,2851.5310942499927,q,0.7606783750088653,2852.3596100409923,,,,,,272593,B,2024-12-07_11h38.48.455,EPIDM,2023.1.2,None,
7950.jpg,7187.jpg,1 Point,1 Point,584 points,PS2_L10.csv,,,,,,,,,,,,,,,,,,,,,,,,,,,,,0,9,9,9,0,18,18,18,,,,,,,,,,,,,,,,,,,2856.6027744579915,p,1.152200125012314,2857.823913125001,,,,,,272593,B,2024-12-07_11h38.48.455,EPIDM,2023.1.2,None,
3250.jpg,A053.jpg,3 Points,3 Points,587 points,PS2_L10.csv,,,,,,,,,,,,,,,,,,,,,,,,,,,,,0,9,9,9,0,19,19,19,,,,,,,,,,,,,,,,,,,2862.093763333003,p,1.6149625840043882,2863.8039389159967,,,,,,272593,B,2024-12-07_11h38.48.455,EPIDM,2023.1.2,None,
2205.jpg,3053.jpg,4 Points,4 Points,591 points,PS2_L10.csv,,,,,,,,,,,,,,,,,,,,,,,,,,,,,0,9,9,9,0,20,20,20,,,,,,,,,,,,,,,,,,,2868.0176308329974,q,0.8095542080118321,2868.9278909580025,,,,,,272593,B,2024-12-07_11h38.48.455,EPIDM,2023.1.2,None,
5594.jpg,5750.jpg,5 Points,5 Points,596 points,PS2_L10.csv,,,,,,,,,,,,,,,,,,,,,,,,,,,,,0,9,9,9,0,21,21,21,,,,,,,,,,,,,,,,,,,2873.143516290991,q,0.5390744170144899,2873.752511083003,,,,,,272593,B,2024-12-07_11h38.48.455,EPIDM,2023.1.2,None,
6900.jpg,8531.jpg,4 Points,4 Points,600 points,PS2_L10.csv,,,,,,,,,,,,,,,,,,,,,,,,,,,,,0,9,9,9,0,22,22,22,,,,,,,,,,,,,,,,,,,2878.0003771659976,q,1.3710323330160463,2879.4385686250025,,,,,,272593,B,2024-12-07_11h38.48.455,EPIDM,2023.1.2,None,
1019.jpg,2120.jpg,0 Points,0 Points,600 points,PS2_L10.csv,,,,,,,,,,,,,,,,,,,,,,,,,,,,,0,9,9,9,0,23,23,23,,,,,,,,,,,,,,,,,,,2883.6912982499925,q,0.6234063340089051,2884.3961327080033,,,2894.861416999993,space,4.405524542016792,272593,B,2024-12-07_11h38.48.455,EPIDM,2023.1.2,None,
