L_Scene,R_Scene,Points_L,Points_R,PtTotal,blockFile,Instructions_Loop.thisRepN,Instructions_Loop.thisTrialN,Instructions_Loop.thisN,Instructions_Loop.thisIndex,Redo_Instructions_Loop.thisRepN,Redo_Instructions_Loop.thisTrialN,Redo_Instructions_Loop.thisN,Redo_Instructions_Loop.thisIndex,Practice_Encoding_Loop.thisRepN,Practice_Encoding_Loop.thisTrialN,Practice_Encoding_Loop.thisN,Practice_Encoding_Loop.thisIndex,Practice_Response_Fail_Loop.thisRepN,Practice_Response_Fail_Loop.thisTrialN,Practice_Response_Fail_Loop.thisN,Practice_Response_Fail_Loop.thisIndex,Practice_FB_Loop.thisRepN,Practice_FB_Loop.thisTrialN,Practice_FB_Loop.thisN,Practice_FB_Loop.thisIndex,Practice_Attention_Loop.thisRepN,Practice_Attention_Loop.thisTrialN,Practice_Attention_Loop.thisN,Practice_Attention_Loop.thisIndex,Practice_EncBrk_Loop.thisRepN,Practice_EncBrk_Loop.thisTrialN,Practice_EncBrk_Loop.thisN,Practice_EncBrk_Loop.thisIndex,Encoding_Loop.thisRepN,Encoding_Loop.thisTrialN,Encoding_Loop.thisN,Encoding_Loop.thisIndex,EncStim_Loop.thisRepN,EncStim_Loop.thisTrialN,EncStim_Loop.thisN,EncStim_Loop.thisIndex,Response_Fail_Loop.thisRepN,Response_Fail_Loop.thisTrialN,Response_Fail_Loop.thisN,Response_Fail_Loop.thisIndex,FB_Loop.thisRepN,FB_Loop.thisTrialN,FB_Loop.thisN,FB_Loop.thisIndex,Attention_Loop.thisRepN,Attention_Loop.thisTrialN,Attention_Loop.thisN,Attention_Loop.thisIndex,EncBrk_Loop.thisRepN,EncBrk_Loop.thisTrialN,EncBrk_Loop.thisN,EncBrk_Loop.thisIndex,Transition_Enc.keys,Transition_Enc.rt,Encoding_Resp.started,Encoding_Resp.keys,Encoding_Resp.rt,R_Point_FB_Stim.started,Attn_resp.keys,Attn_resp.rt,Progress_Tracker.started,EncBrk_Resp.keys,EncBrk_Resp.rt,participant,Group,date,expName,psychopyVersion,frameRate,
,,,,,,,,,,,,,,,,,,,,,,,,,,,,,,,,,,,,,,,,,,,,,,,,,,,,,,,,,,space,5.074783333009691,,,,,,,,,,272101,A,2024-12-07_12h41.15.701,EPIDM,2023.1.2,None,
A060.jpg,F041.jpg,5 Points,5 Points,5 Points,,,,,,,,,,0,0,0,0,,,,,,,,,,,,,,,,,,,,,,,,,,,,,,,,,,,,,,,,,,,1504.7149515419878,None,,,,,,,,272101,A,2024-12-07_12h41.15.701,EPIDM,2023.1.2,None,
O161.jpg,1812.jpg,2 Points,2 Points,7 Points,,,,,,,,,,0,1,1,1,,,,,,,,,,,,,,,,,,,,,,,,,,,,,,,,,,,,,,,,,,,1512.2383863750001,p,1.7310584170045331,1514.085593166994,,,,,,272101,A,2024-12-07_12h41.15.701,EPIDM,2023.1.2,None,
O013.jpg,A001.jpg,3 Points,3 Points,10 Points,,,,,,,,,,0,2,2,2,,,,,,,,,,,,,,,,,,,,,,,,,,,,,,,,,,,,,,,,,,,1518.2902362919995,p,1.7821227500098757,1520.2534238329972,,,,,,272101,A,2024-12-07_12h41.15.701,EPIDM,2023.1.2,None,
P036.jpg,F273.jpg,5 Points,5 Points,15 Points,,,,,,,,,,0,3,3,3,,,,,,,,,,,,,,,,,,,,,,,,,,,,,,,,,,,,,,,,,,,1524.401157291999,q,1.8871058740041917,1526.4488139579917,,,,,,272101,A,2024-12-07_12h41.15.701,EPIDM,2023.1.2,None,
L130.jpg,2393.jpg,0 Points,0 Points,15 Points,,,,,,,,,,0,4,4,4,,,,,,,,,,,,,,,,,,,,,,,,,,,,,,,,,,,,,,,,,,,1530.6038078329875,q,2.6605381249974016,1533.4060685419972,0,6.357187208006508,,,,272101,A,2024-12-07_12h41.15.701,EPIDM,2023.1.2,None,
F279.jpg,P033.jpg,3 Points,3 Points,18 Points,,,,,,,,,,0,5,5,5,,,,,,,,,,,,,,,,,,,,,,,,,,,,,,,,,,,,,,,,,,,1544.0439602499973,q,1.6828324579983018,1545.8673155829892,,,,,,272101,A,2024-12-07_12h41.15.701,EPIDM,2023.1.2,None,
A104.jpg,2593.jpg,2 Points,2 Points,20 Points,,,,,,,,,,0,6,6,6,,,,,,,,,,,,,,,,,,,,,,,,,,,,,,,,,,,,,,,,,,,1550.0534735419933,p,1.210359791002702,1551.4015704170015,,,,,,272101,A,2024-12-07_12h41.15.701,EPIDM,2023.1.2,None,
2598.jpg,2605.jpg,0 Points,0 Points,20 Points,,,,,,,,,,0,7,7,7,,,,,,,,,,,,,,,,,,,,,,,,,,,,,,,,,,,,,,,,,,,1555.5816829999967,q,1.4031784160033567,1557.0450044169993,,,,,,272101,A,2024-12-07_12h41.15.701,EPIDM,2023.1.2,None,
L005.jpg,O011.jpg,1 Points,1 Points,21 Points,,,,,,,,,,0,8,8,8,,,,,,,,,,,,,,,,,,,,,,,,,,,,,,,,,,,,,,,,,,,1561.302699791995,q,1.416997790991445,1562.8643664999981,,,,,,272101,A,2024-12-07_12h41.15.701,EPIDM,2023.1.2,None,
8186.jpg,F078.jpg,2 Points,2 Points,23 Points,,,,,,,,,,0,9,9,9,,,,,,,,,,,,,,,,,,,,,,,,,,,,,,,,,,,,,,,,,,,1567.0462587079965,q,1.305946666005184,1568.4901233329874,2,2.5761690829967847,1581.3399179169937,space,55.26493875001324,272101,A,2024-12-07_12h41.15.701,EPIDM,2023.1.2,None,
,,,,,,,,,,,,,,,,,,,,,,,,,,,,,,,,,,,,,,,,,,,,,,,,,,,,,,,,,,space,15.59272383300413,,,,,,,,,,272101,A,2024-12-07_12h41.15.701,EPIDM,2023.1.2,None,
1019.jpg,2120.jpg,0 Points,0 Points,0 Points,PS1_L1.csv,,,,,,,,,,,,,,,,,,,,,,,,,,,,,0,0,0,0,0,0,0,0,,,,,,,,,,,,,,,,,,,1671.8945852920006,q,1.1903692500054603,1673.195014291996,,,,,,272101,A,2024-12-07_12h41.15.701,EPIDM,2023.1.2,None,
6900.jpg,8531.jpg,4 Points,4 Points,4 Points,PS1_L1.csv,,,,,,,,,,,,,,,,,,,,,,,,,,,,,0,0,0,0,0,1,1,1,,,,,,,,,,,,,,,,,,,1677.400775666989,q,1.421320541005116,1678.8839595419995,4,1.7187773329933407,,,,272101,A,2024-12-07_12h41.15.701,EPIDM,2023.1.2,None,
5594.jpg,5750.jpg,5 Points,5 Points,9 Points,PS1_L1.csv,,,,,,,,,,,,,,,,,,,,,,,,,,,,,0,0,0,0,0,2,2,2,,,,,,,,,,,,,,,,,,,1684.907152499989,p,1.4014172080060234,1686.3798800829973,,,,,,272101,A,2024-12-07_12h41.15.701,EPIDM,2023.1.2,None,
2205.jpg,3053.jpg,4 Points,4 Points,13 Points,PS1_L1.csv,,,,,,,,,,,,,,,,,,,,,,,,,,,,,0,0,0,0,0,3,3,3,,,,,,,,,,,,,,,,,,,1690.625981707999,p,1.3942976249963976,1692.0887241249875,,,,,,272101,A,2024-12-07_12h41.15.701,EPIDM,2023.1.2,None,
3250.jpg,A053.jpg,3 Points,3 Points,16 Points,PS1_L1.csv,,,,,,,,,,,,,,,,,,,,,,,,,,,,,0,0,0,0,0,4,4,4,,,,,,,,,,,,,,,,,,,1696.3332413329917,p,2.2070142920129,1698.6445345419925,,,,,,272101,A,2024-12-07_12h41.15.701,EPIDM,2023.1.2,None,
7950.jpg,7187.jpg,1 Point,1 Point,17 Points,PS1_L1.csv,,,,,,,,,,,,,,,,,,,,,,,,,,,,,0,0,0,0,0,5,5,5,,,,,,,,,,,,,,,,,,,1702.866791499997,p,2.6978448330046376,1705.6311221249925,,,,,,272101,A,2024-12-07_12h41.15.701,EPIDM,2023.1.2,None,
5535.jpg,8210.jpg,3 Points,3 Points,20 Points,PS1_L1.csv,,,,,,,,,,,,,,,,,,,,,,,,,,,,,0,0,0,0,0,6,6,6,,,,,,,,,,,,,,,,,,,1709.8809502499935,q,2.7959920830035117,1712.7519717499963,,,,,,272101,A,2024-12-07_12h41.15.701,EPIDM,2023.1.2,None,
9001.jpg,9620.jpg,1 Point,1 Point,21 Points,PS1_L1.csv,,,,,,,,,,,,,,,,,,,,,,,,,,,,,0,0,0,0,0,7,7,7,,,,,,,,,,,,,,,,,,,1717.000229332989,q,2.7719031250016997,1719.8598992499901,,,,,,272101,A,2024-12-07_12h41.15.701,EPIDM,2023.1.2,None,
1110.jpg,9331.jpg,2 Points,2 Points,23 Points,PS1_L1.csv,,,,,,,,,,,,,,,,,,,,,,,,,,,,,0,0,0,0,0,8,8,8,,,,,,,,,,,,,,,,,,,1724.0903244169895,p,2.2823162490094546,1726.4469678749883,,,,,,272101,A,2024-12-07_12h41.15.701,EPIDM,2023.1.2,None,
7820.jpg,1121.jpg,0 Points,0 Points,23 Points,PS1_L1.csv,,,,,,,,,,,,,,,,,,,,,,,,,,,,,0,0,0,0,0,9,9,9,,,,,,,,,,,,,,,,,,,1730.6935847079876,q,2.670821125007933,1733.4252817919914,,,,,,272101,A,2024-12-07_12h41.15.701,EPIDM,2023.1.2,None,
7186.jpg,9182.jpg,2 Points,2 Points,25 Points,PS1_L1.csv,,,,,,,,,,,,,,,,,,,,,,,,,,,,,0,0,0,0,0,10,10,10,,,,,,,,,,,,,,,,,,,1737.6822721669887,p,1.1299165410164278,1738.8910199999955,,,,,,272101,A,2024-12-07_12h41.15.701,EPIDM,2023.1.2,None,
9280.jpg,9390.jpg,1 Point,1 Point,26 Points,PS1_L1.csv,,,,,,,,,,,,,,,,,,,,,,,,,,,,,0,0,0,0,0,11,11,11,,,,,,,,,,,,,,,,,,,1743.1233770830004,q,1.5917821250041015,1744.7880889999942,,,,,,272101,A,2024-12-07_12h41.15.701,EPIDM,2023.1.2,None,
2440.jpg,7351.jpg,4 Points,4 Points,30 Points,PS1_L1.csv,,,,,,,,,,,,,,,,,,,,,,,,,,,,,0,0,0,0,0,12,12,12,,,,,,,,,,,,,,,,,,,1749.029133249991,q,1.2940473329945235,1750.4038177079929,,,,,,272101,A,2024-12-07_12h41.15.701,EPIDM,2023.1.2,None,
6834.jpg,9120.jpg,5 Points,5 Points,35 Points,PS1_L1.csv,,,,,,,,,,,,,,,,,,,,,,,,,,,,,0,0,0,0,0,13,13,13,,,,,,,,,,,,,,,,,,,1754.6364955829922,q,1.9992833330034046,1756.7145765829919,5,1.844991416000994,,,,272101,A,2024-12-07_12h41.15.701,EPIDM,2023.1.2,None,
9230.jpg,9181.jpg,0 Points,0 Points,35 Points,PS1_L1.csv,,,,,,,,,,,,,,,,,,,,,,,,,,,,,0,0,0,0,0,14,14,14,,,,,,,,,,,,,,,,,,,1762.875337749996,p,2.1600731240032474,1765.0959112080018,,,,,,272101,A,2024-12-07_12h41.15.701,EPIDM,2023.1.2,None,
8260.jpg,8280.jpg,3 Points,3 Points,38 Points,PS1_L1.csv,,,,,,,,,,,,,,,,,,,,,,,,,,,,,0,0,0,0,0,15,15,15,,,,,,,,,,,,,,,,,,,1769.358960749989,p,1.7396496670116903,1771.1706887499895,,,,,,272101,A,2024-12-07_12h41.15.701,EPIDM,2023.1.2,None,
9470.jpg,9400.jpg,3 Points,3 Points,41 Points,PS1_L1.csv,,,,,,,,,,,,,,,,,,,,,,,,,,,,,0,0,0,0,0,16,16,16,,,,,,,,,,,,,,,,,,,1775.4233858329972,p,1.3311817909998354,1776.823515917,,,,,,272101,A,2024-12-07_12h41.15.701,EPIDM,2023.1.2,None,
2616.jpg,7238.jpg,4 Points,4 Points,45 Points,PS1_L1.csv,,,,,,,,,,,,,,,,,,,,,,,,,,,,,0,0,0,0,0,17,17,17,,,,,,,,,,,,,,,,,,,1781.082515999995,q,1.0476466240070295,1782.1967020829907,,,,,,272101,A,2024-12-07_12h41.15.701,EPIDM,2023.1.2,None,
9430.jpg,3010.jpg,5 Points,5 Points,50 Points,PS1_L1.csv,,,,,,,,,,,,,,,,,,,,,,,,,,,,,0,0,0,0,0,18,18,18,,,,,,,,,,,,,,,,,,,1786.4454754170001,p,2.2133610410091933,1788.7178164579964,,,,,,272101,A,2024-12-07_12h41.15.701,EPIDM,2023.1.2,None,
1661.jpg,1321.jpg,3 Points,3 Points,53 Points,PS1_L1.csv,,,,,,,,,,,,,,,,,,,,,,,,,,,,,0,0,0,0,0,19,19,19,,,,,,,,,,,,,,,,,,,1792.973950832995,p,3.5009452500089537,1796.5390476249886,,,,,,272101,A,2024-12-07_12h41.15.701,EPIDM,2023.1.2,None,
8041.jpg,2271.jpg,2 Points,2 Points,55 Points,PS1_L1.csv,,,,,,,,,,,,,,,,,,,,,,,,,,,,,0,0,0,0,0,20,20,20,,,,,,,,,,,,,,,,,,,1800.795281624989,p,2.2631460830016294,1803.1204180419882,,,,,,272101,A,2024-12-07_12h41.15.701,EPIDM,2023.1.2,None,
9180.jpg,9046.jpg,3 Points,3 Points,58 Points,PS1_L1.csv,,,,,,,,,,,,,,,,,,,,,,,,,,,,,0,0,0,0,0,21,21,21,,,,,,,,,,,,,,,,,,,1807.3811520000017,q,1.461337208005716,1808.9118278749957,,,,,,272101,A,2024-12-07_12h41.15.701,EPIDM,2023.1.2,None,
2691.jpg,7640.jpg,0 Points,0 Points,58 Points,PS1_L1.csv,,,,,,,,,,,,,,,,,,,,,,,,,,,,,0,0,0,0,0,22,22,22,,,,,,,,,,,,,,,,,,,1813.156712291995,p,2.476622957998188,1815.7007132500003,,,,,,272101,A,2024-12-07_12h41.15.701,EPIDM,2023.1.2,None,
1660.jpg,2840.jpg,2 Points,2 Points,60 Points,PS1_L1.csv,,,,,,,,,,,,,,,,,,,,,,,,,,,,,0,0,0,0,0,23,23,23,,,,,,,,,,,,,,,,,,,1819.9642080420017,q,1.8846523740066914,1821.9216232920007,,,1832.422497291991,space,5.115404083015164,272101,A,2024-12-07_12h41.15.701,EPIDM,2023.1.2,None,
9480.jpg,9250.jpg,0 Points,0 Points,60 Points,PS1_L2.csv,,,,,,,,,,,,,,,,,,,,,,,,,,,,,0,1,1,1,0,0,0,0,,,,,,,,,,,,,,,,,,,1840.8734997499996,p,2.2559532080049394,1843.203689499991,,,,,,272101,A,2024-12-07_12h41.15.701,EPIDM,2023.1.2,None,
9910.jpg,6940.jpg,2 Points,2 Points,62 Points,PS1_L2.csv,,,,,,,,,,,,,,,,,,,,,,,,,,,,,0,1,1,1,0,1,1,1,,,,,,,,,,,,,,,,,,,1847.4571278329968,q,3.127232290993561,1850.6469959999959,2,1.8062164169969037,,,,272101,A,2024-12-07_12h41.15.701,EPIDM,2023.1.2,None,
4535.jpg,1811.jpg,1 Point,1 Point,63 Points,PS1_L2.csv,,,,,,,,,,,,,,,,,,,,,,,,,,,,,0,1,1,1,0,2,2,2,,,,,,,,,,,,,,,,,,,1856.7782866249909,p,1.495147250010632,1858.3495593749976,,,,,,272101,A,2024-12-07_12h41.15.701,EPIDM,2023.1.2,None,
2020.jpg,1947.jpg,5 Points,5 Points,68 Points,PS1_L2.csv,,,,,,,,,,,,,,,,,,,,,,,,,,,,,0,1,1,1,0,3,3,3,,,,,,,,,,,,,,,,,,,1862.5971255829936,p,1.3943807080067927,1864.0686668749986,,,,,,272101,A,2024-12-07_12h41.15.701,EPIDM,2023.1.2,None,
9160.jpg,1200.jpg,4 Points,4 Points,72 Points,PS1_L2.csv,,,,,,,,,,,,,,,,,,,,,,,,,,,,,0,1,1,1,0,4,4,4,,,,,,,,,,,,,,,,,,,1868.3137896669941,p,2.574822666007094,1870.961361416994,,,,,,272101,A,2024-12-07_12h41.15.701,EPIDM,2023.1.2,None,
9520.jpg,1931.jpg,3 Points,3 Points,75 Points,PS1_L2.csv,,,,,,,,,,,,,,,,,,,,,,,,,,,,,0,1,1,1,0,5,5,5,,,,,,,,,,,,,,,,,,,1875.2005991249898,q,2.447336791010457,1877.7224352919875,,,,,,272101,A,2024-12-07_12h41.15.701,EPIDM,2023.1.2,None,
7830.jpg,2499.jpg,3 Points,3 Points,78 Points,PS1_L2.csv,,,,,,,,,,,,,,,,,,,,,,,,,,,,,0,1,1,1,0,6,6,6,,,,,,,,,,,,,,,,,,,1881.9694520420016,p,2.4307374580093892,1884.4644675000018,,,,,,272101,A,2024-12-07_12h41.15.701,EPIDM,2023.1.2,None,
6830.jpg,6212.jpg,4 Points,4 Points,82 Points,PS1_L2.csv,,,,,,,,,,,,,,,,,,,,,,,,,,,,,0,1,1,1,0,7,7,7,,,,,,,,,,,,,,,,,,,1888.7193377919903,p,1.5599997080134926,1890.3508508749946,,,,,,272101,A,2024-12-07_12h41.15.701,EPIDM,2023.1.2,None,
7285.jpg,4233.jpg,5 Points,5 Points,87 Points,PS1_L2.csv,,,,,,,,,,,,,,,,,,,,,,,,,,,,,0,1,1,1,0,8,8,8,,,,,,,,,,,,,,,,,,,1894.5994775419967,q,2.151890833003563,1896.8205683749984,,,,,,272101,A,2024-12-07_12h41.15.701,EPIDM,2023.1.2,None,
1740.jpg,7480.jpg,0 Points,0 Points,87 Points,PS1_L2.csv,,,,,,,,,,,,,,,,,,,,,,,,,,,,,0,1,1,1,0,9,9,9,,,,,,,,,,,,,,,,,,,1901.0660227920016,q,1.150297958010924,1902.282808249991,,,,,,272101,A,2024-12-07_12h41.15.701,EPIDM,2023.1.2,None,
7380.jpg,1220.jpg,1 Point,1 Point,88 Points,PS1_L2.csv,,,,,,,,,,,,,,,,,,,,,,,,,,,,,0,1,1,1,0,10,10,10,,,,,,,,,,,,,,,,,,,1906.5329797500017,p,1.4030922920064768,1907.9906430419942,,,,,,272101,A,2024-12-07_12h41.15.701,EPIDM,2023.1.2,None,
3061.jpg,2717.jpg,4 Points,4 Points,92 Points,PS1_L2.csv,,,,,,,,,,,,,,,,,,,,,,,,,,,,,0,1,1,1,0,11,11,11,,,,,,,,,,,,,,,,,,,1912.2493125420006,q,2.078686208013096,1914.3817686669936,,,,,,272101,A,2024-12-07_12h41.15.701,EPIDM,2023.1.2,None,
5460.jpg,5800.jpg,0 Points,0 Points,92 Points,PS1_L2.csv,,,,,,,,,,,,,,,,,,,,,,,,,,,,,0,1,1,1,0,12,12,12,,,,,,,,,,,,,,,,,,,1918.6424912079965,p,1.4050953740079422,1920.1344495419908,,,,,,272101,A,2024-12-07_12h41.15.701,EPIDM,2023.1.2,None,
2215.jpg,2512.jpg,1 Point,1 Point,93 Points,PS1_L2.csv,,,,,,,,,,,,,,,,,,,,,,,,,,,,,0,1,1,1,0,13,13,13,,,,,,,,,,,,,,,,,,,1924.3719292499882,p,2.1635075410013087,1926.6056787499983,1,1.402109125003335,,,,272101,A,2024-12-07_12h41.15.701,EPIDM,2023.1.2,None,
3000.jpg,6200.jpg,5 Points,5 Points,98 Points,PS1_L2.csv,,,,,,,,,,,,,,,,,,,,,,,,,,,,,0,1,1,1,0,14,14,14,,,,,,,,,,,,,,,,,,,1932.337665250001,q,1.1329462910071015,1933.5372712079989,,,,,,272101,A,2024-12-07_12h41.15.701,EPIDM,2023.1.2,None,
1945.jpg,2800.jpg,4 Points,4 Points,102 Points,PS1_L2.csv,,,,,,,,,,,,,,,,,,,,,,,,,,,,,0,1,1,1,0,15,15,15,,,,,,,,,,,,,,,,,,,1937.7875487919955,p,2.1157148749916814,1939.9718703749968,,,,,,272101,A,2024-12-07_12h41.15.701,EPIDM,2023.1.2,None,
5660.jpg,5201.jpg,0 Points,0 Points,102 Points,PS1_L2.csv,,,,,,,,,,,,,,,,,,,,,,,,,,,,,0,1,1,1,0,16,16,16,,,,,,,,,,,,,,,,,,,1944.224503791993,q,1.8537615410023136,1946.1436795420013,,,,,,272101,A,2024-12-07_12h41.15.701,EPIDM,2023.1.2,None,
3266.jpg,7360.jpg,1 Point,1 Point,103 Points,PS1_L2.csv,,,,,,,,,,,,,,,,,,,,,,,,,,,,,0,1,1,1,0,17,17,17,,,,,,,,,,,,,,,,,,,1950.3944207919994,q,1.9880437920073746,1952.447843707996,,,,,,272101,A,2024-12-07_12h41.15.701,EPIDM,2023.1.2,None,
F149.jpg,3030.jpg,0 Points,0 Points,103 Points,PS1_L2.csv,,,,,,,,,,,,,,,,,,,,,,,,,,,,,0,1,1,1,0,18,18,18,,,,,,,,,,,,,,,,,,,1956.6897366249905,p,3.332575749998796,1960.1303642919956,,,,,,272101,A,2024-12-07_12h41.15.701,EPIDM,2023.1.2,None,
5410.jpg,1450.jpg,5 Points,5 Points,108 Points,PS1_L2.csv,,,,,,,,,,,,,,,,,,,,,,,,,,,,,0,1,1,1,0,19,19,19,,,,,,,,,,,,,,,,,,,1964.3417580829991,p,1.6079222910047974,1966.0573871249944,,,,,,272101,A,2024-12-07_12h41.15.701,EPIDM,2023.1.2,None,
9101.jpg,9571.jpg,2 Points,2 Points,110 Points,PS1_L2.csv,,,,,,,,,,,,,,,,,,,,,,,,,,,,,0,1,1,1,0,20,20,20,,,,,,,,,,,,,,,,,,,1970.267287041992,p,1.2746140000090236,1971.6127089579968,,,,,,272101,A,2024-12-07_12h41.15.701,EPIDM,2023.1.2,None,
9110.jpg,3051.jpg,1 Point,1 Point,111 Points,PS1_L2.csv,,,,,,,,,,,,,,,,,,,,,,,,,,,,,0,1,1,1,0,21,21,21,,,,,,,,,,,,,,,,,,,1975.865253291995,p,1.6129856250045123,1977.5527009579964,,,,,,272101,A,2024-12-07_12h41.15.701,EPIDM,2023.1.2,None,
2100.jpg,7205.jpg,5 Points,5 Points,116 Points,PS1_L2.csv,,,,,,,,,,,,,,,,,,,,,,,,,,,,,0,1,1,1,0,22,22,22,,,,,,,,,,,,,,,,,,,1981.8107047919912,q,2.011430124010076,1983.8939826669957,,,,,,272101,A,2024-12-07_12h41.15.701,EPIDM,2023.1.2,None,
3160.jpg,6210.jpg,1 Point,1 Point,117 Points,PS1_L2.csv,,,,,,,,,,,,,,,,,,,,,,,,,,,,,0,1,1,1,0,23,23,23,,,,,,,,,,,,,,,,,,,1988.1375987079955,p,2.9079142500122543,1991.1130731250014,,,2001.5920188749878,space,4.628278207994299,272101,A,2024-12-07_12h41.15.701,EPIDM,2023.1.2,None,
7283.jpg,1720.jpg,4 Points,4 Points,121 Points,PS1_L3.csv,,,,,,,,,,,,,,,,,,,,,,,,,,,,,0,2,2,2,0,0,0,0,,,,,,,,,,,,,,,,,,,2009.5476674169913,p,0.9535071249993052,2010.5709859579947,,,,,,272101,A,2024-12-07_12h41.15.701,EPIDM,2023.1.2,None,
6571.jpg,P237.jpg,2 Points,2 Points,123 Points,PS1_L3.csv,,,,,,,,,,,,,,,,,,,,,,,,,,,,,0,2,2,2,0,1,1,1,,,,,,,,,,,,,,,,,,,2014.825922332995,p,3.090441833002842,2018.0323145829898,2,1.4509004999999888,,,,272101,A,2024-12-07_12h41.15.701,EPIDM,2023.1.2,None,
6260.jpg,3062.jpg,3 Points,3 Points,126 Points,PS1_L3.csv,,,,,,,,,,,,,,,,,,,,,,,,,,,,,0,2,2,2,0,2,2,2,,,,,,,,,,,,,,,,,,,2023.7837308749877,p,1.7012933750083903,2025.550894791988,,,,,,272101,A,2024-12-07_12h41.15.701,EPIDM,2023.1.2,None,
6150.jpg,2206.jpg,0 Points,0 Points,126 Points,PS1_L3.csv,,,,,,,,,,,,,,,,,,,,,,,,,,,,,0,2,2,2,0,3,3,3,,,,,,,,,,,,,,,,,,,2029.8089405419887,p,1.979392416003975,2031.8645829169982,,,,,,272101,A,2024-12-07_12h41.15.701,EPIDM,2023.1.2,None,
9300.jpg,1050.jpg,4 Points,4 Points,130 Points,PS1_L3.csv,,,,,,,,,,,,,,,,,,,,,,,,,,,,,0,2,2,2,0,4,4,4,,,,,,,,,,,,,,,,,,,2036.126118916989,p,1.9417739580094349,2038.1376476250007,,,,,,272101,A,2024-12-07_12h41.15.701,EPIDM,2023.1.2,None,
F365.jpg,3180.jpg,5 Points,5 Points,135 Points,PS1_L3.csv,,,,,,,,,,,,,,,,,,,,,,,,,,,,,0,2,2,2,0,5,5,5,,,,,,,,,,,,,,,,,,,2042.3839283330017,p,3.6519271670113085,2046.1328363749926,,,,,,272101,A,2024-12-07_12h41.15.701,EPIDM,2023.1.2,None,
2320.jpg,2791.jpg,4 Points,4 Points,139 Points,PS1_L3.csv,,,,,,,,,,,,,,,,,,,,,,,,,,,,,0,2,2,2,0,6,6,6,,,,,,,,,,,,,,,,,,,2050.3536144579994,q,2.3297947920073057,2052.7532677499985,,,,,,272101,A,2024-12-07_12h41.15.701,EPIDM,2023.1.2,None,
8311.jpg,4609.jpg,2 Points,2 Points,141 Points,PS1_L3.csv,,,,,,,,,,,,,,,,,,,,,,,,,,,,,0,2,2,2,0,7,7,7,,,,,,,,,,,,,,,,,,,2056.998730583,p,2.124841708005988,2059.1917242079944,,,,,,272101,A,2024-12-07_12h41.15.701,EPIDM,2023.1.2,None,
9042.jpg,2753.jpg,0 Points,0 Points,141 Points,PS1_L3.csv,,,,,,,,,,,,,,,,,,,,,,,,,,,,,0,2,2,2,0,8,8,8,,,,,,,,,,,,,,,,,,,2063.4483505829994,q,2.6425992920121644,2066.159813708,,,,,,272101,A,2024-12-07_12h41.15.701,EPIDM,2023.1.2,None,
5471.jpg,7352.jpg,2 Points,2 Points,143 Points,PS1_L3.csv,,,,,,,,,,,,,,,,,,,,,,,,,,,,,0,2,2,2,0,9,9,9,,,,,,,,,,,,,,,,,,,2070.4149302919977,q,1.4208017490018392,2071.8961092919926,,,,,,272101,A,2024-12-07_12h41.15.701,EPIDM,2023.1.2,None,
P222.jpg,9401.jpg,2 Points,2 Points,145 Points,PS1_L3.csv,,,,,,,,,,,,,,,,,,,,,,,,,,,,,0,2,2,2,0,10,10,10,,,,,,,,,,,,,,,,,,,2076.15490712499,q,2.007398166009807,2078.269433166992,,,,,,272101,A,2024-12-07_12h41.15.701,EPIDM,2023.1.2,None,
1610.jpg,F203.jpg,0 Points,0 Points,145 Points,PS1_L3.csv,,,,,,,,,,,,,,,,,,,,,,,,,,,,,0,2,2,2,0,11,11,11,,,,,,,,,,,,,,,,,,,2082.4766327499965,q,1.2304897499998333,2083.8321312079934,,,,,,272101,A,2024-12-07_12h41.15.701,EPIDM,2023.1.2,None,
9405.jpg,6250.2.jpg,3 Points,3 Points,148 Points,PS1_L3.csv,,,,,,,,,,,,,,,,,,,,,,,,,,,,,0,2,2,2,0,12,12,12,,,,,,,,,,,,,,,,,,,2088.0313422079926,q,1.7398050830088323,2089.8830293329956,,,,,,272101,A,2024-12-07_12h41.15.701,EPIDM,2023.1.2,None,
1090.jpg,P217.jpg,5 Points,5 Points,153 Points,PS1_L3.csv,,,,,,,,,,,,,,,,,,,,,,,,,,,,,0,2,2,2,0,13,13,13,,,,,,,,,,,,,,,,,,,2094.10724225,p,3.0077859580051154,2097.2262561249954,5,1.5758711250091437,,,,272101,A,2024-12-07_12h41.15.701,EPIDM,2023.1.2,None,
P233.jpg,3060.jpg,1 Point,1 Point,154 Points,PS1_L3.csv,,,,,,,,,,,,,,,,,,,,,,,,,,,,,0,2,2,2,0,14,14,14,,,,,,,,,,,,,,,,,,,2103.113697875,None,,,,,,,,272101,A,2024-12-07_12h41.15.701,EPIDM,2023.1.2,None,
8040.jpg,7185.jpg,1 Point,1 Point,155 Points,PS1_L3.csv,,,,,,,,,,,,,,,,,,,,,,,,,,,,,0,2,2,2,0,15,15,15,,,,,,,,,,,,,,,,,,,2110.6071940830006,q,0.8827601250086445,2111.5976726249937,,,,,,272101,A,2024-12-07_12h41.15.701,EPIDM,2023.1.2,None,
6550.jpg,9582.jpg,5 Points,5 Points,160 Points,PS1_L3.csv,,,,,,,,,,,,,,,,,,,,,,,,,,,,,0,2,2,2,0,16,16,16,,,,,,,,,,,,,,,,,,,2115.8147429169912,q,1.4594795830053044,2117.352742457995,,,,,,272101,A,2024-12-07_12h41.15.701,EPIDM,2023.1.2,None,
P077.jpg,A041.jpg,1 Point,1 Point,161 Points,PS1_L3.csv,,,,,,,,,,,,,,,,,,,,,,,,,,,,,0,2,2,2,0,17,17,17,,,,,,,,,,,,,,,,,,,2121.590190332994,p,1.397325792015181,2123.128952166997,,,,,,272101,A,2024-12-07_12h41.15.701,EPIDM,2023.1.2,None,
4770.jpg,4275.jpg,3 Points,3 Points,164 Points,PS1_L3.csv,,,,,,,,,,,,,,,,,,,,,,,,,,,,,0,2,2,2,0,18,18,18,,,,,,,,,,,,,,,,,,,2127.323788041991,q,1.854050207999535,2129.289181916989,,,,,,272101,A,2024-12-07_12h41.15.701,EPIDM,2023.1.2,None,
9594.jpg,1080.jpg,4 Points,4 Points,168 Points,PS1_L3.csv,,,,,,,,,,,,,,,,,,,,,,,,,,,,,0,2,2,2,0,19,19,19,,,,,,,,,,,,,,,,,,,2133.499818917,q,2.5741053750098217,2136.1572763329896,,,,,,272101,A,2024-12-07_12h41.15.701,EPIDM,2023.1.2,None,
2606.jpg,2480.jpg,1 Point,1 Point,169 Points,PS1_L3.csv,,,,,,,,,,,,,,,,,,,,,,,,,,,,,0,2,2,2,0,20,20,20,,,,,,,,,,,,,,,,,,,2140.396623541994,q,1.3737743329984369,2141.8483288749994,,,,,,272101,A,2024-12-07_12h41.15.701,EPIDM,2023.1.2,None,
1052.jpg,1201.jpg,3 Points,3 Points,172 Points,PS1_L3.csv,,,,,,,,,,,,,,,,,,,,,,,,,,,,,0,2,2,2,0,21,21,21,,,,,,,,,,,,,,,,,,,2146.096703957999,q,1.1539319580042502,2147.318887207992,,,,,,272101,A,2024-12-07_12h41.15.701,EPIDM,2023.1.2,None,
F369.jpg,3100.jpg,2 Points,2 Points,174 Points,PS1_L3.csv,,,,,,,,,,,,,,,,,,,,,,,,,,,,,0,2,2,2,0,22,22,22,,,,,,,,,,,,,,,,,,,2151.5626838329918,q,3.2301038750010775,2154.902573457992,,,,,,272101,A,2024-12-07_12h41.15.701,EPIDM,2023.1.2,None,
2620.jpg,2594.jpg,0 Points,0 Points,174 Points,PS1_L3.csv,,,,,,,,,,,,,,,,,,,,,,,,,,,,,0,2,2,2,0,23,23,23,,,,,,,,,,,,,,,,,,,2159.1150167079904,q,2.5423123329965165,2161.7295557079924,,,2172.229807750002,space,1.7948913330037612,272101,A,2024-12-07_12h41.15.701,EPIDM,2023.1.2,None,
P019.jpg,F158.jpg,3 Points,3 Points,177 Points,PS1_L4.csv,,,,,,,,,,,,,,,,,,,,,,,,,,,,,0,3,3,3,0,0,0,0,,,,,,,,,,,,,,,,,,,2177.3522100830014,q,1.8402655000099912,2179.325777457998,,,,,,272101,A,2024-12-07_12h41.15.701,EPIDM,2023.1.2,None,
7620.jpg,5395.jpg,1 Point,1 Point,178 Points,PS1_L4.csv,,,,,,,,,,,,,,,,,,,,,,,,,,,,,0,3,3,3,0,1,1,1,,,,,,,,,,,,,,,,,,,2183.5069049579906,p,1.701814750005724,2185.310058999996,1,1.091101541009266,,,,272101,A,2024-12-07_12h41.15.701,EPIDM,2023.1.2,None,
5970.jpg,3300.jpg,0 Points,0 Points,178 Points,PS1_L4.csv,,,,,,,,,,,,,,,,,,,,,,,,,,,,,0,3,3,3,0,2,2,2,,,,,,,,,,,,,,,,,,,2190.6920655419963,p,1.4199561240093317,2192.1771562919894,,,,,,272101,A,2024-12-07_12h41.15.701,EPIDM,2023.1.2,None,
5120.jpg,5520.jpg,2 Points,2 Points,180 Points,PS1_L4.csv,,,,,,,,,,,,,,,,,,,,,,,,,,,,,0,3,3,3,0,3,3,3,,,,,,,,,,,,,,,,,,,2196.4252829579927,q,2.1446411659999285,2198.639309124992,,,,,,272101,A,2024-12-07_12h41.15.701,EPIDM,2023.1.2,None,
9452.jpg,7184.jpg,4 Points,4 Points,184 Points,PS1_L4.csv,,,,,,,,,,,,,,,,,,,,,,,,,,,,,0,3,3,3,0,4,4,4,,,,,,,,,,,,,,,,,,,2202.8884309999994,q,1.5035028740094276,2204.4603241669975,,,,,,272101,A,2024-12-07_12h41.15.701,EPIDM,2023.1.2,None,
6570.1.jpg,9432.jpg,5 Points,5 Points,189 Points,PS1_L4.csv,,,,,,,,,,,,,,,,,,,,,,,,,,,,,0,3,3,3,0,5,5,5,,,,,,,,,,,,,,,,,,,2208.711616582994,p,1.6403270830051042,2210.4191419169947,,,,,,272101,A,2024-12-07_12h41.15.701,EPIDM,2023.1.2,None,
2389.jpg,7320.jpg,0 Points,0 Points,189 Points,PS1_L4.csv,,,,,,,,,,,,,,,,,,,,,,,,,,,,,0,3,3,3,0,6,6,6,,,,,,,,,,,,,,,,,,,2214.665463792,p,2.622545165999327,2217.3627919579885,,,,,,272101,A,2024-12-07_12h41.15.701,EPIDM,2023.1.2,None,
9330.jpg,3015.jpg,5 Points,5 Points,194 Points,PS1_L4.csv,,,,,,,,,,,,,,,,,,,,,,,,,,,,,0,3,3,3,0,7,7,7,,,,,,,,,,,,,,,,,,,2221.600198791988,p,1.769037666002987,2223.435146332995,,,,,,272101,A,2024-12-07_12h41.15.701,EPIDM,2023.1.2,None,
9560.jpg,3071.jpg,1 Point,1 Point,195 Points,PS1_L4.csv,,,,,,,,,,,,,,,,,,,,,,,,,,,,,0,3,3,3,0,8,8,8,,,,,,,,,,,,,,,,,,,2227.6776148749923,q,1.7306457080121618,2229.4710561669926,,,,,,272101,A,2024-12-07_12h41.15.701,EPIDM,2023.1.2,None,
5994.jpg,5390.jpg,0 Points,0 Points,195 Points,PS1_L4.csv,,,,,,,,,,,,,,,,,,,,,,,,,,,,,0,3,3,3,0,9,9,9,,,,,,,,,,,,,,,,,,,2233.7216890829877,p,2.606234791004681,2236.3926101249963,,,,,,272101,A,2024-12-07_12h41.15.701,EPIDM,2023.1.2,None,
2692.jpg,8231.jpg,4 Points,4 Points,199 Points,PS1_L4.csv,,,,,,,,,,,,,,,,,,,,,,,,,,,,,0,3,3,3,0,10,10,10,,,,,,,,,,,,,,,,,,,2240.6491124579916,q,1.919194583009812,2242.6234669999976,,,,,,272101,A,2024-12-07_12h41.15.701,EPIDM,2023.1.2,None,
F174.jpg,9404.jpg,5 Points,5 Points,204 Points,PS1_L4.csv,,,,,,,,,,,,,,,,,,,,,,,,,,,,,0,3,3,3,0,11,11,11,,,,,,,,,,,,,,,,,,,2246.8836129580013,p,2.0346550829999615,2249.0161844999966,,,,,,272101,A,2024-12-07_12h41.15.701,EPIDM,2023.1.2,None,
8010.jpg,2630.jpg,0 Points,0 Points,204 Points,PS1_L4.csv,,,,,,,,,,,,,,,,,,,,,,,,,,,,,0,3,3,3,0,12,12,12,,,,,,,,,,,,,,,,,,,2253.235138624994,q,1.9396437499963213,2255.2524418749963,,,,,,272101,A,2024-12-07_12h41.15.701,EPIDM,2023.1.2,None,
7175.jpg,7490.jpg,2 Points,2 Points,206 Points,PS1_L4.csv,,,,,,,,,,,,,,,,,,,,,,,,,,,,,0,3,3,3,0,13,13,13,,,,,,,,,,,,,,,,,,,2259.5038917499915,p,1.5184466659993632,2261.0935503329965,2,1.0880118740024045,,,,272101,A,2024-12-07_12h41.15.701,EPIDM,2023.1.2,None,
6561.jpg,1525.jpg,2 Points,2 Points,208 Points,PS1_L4.csv,,,,,,,,,,,,,,,,,,,,,,,,,,,,,0,3,3,3,0,14,14,14,,,,,,,,,,,,,,,,,,,2266.4867509999895,p,2.071866416998091,2268.6203762499936,,,,,,272101,A,2024-12-07_12h41.15.701,EPIDM,2023.1.2,None,
9070.jpg,9420.jpg,2 Points,2 Points,210 Points,PS1_L4.csv,,,,,,,,,,,,,,,,,,,,,,,,,,,,,0,3,3,3,0,15,15,15,,,,,,,,,,,,,,,,,,,2272.8758988749905,p,1.0578073750075419,2273.999425666989,,,,,,272101,A,2024-12-07_12h41.15.701,EPIDM,2023.1.2,None,
2516.jpg,8500.jpg,4 Points,4 Points,214 Points,PS1_L4.csv,,,,,,,,,,,,,,,,,,,,,,,,,,,,,0,3,3,3,0,16,16,16,,,,,,,,,,,,,,,,,,,2278.2453825419943,q,1.3124512909998884,2279.6238831669907,,,,,,272101,A,2024-12-07_12h41.15.701,EPIDM,2023.1.2,None,
9140.jpg,2810.jpg,3 Points,3 Points,217 Points,PS1_L4.csv,,,,,,,,,,,,,,,,,,,,,,,,,,,,,0,3,3,3,0,17,17,17,,,,,,,,,,,,,,,,,,,2283.872781082988,q,2.3103965830086963,2286.2563420829974,,,,,,272101,A,2024-12-07_12h41.15.701,EPIDM,2023.1.2,None,
7220.jpg,8090.jpg,2 Points,2 Points,219 Points,PS1_L4.csv,,,,,,,,,,,,,,,,,,,,,,,,,,,,,0,3,3,3,0,18,18,18,,,,,,,,,,,,,,,,,,,2290.5120942079957,p,1.764861166011542,2292.347964542001,,,,,,272101,A,2024-12-07_12h41.15.701,EPIDM,2023.1.2,None,
2661.jpg,2870.jpg,5 Points,5 Points,224 Points,PS1_L4.csv,,,,,,,,,,,,,,,,,,,,,,,,,,,,,0,3,3,3,0,19,19,19,,,,,,,,,,,,,,,,,,,2296.603313082989,q,1.347167708008783,2298.0226161249884,,,,,,272101,A,2024-12-07_12h41.15.701,EPIDM,2023.1.2,None,
6010.jpg,7361.jpg,2 Points,2 Points,226 Points,PS1_L4.csv,,,,,,,,,,,,,,,,,,,,,,,,,,,,,0,3,3,3,0,20,20,20,,,,,,,,,,,,,,,,,,,2302.2759398329945,q,2.2093083749932703,2304.55493033299,,,,,,272101,A,2024-12-07_12h41.15.701,EPIDM,2023.1.2,None,
7289.jpg,4534.jpg,0 Points,0 Points,226 Points,PS1_L4.csv,,,,,,,,,,,,,,,,,,,,,,,,,,,,,0,3,3,3,0,21,21,21,,,,,,,,,,,,,,,,,,,2308.811003750001,p,2.2821120410080766,2311.165933791999,,,,,,272101,A,2024-12-07_12h41.15.701,EPIDM,2023.1.2,None,
1310.jpg,3181.jpg,4 Points,4 Points,230 Points,PS1_L4.csv,,,,,,,,,,,,,,,,,,,,,,,,,,,,,0,3,3,3,0,22,22,22,,,,,,,,,,,,,,,,,,,2315.4061644169997,q,1.9594549580069724,2317.432191,,,,,,272101,A,2024-12-07_12h41.15.701,EPIDM,2023.1.2,None,
2383.jpg,1616.jpg,2 Points,2 Points,232 Points,PS1_L4.csv,,,,,,,,,,,,,,,,,,,,,,,,,,,,,0,3,3,3,0,23,23,23,,,,,,,,,,,,,,,,,,,2321.6883757920004,p,2.012072833007551,2323.7742690000014,,,2334.2558551249967,space,21.492547583009582,272101,A,2024-12-07_12h41.15.701,EPIDM,2023.1.2,None,
4510.jpg,2230.jpg,5 Points,5 Points,237 Points,PS1_L5.csv,,,,,,,,,,,,,,,,,,,,,,,,,,,,,0,4,4,4,0,0,0,0,,,,,,,,,,,,,,,,,,,2359.0642412079906,q,2.2115653329965426,2361.3548182499944,,,,,,272101,A,2024-12-07_12h41.15.701,EPIDM,2023.1.2,None,
A025.jpg,1051.jpg,0 Points,0 Points,237 Points,PS1_L5.csv,,,,,,,,,,,,,,,,,,,,,,,,,,,,,0,4,4,4,0,1,1,1,,,,,,,,,,,,,,,,,,,2365.5970031670004,q,1.7019938330049627,2367.4194567079976,0,1.4602679579984397,,,,272101,A,2024-12-07_12h41.15.701,EPIDM,2023.1.2,None,
7002.jpg,4660.jpg,4 Points,4 Points,241 Points,PS1_L5.csv,,,,,,,,,,,,,,,,,,,,,,,,,,,,,0,4,4,4,0,2,2,2,,,,,,,,,,,,,,,,,,,2373.187400249997,p,2.5203277500113472,2375.82297379199,,,,,,272101,A,2024-12-07_12h41.15.701,EPIDM,2023.1.2,None,
2900.jpg,1101.jpg,3 Points,3 Points,244 Points,PS1_L5.csv,,,,,,,,,,,,,,,,,,,,,,,,,,,,,0,4,4,4,0,3,3,3,,,,,,,,,,,,,,,,,,,2380.016598999995,q,2.659323250001762,2382.7589788329933,,,,,,272101,A,2024-12-07_12h41.15.701,EPIDM,2023.1.2,None,
2485.jpg,7350.jpg,0 Points,0 Points,244 Points,PS1_L5.csv,,,,,,,,,,,,,,,,,,,,,,,,,,,,,0,4,4,4,0,4,4,4,,,,,,,,,,,,,,,,,,,2387.0006603749935,p,1.5476171250047628,2388.617265541994,,,,,,272101,A,2024-12-07_12h41.15.701,EPIDM,2023.1.2,None,
6242.jpg,F034.jpg,4 Points,4 Points,248 Points,PS1_L5.csv,,,,,,,,,,,,,,,,,,,,,,,,,,,,,0,4,4,4,0,5,5,5,,,,,,,,,,,,,,,,,,,2392.863328874999,p,1.1235699580138316,2394.098167999997,,,,,,272101,A,2024-12-07_12h41.15.701,EPIDM,2023.1.2,None,
3170.jpg,6560.jpg,2 Points,2 Points,250 Points,PS1_L5.csv,,,,,,,,,,,,,,,,,,,,,,,,,,,,,0,4,4,4,0,6,6,6,,,,,,,,,,,,,,,,,,,2398.3060294999887,q,0.9921735410025576,2399.3989130830014,,,,,,272101,A,2024-12-07_12h41.15.701,EPIDM,2023.1.2,None,
8033.jpg,7270.jpg,3 Points,3 Points,253 Points,PS1_L5.csv,,,,,,,,,,,,,,,,,,,,,,,,,,,,,0,4,4,4,0,7,7,7,,,,,,,,,,,,,,,,,,,2403.6119383329933,q,2.0074711670022225,2405.681853749993,,,,,,272101,A,2024-12-07_12h41.15.701,EPIDM,2023.1.2,None,
2597.jpg,5870.jpg,5 Points,5 Points,258 Points,PS1_L5.csv,,,,,,,,,,,,,,,,,,,,,,,,,,,,,0,4,4,4,0,8,8,8,,,,,,,,,,,,,,,,,,,2409.939375499991,q,2.7189680830051657,2412.7359531249967,,,,,,272101,A,2024-12-07_12h41.15.701,EPIDM,2023.1.2,None,
6312.jpg,3230.jpg,2 Points,2 Points,260 Points,PS1_L5.csv,,,,,,,,,,,,,,,,,,,,,,,,,,,,,0,4,4,4,0,9,9,9,,,,,,,,,,,,,,,,,,,2416.9860192919878,q,2.767982083008974,2419.8304820420017,,,,,,272101,A,2024-12-07_12h41.15.701,EPIDM,2023.1.2,None,
3130.jpg,3500.jpg,4 Points,4 Points,264 Points,PS1_L5.csv,,,,,,,,,,,,,,,,,,,,,,,,,,,,,0,4,4,4,0,10,10,10,,,,,,,,,,,,,,,,,,,2424.0800222919934,q,3.0995984990004217,2427.240797624996,,,,,,272101,A,2024-12-07_12h41.15.701,EPIDM,2023.1.2,None,
2749.jpg,7282.jpg,3 Points,3 Points,267 Points,PS1_L5.csv,,,,,,,,,,,,,,,,,,,,,,,,,,,,,0,4,4,4,0,11,11,11,,,,,,,,,,,,,,,,,,,2431.494787916992,q,2.7232500829995843,2434.284758791997,,,,,,272101,A,2024-12-07_12h41.15.701,EPIDM,2023.1.2,None,
5300.jpg,2372.jpg,1 Point,1 Point,268 Points,PS1_L5.csv,,,,,,,,,,,,,,,,,,,,,,,,,,,,,0,4,4,4,0,12,12,12,,,,,,,,,,,,,,,,,,,2438.5384772919933,q,1.1671636249957373,2439.785157374994,,,,,,272101,A,2024-12-07_12h41.15.701,EPIDM,2023.1.2,None,
6510.jpg,A074.jpg,2 Points,2 Points,270 Points,PS1_L5.csv,,,,,,,,,,,,,,,,,,,,,,,,,,,,,0,4,4,4,0,13,13,13,,,,,,,,,,,,,,,,,,,2444.027383416993,p,1.24617162400682,2445.3996894999873,2,0.922285542008467,,,,272101,A,2024-12-07_12h41.15.701,EPIDM,2023.1.2,None,
2260.jpg,2830.jpg,5 Points,5 Points,275 Points,PS1_L5.csv,,,,,,,,,,,,,,,,,,,,,,,,,,,,,0,4,4,4,0,14,14,14,,,,,,,,,,,,,,,,,,,2450.6358148750005,q,3.101451291993726,2453.8551858749997,,,,,,272101,A,2024-12-07_12h41.15.701,EPIDM,2023.1.2,None,
2710.jpg,9252.jpg,1 Point,1 Point,276 Points,PS1_L5.csv,,,,,,,,,,,,,,,,,,,,,,,,,,,,,0,4,4,4,0,15,15,15,,,,,,,,,,,,,,,,,,,2458.0550294169952,p,2.5304661669943016,2460.661721832992,,,,,,272101,A,2024-12-07_12h41.15.701,EPIDM,2023.1.2,None,
3064.jpg,3168.jpg,4 Points,4 Points,280 Points,PS1_L5.csv,,,,,,,,,,,,,,,,,,,,,,,,,,,,,0,4,4,4,0,16,16,16,,,,,,,,,,,,,,,,,,,2464.9143495419994,q,2.223505791000207,2467.205177374999,,,,,,272101,A,2024-12-07_12h41.15.701,EPIDM,2023.1.2,None,
1640.jpg,5531.jpg,3 Points,3 Points,283 Points,PS1_L5.csv,,,,,,,,,,,,,,,,,,,,,,,,,,,,,0,4,4,4,0,17,17,17,,,,,,,,,,,,,,,,,,,2471.4602884999913,q,1.8533563330129255,2473.3971969169943,,,,,,272101,A,2024-12-07_12h41.15.701,EPIDM,2023.1.2,None,
3530.jpg,6213.jpg,1 Point,1 Point,284 Points,PS1_L5.csv,,,,,,,,,,,,,,,,,,,,,,,,,,,,,0,4,4,4,0,18,18,18,,,,,,,,,,,,,,,,,,,2477.6372263329977,q,2.6115319580130745,2480.3316577919904,,,,,,272101,A,2024-12-07_12h41.15.701,EPIDM,2023.1.2,None,
9090.jpg,7580.jpg,3 Points,3 Points,287 Points,PS1_L5.csv,,,,,,,,,,,,,,,,,,,,,,,,,,,,,0,4,4,4,0,19,19,19,,,,,,,,,,,,,,,,,,,2484.578389999995,p,2.4703745410079136,2487.118802666999,,,,,,272101,A,2024-12-07_12h41.15.701,EPIDM,2023.1.2,None,
8230.jpg,2682.jpg,5 Points,5 Points,292 Points,PS1_L5.csv,,,,,,,,,,,,,,,,,,,,,,,,,,,,,0,4,4,4,0,20,20,20,,,,,,,,,,,,,,,,,,,2491.360681124992,q,1.5600749160075793,2492.993991832991,,,,,,272101,A,2024-12-07_12h41.15.701,EPIDM,2023.1.2,None,
9592.jpg,1300.jpg,2 Points,2 Points,294 Points,PS1_L5.csv,,,,,,,,,,,,,,,,,,,,,,,,,,,,,0,4,4,4,0,21,21,21,,,,,,,,,,,,,,,,,,,2497.233795332999,p,1.6780864580068737,2498.9748707919935,,,,,,272101,A,2024-12-07_12h41.15.701,EPIDM,2023.1.2,None,
2490.jpg,2590.jpg,4 Points,4 Points,298 Points,PS1_L5.csv,,,,,,,,,,,,,,,,,,,,,,,,,,,,,0,4,4,4,0,22,22,22,,,,,,,,,,,,,,,,,,,2503.2303211249964,p,2.2334884160081856,2505.5323419999913,,,,,,272101,A,2024-12-07_12h41.15.701,EPIDM,2023.1.2,None,
2190.jpg,7503.jpg,2 Points,2 Points,300 Points,PS1_L5.csv,,,,,,,,,,,,,,,,,,,,,,,,,,,,,0,4,4,4,0,23,23,23,,,,,,,,,,,,,,,,,,,2509.780639791992,q,3.1550865000026533,2513.0163164169935,,,2523.4837641249906,space,7.493653124009143,272101,A,2024-12-07_12h41.15.701,EPIDM,2023.1.2,None,
1930.jpg,9008.jpg,1 Point,1 Point,301 Points,PS1_L6.csv,,,,,,,,,,,,,,,,,,,,,,,,,,,,,0,5,5,5,0,0,0,0,,,,,,,,,,,,,,,,,,,2534.29349633299,q,1.7136689159960952,2536.077149082994,,,,,,272101,A,2024-12-07_12h41.15.701,EPIDM,2023.1.2,None,
4613.jpg,2720.jpg,4 Points,4 Points,305 Points,PS1_L6.csv,,,,,,,,,,,,,,,,,,,,,,,,,,,,,0,5,5,5,0,1,1,1,,,,,,,,,,,,,,,,,,,2540.322805249991,q,2.1958528329996625,2542.5991849579877,4,1.4790942500112578,,,,272101,A,2024-12-07_12h41.15.701,EPIDM,2023.1.2,None,
3280.jpg,9270.jpg,0 Points,0 Points,305 Points,PS1_L6.csv,,,,,,,,,,,,,,,,,,,,,,,,,,,,,0,5,5,5,0,2,2,2,,,,,,,,,,,,,,,,,,,2548.389440125,p,2.914136583014624,2551.3614404580003,,,,,,272101,A,2024-12-07_12h41.15.701,EPIDM,2023.1.2,None,
6800.jpg,9190.jpg,0 Points,0 Points,305 Points,PS1_L6.csv,,,,,,,,,,,,,,,,,,,,,,,,,,,,,0,5,5,5,0,3,3,3,,,,,,,,,,,,,,,,,,,2555.6205310829973,p,0.929915875007282,2556.608660166996,,,,,,272101,A,2024-12-07_12h41.15.701,EPIDM,2023.1.2,None,
5600.jpg,9080.jpg,5 Points,5 Points,310 Points,PS1_L6.csv,,,,,,,,,,,,,,,,,,,,,,,,,,,,,0,5,5,5,0,4,4,4,,,,,,,,,,,,,,,,,,,2560.868938582993,q,1.0338735830009682,2561.9704618749965,,,,,,272101,A,2024-12-07_12h41.15.701,EPIDM,2023.1.2,None,
P211.jpg,9041.jpg,4 Points,4 Points,314 Points,PS1_L6.csv,,,,,,,,,,,,,,,,,,,,,,,,,,,,,0,5,5,5,0,5,5,5,,,,,,,,,,,,,,,,,,,2566.215580707998,q,2.471215249999659,2568.7923521249904,,,,,,272101,A,2024-12-07_12h41.15.701,EPIDM,2023.1.2,None,
5200.jpg,5020.jpg,0 Points,0 Points,314 Points,PS1_L6.csv,,,,,,,,,,,,,,,,,,,,,,,,,,,,,0,5,5,5,0,6,6,6,,,,,,,,,,,,,,,,,,,2572.996096082992,q,2.6344346670084633,2575.702969082995,,,,,,272101,A,2024-12-07_12h41.15.701,EPIDM,2023.1.2,None,
1850.jpg,5623.jpg,5 Points,5 Points,319 Points,PS1_L6.csv,,,,,,,,,,,,,,,,,,,,,,,,,,,,,0,5,5,5,0,7,7,7,,,,,,,,,,,,,,,,,,,2579.944515541996,q,1.3178281250002328,2581.3391146249924,,,,,,272101,A,2024-12-07_12h41.15.701,EPIDM,2023.1.2,None,
9440.jpg,6350.jpg,4 Points,4 Points,323 Points,PS1_L6.csv,,,,,,,,,,,,,,,,,,,,,,,,,,,,,0,5,5,5,0,8,8,8,,,,,,,,,,,,,,,,,,,2585.594970958002,q,1.4990081239957362,2587.1641020829993,,,,,,272101,A,2024-12-07_12h41.15.701,EPIDM,2023.1.2,None,
5990.jpg,5780.jpg,3 Points,3 Points,326 Points,PS1_L6.csv,,,,,,,,,,,,,,,,,,,,,,,,,,,,,0,5,5,5,0,9,9,9,,,,,,,,,,,,,,,,,,,2591.414858624994,p,1.9439549580129096,2593.434048791998,,,,,,272101,A,2024-12-07_12h41.15.701,EPIDM,2023.1.2,None,
6244.jpg,9265.jpg,0 Points,0 Points,326 Points,PS1_L6.csv,,,,,,,,,,,,,,,,,,,,,,,,,,,,,0,5,5,5,0,10,10,10,,,,,,,,,,,,,,,,,,,2597.6943549579883,p,1.7031513750116574,2599.4695215419924,,,,,,272101,A,2024-12-07_12h41.15.701,EPIDM,2023.1.2,None,
5000.jpg,8180.jpg,4 Points,4 Points,330 Points,PS1_L6.csv,,,,,,,,,,,,,,,,,,,,,,,,,,,,,0,5,5,5,0,11,11,11,,,,,,,,,,,,,,,,,,,2603.723968874998,q,1.1300868330145022,2604.9272978329973,,,,,,272101,A,2024-12-07_12h41.15.701,EPIDM,2023.1.2,None,
5982.jpg,5260.jpg,5 Points,5 Points,335 Points,PS1_L6.csv,,,,,,,,,,,,,,,,,,,,,,,,,,,,,0,5,5,5,0,12,12,12,,,,,,,,,,,,,,,,,,,2609.169937999992,p,1.5716786669945577,2610.8192234169983,,,,,,272101,A,2024-12-07_12h41.15.701,EPIDM,2023.1.2,None,
1301.jpg,1070.jpg,2 Points,2 Points,337 Points,PS1_L6.csv,,,,,,,,,,,,,,,,,,,,,,,,,,,,,0,5,5,5,0,13,13,13,,,,,,,,,,,,,,,,,,,2615.0606556249986,p,0.7768554580106866,2615.906884041993,2,1.045845915999962,,,,272101,A,2024-12-07_12h41.15.701,EPIDM,2023.1.2,None,
7920.jpg,9102.jpg,3 Points,3 Points,340 Points,PS1_L6.csv,,,,,,,,,,,,,,,,,,,,,,,,,,,,,0,5,5,5,0,14,14,14,,,,,,,,,,,,,,,,,,,2621.273284916999,p,1.2916136660060147,2622.6402054999926,,,,,,272101,A,2024-12-07_12h41.15.701,EPIDM,2023.1.2,None,
5455.jpg,5220.jpg,0 Points,0 Points,340 Points,PS1_L6.csv,,,,,,,,,,,,,,,,,,,,,,,,,,,,,0,5,5,5,0,15,15,15,,,,,,,,,,,,,,,,,,,2626.883691750001,p,1.712397041002987,2628.671816957998,,,,,,272101,A,2024-12-07_12h41.15.701,EPIDM,2023.1.2,None,
3350.jpg,3210.jpg,1 Point,1 Point,341 Points,PS1_L6.csv,,,,,,,,,,,,,,,,,,,,,,,,,,,,,0,5,5,5,0,16,16,16,,,,,,,,,,,,,,,,,,,2632.922821417,q,1.242395667009987,2634.230920541988,,,,,,272101,A,2024-12-07_12h41.15.701,EPIDM,2023.1.2,None,
2560.jpg,5270.jpg,4 Points,4 Points,345 Points,PS1_L6.csv,,,,,,,,,,,,,,,,,,,,,,,,,,,,,0,5,5,5,0,17,17,17,,,,,,,,,,,,,,,,,,,2638.486860707999,p,1.8776042080135085,2640.438700999992,,,,,,272101,A,2024-12-07_12h41.15.701,EPIDM,2023.1.2,None,
9584.jpg,3400.jpg,2 Points,2 Points,347 Points,PS1_L6.csv,,,,,,,,,,,,,,,,,,,,,,,,,,,,,0,5,5,5,0,18,18,18,,,,,,,,,,,,,,,,,,,2644.6858614999946,p,2.982511375012109,2647.7400170420005,,,,,,272101,A,2024-12-07_12h41.15.701,EPIDM,2023.1.2,None,
5760.jpg,1602.jpg,1 Point,1 Point,348 Points,PS1_L6.csv,,,,,,,,,,,,,,,,,,,,,,,,,,,,,0,5,5,5,0,19,19,19,,,,,,,,,,,,,,,,,,,2651.98560575,p,1.1722854990075575,2653.2322739169904,,,,,,272101,A,2024-12-07_12h41.15.701,EPIDM,2023.1.2,None,
7230.jpg,7570.jpg,5 Points,5 Points,353 Points,PS1_L6.csv,,,,,,,,,,,,,,,,,,,,,,,,,,,,,0,5,5,5,0,20,20,20,,,,,,,,,,,,,,,,,,,2657.4789998329943,p,1.2379596250102622,2658.787025582991,,,,,,272101,A,2024-12-07_12h41.15.701,EPIDM,2023.1.2,None,
1022.jpg,6930.jpg,1 Point,1 Point,354 Points,PS1_L6.csv,,,,,,,,,,,,,,,,,,,,,,,,,,,,,0,5,5,5,0,21,21,21,,,,,,,,,,,,,,,,,,,2663.033244624996,p,1.577521583007183,2664.688391332995,,,,,,272101,A,2024-12-07_12h41.15.701,EPIDM,2023.1.2,None,
8340.jpg,7546.jpg,2 Points,2 Points,356 Points,PS1_L6.csv,,,,,,,,,,,,,,,,,,,,,,,,,,,,,0,5,5,5,0,22,22,22,,,,,,,,,,,,,,,,,,,2668.9361243329913,q,1.3001078330125893,2670.2977776670014,,,,,,272101,A,2024-12-07_12h41.15.701,EPIDM,2023.1.2,None,
6243.jpg,2752.jpg,2 Points,2 Points,358 Points,PS1_L6.csv,,,,,,,,,,,,,,,,,,,,,,,,,,,,,0,5,5,5,0,23,23,23,,,,,,,,,,,,,,,,,,,2674.5541290419933,p,1.2418789160001324,2675.864818000002,,,2686.346770749995,space,5.616640166001162,272101,A,2024-12-07_12h41.15.701,EPIDM,2023.1.2,None,
7280.jpg,7160.jpg,0 Points,0 Points,358 Points,PS1_L7.csv,,,,,,,,,,,,,,,,,,,,,,,,,,,,,0,6,6,6,0,0,0,0,,,,,,,,,,,,,,,,,,,2695.2798608329904,p,1.8035208750079619,2697.1656489999878,,,,,,272101,A,2024-12-07_12h41.15.701,EPIDM,2023.1.2,None,
2580.jpg,8300.jpg,3 Points,3 Points,361 Points,PS1_L7.csv,,,,,,,,,,,,,,,,,,,,,,,,,,,,,0,6,6,6,0,1,1,1,,,,,,,,,,,,,,,,,,,2701.4061391669966,p,1.9666491670068353,2703.4529662079876,3,1.0404421670100419,,,,272101,A,2024-12-07_12h41.15.701,EPIDM,2023.1.2,None,
5972.jpg,6838.jpg,5 Points,5 Points,366 Points,PS1_L7.csv,,,,,,,,,,,,,,,,,,,,,,,,,,,,,0,6,6,6,0,2,2,2,,,,,,,,,,,,,,,,,,,2708.8012080420012,p,2.3219048750179354,2711.194861791999,,,,,,272101,A,2024-12-07_12h41.15.701,EPIDM,2023.1.2,None,
5621.jpg,5534.jpg,3 Points,3 Points,369 Points,PS1_L7.csv,,,,,,,,,,,,,,,,,,,,,,,,,,,,,0,6,6,6,0,3,3,3,,,,,,,,,,,,,,,,,,,2715.4379568329896,q,1.3176763329975074,2716.8298200829886,,,,,,272101,A,2024-12-07_12h41.15.701,EPIDM,2023.1.2,None,
8480.jpg,6410.jpg,1 Point,1 Point,370 Points,PS1_L7.csv,,,,,,,,,,,,,,,,,,,,,,,,,,,,,0,6,6,6,0,4,4,4,,,,,,,,,,,,,,,,,,,2721.071247125001,q,1.4755765000154497,2722.6177346249897,,,,,,272101,A,2024-12-07_12h41.15.701,EPIDM,2023.1.2,None,
2702.jpg,1590.jpg,5 Points,5 Points,375 Points,PS1_L7.csv,,,,,,,,,,,,,,,,,,,,,,,,,,,,,0,6,6,6,0,5,5,5,,,,,,,,,,,,,,,,,,,2726.8543194169906,p,0.6762312500068219,2727.5994447919948,,,,,,272101,A,2024-12-07_12h41.15.701,EPIDM,2023.1.2,None,
1275.jpg,3150.jpg,1 Point,1 Point,376 Points,PS1_L7.csv,,,,,,,,,,,,,,,,,,,,,,,,,,,,,0,6,6,6,0,6,6,6,,,,,,,,,,,,,,,,,,,2731.8405701250012,p,1.585444083015318,2733.5019637919904,,,,,,272101,A,2024-12-07_12h41.15.701,EPIDM,2023.1.2,None,
1910.jpg,2575.jpg,2 Points,2 Points,378 Points,PS1_L7.csv,,,,,,,,,,,,,,,,,,,,,,,,,,,,,0,6,6,6,0,7,7,7,,,,,,,,,,,,,,,,,,,2737.744464874995,q,1.9138930000044638,2739.7224367499875,,,,,,272101,A,2024-12-07_12h41.15.701,EPIDM,2023.1.2,None,
2518.jpg,2381.jpg,1 Point,1 Point,382 Points,PS1_L7.csv,,,,,,,,,,,,,,,,,,,,,,,,,,,,,0,6,6,6,0,8,8,8,,,,,,,,,,,,,,,,,,,2743.9805779169983,q,1.1970072080148384,2745.2364085829904,,,,,,272101,A,2024-12-07_12h41.15.701,EPIDM,2023.1.2,None,
6250.1.jpg,3301.jpg,0 Points,0 Points,382 Points,PS1_L7.csv,,,,,,,,,,,,,,,,,,,,,,,,,,,,,0,6,6,6,0,9,9,9,,,,,,,,,,,,,,,,,,,2749.4973680830008,p,0.9202997499960475,2750.4860187079903,,,,,,272101,A,2024-12-07_12h41.15.701,EPIDM,2023.1.2,None,
7234.jpg,5533.jpg,3 Points,3 Points,385 Points,PS1_L7.csv,,,,,,,,,,,,,,,,,,,,,,,,,,,,,0,6,6,6,0,10,10,10,,,,,,,,,,,,,,,,,,,2754.7343193330016,p,1.2511048750020564,2756.0592883749923,,,,,,272101,A,2024-12-07_12h41.15.701,EPIDM,2023.1.2,None,
9920.jpg,3068.jpg,5 Points,5 Points,390 Points,PS1_L7.csv,,,,,,,,,,,,,,,,,,,,,,,,,,,,,0,6,6,6,0,11,11,11,,,,,,,,,,,,,,,,,,,2760.3101543749945,p,0.8345255409949459,2761.208654916991,,,,,,272101,A,2024-12-07_12h41.15.701,EPIDM,2023.1.2,None,
3022.jpg,2352.2.jpg,0 Points,0 Points,390 Points,PS1_L7.csv,,,,,,,,,,,,,,,,,,,,,,,,,,,,,0,6,6,6,0,12,12,12,,,,,,,,,,,,,,,,,,,2765.4668798749917,p,2.7425529990141513,2768.282924041996,,,,,,272101,A,2024-12-07_12h41.15.701,EPIDM,2023.1.2,None,
8250.jpg,1313.jpg,4 Points,4 Points,394 Points,PS1_L7.csv,,,,,,,,,,,,,,,,,,,,,,,,,,,,,0,6,6,6,0,13,13,13,,,,,,,,,,,,,,,,,,,2772.529999249993,p,2.8315483330079587,2775.4351213329937,4,1.3363982500013663,,,,272101,A,2024-12-07_12h41.15.701,EPIDM,2023.1.2,None,
2690.jpg,9360.jpg,1 Point,1 Point,395 Points,PS1_L7.csv,,,,,,,,,,,,,,,,,,,,,,,,,,,,,0,6,6,6,0,14,14,14,,,,,,,,,,,,,,,,,,,2781.089860332999,q,1.6950392500148155,2782.8631632079923,,,,,,272101,A,2024-12-07_12h41.15.701,EPIDM,2023.1.2,None,
9570.jpg,6610.jpg,0 Points,0 Points,395 Points,PS1_L7.csv,,,,,,,,,,,,,,,,,,,,,,,,,,,,,0,6,6,6,0,15,15,15,,,,,,,,,,,,,,,,,,,2787.1059264579962,q,1.295012290996965,2788.4709505419887,,,,,,272101,A,2024-12-07_12h41.15.701,EPIDM,2023.1.2,None,
3110.jpg,9000.jpg,4 Points,4 Points,399 Points,PS1_L7.csv,,,,,,,,,,,,,,,,,,,,,,,,,,,,,0,6,6,6,0,16,16,16,,,,,,,,,,,,,,,,,,,2792.7222852080013,q,1.5021473329979926,2794.289232832991,,,,,,272101,A,2024-12-07_12h41.15.701,EPIDM,2023.1.2,None,
8465.jpg,8400.jpg,1 Point,1 Point,400 Points,PS1_L7.csv,,,,,,,,,,,,,,,,,,,,,,,,,,,,,0,6,6,6,0,17,17,17,,,,,,,,,,,,,,,,,,,2798.5332546249992,p,2.21125670800393,2800.81981479199,,,,,,272101,A,2024-12-07_12h41.15.701,EPIDM,2023.1.2,None,
1540.jpg,2600.jpg,1 Point,1 Point,401 Points,PS1_L7.csv,,,,,,,,,,,,,,,,,,,,,,,,,,,,,0,6,6,6,0,18,18,18,,,,,,,,,,,,,,,,,,,2805.0687981669907,q,1.3071692079975037,2806.446170832991,,,,,,272101,A,2024-12-07_12h41.15.701,EPIDM,2023.1.2,None,
2276.jpg,6540.jpg,3 Points,3 Points,404 Points,PS1_L7.csv,,,,,,,,,,,,,,,,,,,,,,,,,,,,,0,6,6,6,0,19,19,19,,,,,,,,,,,,,,,,,,,2810.701936083002,q,2.330301917012548,2813.0994159999973,,,,,,272101,A,2024-12-07_12h41.15.701,EPIDM,2023.1.2,None,
5030.jpg,1670.jpg,3 Points,3 Points,407 Points,PS1_L7.csv,,,,,,,,,,,,,,,,,,,,,,,,,,,,,0,6,6,6,0,20,20,20,,,,,,,,,,,,,,,,,,,2817.354975082999,p,1.8054019999981392,2819.2212831249926,,,,,,272101,A,2024-12-07_12h41.15.701,EPIDM,2023.1.2,None,
9040.jpg,1120.jpg,3 Points,3 Points,410 Points,PS1_L7.csv,,,,,,,,,,,,,,,,,,,,,,,,,,,,,0,6,6,6,0,21,21,21,,,,,,,,,,,,,,,,,,,2823.478923332994,q,1.1446898330032127,2824.6919033749873,,,,,,272101,A,2024-12-07_12h41.15.701,EPIDM,2023.1.2,None,
3220.jpg,3063.jpg,5 Points,5 Points,415 Points,PS1_L7.csv,,,,,,,,,,,,,,,,,,,,,,,,,,,,,0,6,6,6,0,22,22,22,,,,,,,,,,,,,,,,,,,2828.9529592499894,p,3.365462750007282,2832.3839572079887,,,,,,272101,A,2024-12-07_12h41.15.701,EPIDM,2023.1.2,None,
8117.jpg,2880.jpg,5 Points,5 Points,420 Points,PS1_L7.csv,,,,,,,,,,,,,,,,,,,,,,,,,,,,,0,6,6,6,0,23,23,23,,,,,,,,,,,,,,,,,,,2836.6386915829935,None,,,,,2850.3766538749915,space,18.758739250013605,272101,A,2024-12-07_12h41.15.701,EPIDM,2023.1.2,None,
4274.jpg,8160.jpg,2 Points,2 Points,422 Points,PS1_L8.csv,,,,,,,,,,,,,,,,,,,,,,,,,,,,,0,7,7,7,0,0,0,0,,,,,,,,,,,,,,,,,,,2872.444474249991,q,2.313771415996598,2874.827243749998,,,,,,272101,A,2024-12-07_12h41.15.701,EPIDM,2023.1.2,None,
6314.jpg,O022.jpg,2 Points,2 Points,424 Points,PS1_L8.csv,,,,,,,,,,,,,,,,,,,,,,,,,,,,,0,7,7,7,0,1,1,1,,,,,,,,,,,,,,,,,,,2879.0739470830013,q,1.8847869580058614,2881.0535744579975,2,1.0253725410148036,,,,272101,A,2024-12-07_12h41.15.701,EPIDM,2023.1.2,None,
1560.jpg,8185.jpg,0 Points,0 Points,424 Points,PS1_L8.csv,,,,,,,,,,,,,,,,,,,,,,,,,,,,,0,7,7,7,0,2,2,2,,,,,,,,,,,,,,,,,,,2886.40712441699,q,2.263092624998535,2888.7806992080004,,,,,,272101,A,2024-12-07_12h41.15.701,EPIDM,2023.1.2,None,
2850.jpg,4532.jpg,3 Points,3 Points,427 Points,PS1_L8.csv,,,,,,,,,,,,,,,,,,,,,,,,,,,,,0,7,7,7,0,3,3,3,,,,,,,,,,,,,,,,,,,2892.984571791996,q,1.5497644170100102,2894.6015931250004,,,,,,272101,A,2024-12-07_12h41.15.701,EPIDM,2023.1.2,None,
1390.jpg,9421.jpg,2 Points,2 Points,429 Points,PS1_L8.csv,,,,,,,,,,,,,,,,,,,,,,,,,,,,,0,7,7,7,0,4,4,4,,,,,,,,,,,,,,,,,,,2898.8459557919996,p,1.383894833008526,2900.2936240829877,,,,,,272101,A,2024-12-07_12h41.15.701,EPIDM,2023.1.2,None,
9800.jpg,9433.jpg,1 Point,1 Point,430 Points,PS1_L8.csv,,,,,,,,,,,,,,,,,,,,,,,,,,,,,0,7,7,7,0,5,5,5,,,,,,,,,,,,,,,,,,,2904.5403189579956,p,1.1608640409976942,2905.775759541997,,,,,,272101,A,2024-12-07_12h41.15.701,EPIDM,2023.1.2,None,
8161.jpg,1900.jpg,4 Points,4 Points,434 Points,PS1_L8.csv,,,,,,,,,,,,,,,,,,,,,,,,,,,,,0,7,7,7,0,6,6,6,,,,,,,,,,,,,,,,,,,2910.023422667,p,1.9499563750141533,2912.0429449169897,,,,,,272101,A,2024-12-07_12h41.15.701,EPIDM,2023.1.2,None,
1112.jpg,6230.jpg,3 Points,3 Points,437 Points,PS1_L8.csv,,,,,,,,,,,,,,,,,,,,,,,,,,,,,0,7,7,7,0,7,7,7,,,,,,,,,,,,,,,,,,,2916.2930065830005,p,2.2807456239970634,2918.6557108330016,,,,,,272101,A,2024-12-07_12h41.15.701,EPIDM,2023.1.2,None,
1111.jpg,1040.jpg,0 Points,0 Points,437 Points,PS1_L8.csv,,,,,,,,,,,,,,,,,,,,,,,,,,,,,0,7,7,7,0,8,8,8,,,,,,,,,,,,,,,,,,,2922.895657666988,p,3.206282416009344,2926.1919582919945,,,,,,272101,A,2024-12-07_12h41.15.701,EPIDM,2023.1.2,None,
5622.jpg,9156.jpg,4 Points,4 Points,441 Points,PS1_L8.csv,,,,,,,,,,,,,,,,,,,,,,,,,,,,,0,7,7,7,0,9,9,9,,,,,,,,,,,,,,,,,,,2930.4259828749928,q,1.9875164580153069,2932.4966284580005,,,,,,272101,A,2024-12-07_12h41.15.701,EPIDM,2023.1.2,None,
2681.jpg,7100.jpg,3 Points,3 Points,444 Points,PS1_L8.csv,,,,,,,,,,,,,,,,,,,,,,,,,,,,,0,7,7,7,0,10,10,10,,,,,,,,,,,,,,,,,,,2936.7391060419905,q,2.0172242490079952,2938.826290541998,,,,,,272101,A,2024-12-07_12h41.15.701,EPIDM,2023.1.2,None,
6821.jpg,9622.jpg,2 Points,2 Points,446 Points,PS1_L8.csv,,,,,,,,,,,,,,,,,,,,,,,,,,,,,0,7,7,7,0,11,11,11,,,,,,,,,,,,,,,,,,,2943.075668999998,p,2.000892374009709,2945.1405882919935,,,,,,272101,A,2024-12-07_12h41.15.701,EPIDM,2023.1.2,None,
9490.jpg,9210.jpg,1 Point,1 Point,447 Points,PS1_L8.csv,,,,,,,,,,,,,,,,,,,,,,,,,,,,,0,7,7,7,0,12,12,12,,,,,,,,,,,,,,,,,,,2949.391851374996,q,2.1875015830009943,2951.641471541996,,,,,,272101,A,2024-12-07_12h41.15.701,EPIDM,2023.1.2,None,
4605.jpg,1510.jpg,4 Points,4 Points,451 Points,PS1_L8.csv,,,,,,,,,,,,,,,,,,,,,,,,,,,,,0,7,7,7,0,13,13,13,,,,,,,,,,,,,,,,,,,2955.898206166996,p,1.570708375002141,2957.5440972919896,4,1.2417493750108406,,,,272101,A,2024-12-07_12h41.15.701,EPIDM,2023.1.2,None,
2240.jpg,5010.jpg,5 Points,5 Points,456 Points,PS1_L8.csv,,,,,,,,,,,,,,,,,,,,,,,,,,,,,0,7,7,7,0,14,14,14,,,,,,,,,,,,,,,,,,,2963.121348249988,q,2.4025036660023034,2965.6007457499945,,,,,,272101,A,2024-12-07_12h41.15.701,EPIDM,2023.1.2,None,
3102.jpg,F032.jpg,1 Point,1 Point,457 Points,PS1_L8.csv,,,,,,,,,,,,,,,,,,,,,,,,,,,,,0,7,7,7,0,15,15,15,,,,,,,,,,,,,,,,,,,2969.8414872079884,q,1.923783791004098,2971.881687000001,,,,,,272101,A,2024-12-07_12h41.15.701,EPIDM,2023.1.2,None,
4100.jpg,6570.2.jpg,3 Points,3 Points,460 Points,PS1_L8.csv,,,,,,,,,,,,,,,,,,,,,,,,,,,,,0,7,7,7,0,16,16,16,,,,,,,,,,,,,,,,,,,2976.088247791995,q,1.5476048750133486,2977.7451056249993,,,,,,272101,A,2024-12-07_12h41.15.701,EPIDM,2023.1.2,None,
2650.jpg,4531.jpg,5 Points,5 Points,465 Points,PS1_L8.csv,,,,,,,,,,,,,,,,,,,,,,,,,,,,,0,7,7,7,0,17,17,17,,,,,,,,,,,,,,,,,,,2981.9445434999943,q,2.8107029990060255,2984.835701707998,,,,,,272101,A,2024-12-07_12h41.15.701,EPIDM,2023.1.2,None,
9320.jpg,9007.jpg,0 Points,0 Points,465 Points,PS1_L8.csv,,,,,,,,,,,,,,,,,,,,,,,,,,,,,0,7,7,7,0,18,18,18,,,,,,,,,,,,,,,,,,,2989.072239957997,p,1.579166042007273,2990.7217663749907,,,,,,272101,A,2024-12-07_12h41.15.701,EPIDM,2023.1.2,None,
8460.jpg,8330.jpg,0 Points,0 Points,465 Points,PS1_L8.csv,,,,,,,,,,,,,,,,,,,,,,,,,,,,,0,7,7,7,0,19,19,19,,,,,,,,,,,,,,,,,,,2994.9598479169945,p,1.3885337910032831,2996.408322499992,,,,,,272101,A,2024-12-07_12h41.15.701,EPIDM,2023.1.2,None,
2570.jpg,5500.jpg,3 Points,3 Points,468 Points,PS1_L8.csv,,,,,,,,,,,,,,,,,,,,,,,,,,,,,0,7,7,7,0,20,20,20,,,,,,,,,,,,,,,,,,,3000.660311667001,p,1.527286708005704,3002.252881499997,,,,,,272101,A,2024-12-07_12h41.15.701,EPIDM,2023.1.2,None,
6190.jpg,3120.jpg,5 Points,5 Points,473 Points,PS1_L8.csv,,,,,,,,,,,,,,,,,,,,,,,,,,,,,0,7,7,7,0,21,21,21,,,,,,,,,,,,,,,,,,,3006.5093927499984,p,1.917245542004821,3008.498444249999,,,,,,272101,A,2024-12-07_12h41.15.701,EPIDM,2023.1.2,None,
2200.jpg,4598.jpg,1 Point,1 Point,474 Points,PS1_L8.csv,,,,,,,,,,,,,,,,,,,,,,,,,,,,,0,7,7,7,0,22,22,22,,,,,,,,,,,,,,,,,,,3012.743467124994,p,2.6753409580123844,3015.4949169579922,,,,,,272101,A,2024-12-07_12h41.15.701,EPIDM,2023.1.2,None,
1303.jpg,2000.jpg,0 Points,0 Points,474 Points,PS1_L8.csv,,,,,,,,,,,,,,,,,,,,,,,,,,,,,0,7,7,7,0,23,23,23,,,,,,,,,,,,,,,,,,,3019.7324506250006,q,1.7506417080003303,3021.5532460419927,,,3032.0296403749962,space,2.0594508740032325,272101,A,2024-12-07_12h41.15.701,EPIDM,2023.1.2,None,
9010.jpg,9253.jpg,0 Points,0 Points,474 Points,PS1_L9.csv,,,,,,,,,,,,,,,,,,,,,,,,,,,,,0,8,8,8,0,0,0,0,,,,,,,,,,,,,,,,,,,3037.413576207997,p,1.0761633750080364,3038.558676332992,,,,,,272101,A,2024-12-07_12h41.15.701,EPIDM,2023.1.2,None,
1302.jpg,2700.jpg,3 Points,3 Points,477 Points,PS1_L9.csv,,,,,,,,,,,,,,,,,,,,,,,,,,,,,0,8,8,8,0,1,1,1,,,,,,,,,,,,,,,,,,,3042.8157764169882,q,1.2184025410097092,3044.0981374169933,3,0.9948789580084849,,,,272101,A,2024-12-07_12h41.15.701,EPIDM,2023.1.2,None,
2030.jpg,2495.jpg,0 Points,0 Points,477 Points,PS1_L9.csv,,,,,,,,,,,,,,,,,,,,,,,,,,,,,0,8,8,8,0,2,2,2,,,,,,,,,,,,,,,,,,,3049.406573791988,q,0.9075779990089359,3050.396267374992,,,,,,272101,A,2024-12-07_12h41.15.701,EPIDM,2023.1.2,None,
2110.jpg,7260.jpg,5 Points,5 Points,482 Points,PS1_L9.csv,,,,,,,,,,,,,,,,,,,,,,,,,,,,,0,8,8,8,0,3,3,3,,,,,,,,,,,,,,,,,,,3054.6426499999943,p,1.5678450830018846,3056.2845620829903,,,,,,272101,A,2024-12-07_12h41.15.701,EPIDM,2023.1.2,None,
2053.jpg,9415.jpg,4 Points,4 Points,486 Points,PS1_L9.csv,,,,,,,,,,,,,,,,,,,,,,,,,,,,,0,8,8,8,0,4,4,4,,,,,,,,,,,,,,,,,,,3060.530988667,q,2.015877541009104,3062.611270333,,,,,,272101,A,2024-12-07_12h41.15.701,EPIDM,2023.1.2,None,
6211.jpg,9611.jpg,3 Points,3 Points,489 Points,PS1_L9.csv,,,,,,,,,,,,,,,,,,,,,,,,,,,,,0,8,8,8,0,5,5,5,,,,,,,,,,,,,,,,,,,3066.857618541995,p,1.7526072909968207,3068.6686959579965,,,,,,272101,A,2024-12-07_12h41.15.701,EPIDM,2023.1.2,None,
8350.jpg,7190.jpg,5 Points,5 Points,494 Points,PS1_L9.csv,,,,,,,,,,,,,,,,,,,,,,,,,,,,,0,8,8,8,0,6,6,6,,,,,,,,,,,,,,,,,,,3072.9249578749877,q,1.4375295420031762,3074.4355306249927,,,,,,272101,A,2024-12-07_12h41.15.701,EPIDM,2023.1.2,None,
9340.jpg,6910.jpg,0 Points,0 Points,494 Points,PS1_L9.csv,,,,,,,,,,,,,,,,,,,,,,,,,,,,,0,8,8,8,0,7,7,7,,,,,,,,,,,,,,,,,,,3078.673750999995,p,1.5033605420030653,3080.25859662499,,,,,,272101,A,2024-12-07_12h41.15.701,EPIDM,2023.1.2,None,
4533.jpg,2385.jpg,3 Points,3 Points,497 Points,PS1_L9.csv,,,,,,,,,,,,,,,,,,,,,,,,,,,,,0,8,8,8,0,8,8,8,,,,,,,,,,,,,,,,,,,3084.5021972079994,p,1.444582124997396,3086.032469749989,,,,,,272101,A,2024-12-07_12h41.15.701,EPIDM,2023.1.2,None,
5940.jpg,9411.jpg,0 Points,0 Points,497 Points,PS1_L9.csv,,,,,,,,,,,,,,,,,,,,,,,,,,,,,0,8,8,8,0,9,9,9,,,,,,,,,,,,,,,,,,,3090.271764457997,q,1.7528045829967596,3092.097569916994,,,,,,272101,A,2024-12-07_12h41.15.701,EPIDM,2023.1.2,None,
2220.jpg,2010.jpg,5 Points,5 Points,502 Points,PS1_L9.csv,,,,,,,,,,,,,,,,,,,,,,,,,,,,,0,8,8,8,0,10,10,10,,,,,,,,,,,,,,,,,,,3096.3476956249942,p,2.581801874010125,3099.0009481250017,,,,,,272101,A,2024-12-07_12h41.15.701,EPIDM,2023.1.2,None,
9500.jpg,6360.jpg,1 Point,1 Point,503 Points,PS1_L9.csv,,,,,,,,,,,,,,,,,,,,,,,,,,,,,0,8,8,8,0,11,11,11,,,,,,,,,,,,,,,,,,,3103.2642717499984,q,2.3920471660094336,3105.7334468329936,,,,,,272101,A,2024-12-07_12h41.15.701,EPIDM,2023.1.2,None,
2092.jpg,2210.jpg,0 Points,0 Points,503 Points,PS1_L9.csv,,,,,,,,,,,,,,,,,,,,,,,,,,,,,0,8,8,8,0,12,12,12,,,,,,,,,,,,,,,,,,,3109.9912433749996,p,1.7292990410060156,3111.781570457999,,,,,,272101,A,2024-12-07_12h41.15.701,EPIDM,2023.1.2,None,
9530.jpg,9220.jpg,1 Point,1 Point,504 Points,PS1_L9.csv,,,,,,,,,,,,,,,,,,,,,,,,,,,,,0,8,8,8,0,13,13,13,,,,,,,,,,,,,,,,,,,3116.0393417079904,q,1.7290905830013799,3117.8359575829963,1,1.0037311659980332,,,,272101,A,2024-12-07_12h41.15.701,EPIDM,2023.1.2,None,
9254.jpg,9290.jpg,2 Points,2 Points,506 Points,PS1_L9.csv,,,,,,,,,,,,,,,,,,,,,,,,,,,,,0,8,8,8,0,14,14,14,,,,,,,,,,,,,,,,,,,3123.154100582993,q,1.5095885830087354,3124.722395082994,,,,,,272101,A,2024-12-07_12h41.15.701,EPIDM,2023.1.2,None,
4608.jpg,8320.jpg,1 Point,1 Point,507 Points,PS1_L9.csv,,,,,,,,,,,,,,,,,,,,,,,,,,,,,0,8,8,8,0,15,15,15,,,,,,,,,,,,,,,,,,,3128.9899684580014,p,1.050704916997347,3130.111661832998,,,,,,272101,A,2024-12-07_12h41.15.701,EPIDM,2023.1.2,None,
7237.jpg,8510.jpg,4 Points,4 Points,511 Points,PS1_L9.csv,,,,,,,,,,,,,,,,,,,,,,,,,,,,,0,8,8,8,0,16,16,16,,,,,,,,,,,,,,,,,,,3134.360378541998,p,0.7598714580090018,3135.192113917001,,,,,,272101,A,2024-12-07_12h41.15.701,EPIDM,2023.1.2,None,
9417.jpg,6530.jpg,1 Point,1 Point,512 Points,PS1_L9.csv,,,,,,,,,,,,,,,,,,,,,,,,,,,,,0,8,8,8,0,17,17,17,,,,,,,,,,,,,,,,,,,3139.4301251669967,p,2.5619248330185656,3142.0659786670003,,,,,,272101,A,2024-12-07_12h41.15.701,EPIDM,2023.1.2,None,
6831.jpg,2141.jpg,5 Points,5 Points,517 Points,PS1_L9.csv,,,,,,,,,,,,,,,,,,,,,,,,,,,,,0,8,8,8,0,18,18,18,,,,,,,,,,,,,,,,,,,3146.3037990829907,q,0.7840417080005864,3147.157618332989,,,,,,272101,A,2024-12-07_12h41.15.701,EPIDM,2023.1.2,None,
4689.jpg,7009.jpg,5 Points,5 Points,522 Points,PS1_L9.csv,,,,,,,,,,,,,,,,,,,,,,,,,,,,,0,8,8,8,0,19,19,19,,,,,,,,,,,,,,,,,,,3151.411109499997,q,1.8280232079996495,3153.3097348750016,,,,,,272101,A,2024-12-07_12h41.15.701,EPIDM,2023.1.2,None,
2751.jpg,6313.jpg,3 Points,3 Points,525 Points,PS1_L9.csv,,,,,,,,,,,,,,,,,,,,,,,,,,,,,0,8,8,8,0,20,20,20,,,,,,,,,,,,,,,,,,,3157.5601897919987,p,1.678587750007864,3159.307887624993,,,,,,272101,A,2024-12-07_12h41.15.701,EPIDM,2023.1.2,None,
4621.jpg,3550.jpg,2 Points,2 Points,527 Points,PS1_L9.csv,,,,,,,,,,,,,,,,,,,,,,,,,,,,,0,8,8,8,0,21,21,21,,,,,,,,,,,,,,,,,,,3163.5532571249933,p,1.110392499002046,3164.7342744169873,,,,,,272101,A,2024-12-07_12h41.15.701,EPIDM,2023.1.2,None,
8220.jpg,2410.jpg,4 Points,4 Points,531 Points,PS1_L9.csv,,,,,,,,,,,,,,,,,,,,,,,,,,,,,0,8,8,8,0,22,22,22,,,,,,,,,,,,,,,,,,,3168.978143207991,q,1.620812166001997,3170.6727994169923,,,,,,272101,A,2024-12-07_12h41.15.701,EPIDM,2023.1.2,None,
1113.jpg,1240.jpg,3 Points,3 Points,534 Points,PS1_L9.csv,,,,,,,,,,,,,,,,,,,,,,,,,,,,,0,8,8,8,0,23,23,23,,,,,,,,,,,,,,,,,,,3174.919696041994,q,1.1821499159996165,3176.1733156669943,,,3186.642334749995,space,1.7016900410089875,272101,A,2024-12-07_12h41.15.701,EPIDM,2023.1.2,None,
2750.jpg,9050.jpg,4 Points,4 Points,538 Points,PS1_L10.csv,,,,,,,,,,,,,,,,,,,,,,,,,,,,,0,9,9,9,0,0,0,0,,,,,,,,,,,,,,,,,,,3191.65859979199,q,1.5560959160065977,3193.287639749993,,,,,,272101,A,2024-12-07_12h41.15.701,EPIDM,2023.1.2,None,
2312.jpg,2722.jpg,1 Points,1 Points,539 Points,PS1_L10.csv,,,,,,,,,,,,,,,,,,,,,,,,,,,,,0,9,9,9,0,1,1,1,,,,,,,,,,,,,,,,,,,3197.540750125001,p,1.6405421660165302,3199.2519707499887,1,0.9718867909978144,,,,272101,A,2024-12-07_12h41.15.701,EPIDM,2023.1.2,None,
8232.jpg,4279.jpg,5 Points,5 Points,544 Points,PS1_L10.csv,,,,,,,,,,,,,,,,,,,,,,,,,,,,,0,9,9,9,0,2,2,2,,,,,,,,,,,,,,,,,,,3204.5416906249884,q,1.4183578740048688,3206.027779457989,,,,,,272101,A,2024-12-07_12h41.15.701,EPIDM,2023.1.2,None,
6000.jpg,6836.jpg,4 Points,4 Points,548 Points,PS1_L10.csv,,,,,,,,,,,,,,,,,,,,,,,,,,,,,0,9,9,9,0,3,3,3,,,,,,,,,,,,,,,,,,,3210.278159124995,p,0.9921132500021486,3211.3451818329922,,,,,,272101,A,2024-12-07_12h41.15.701,EPIDM,2023.1.2,None,
4536.jpg,2280.jpg,4 Points,4 Points,552 Points,PS1_L10.csv,,,,,,,,,,,,,,,,,,,,,,,,,,,,,0,9,9,9,0,4,4,4,,,,,,,,,,,,,,,,,,,3215.5821119169996,p,1.4239649579976685,3217.0862474579917,,,,,,272101,A,2024-12-07_12h41.15.701,EPIDM,2023.1.2,None,
6241.jpg,9561.jpg,3 Points,3 Points,555 Points,PS1_L10.csv,,,,,,,,,,,,,,,,,,,,,,,,,,,,,0,9,9,9,0,5,5,5,,,,,,,,,,,,,,,,,,,3221.328667374997,p,1.2687701670074603,3222.6737749579916,,,,,,272101,A,2024-12-07_12h41.15.701,EPIDM,2023.1.2,None,
1942.jpg,2890.jpg,1 Points,1 Points,556 Points,PS1_L10.csv,,,,,,,,,,,,,,,,,,,,,,,,,,,,,0,9,9,9,0,6,6,6,,,,,,,,,,,,,,,,,,,3226.918557666999,q,1.5434671660041204,3228.5334481249884,,,,,,272101,A,2024-12-07_12h41.15.701,EPIDM,2023.1.2,None,
6020.jpg,6300.jpg,2 Points,2 Points,558 Points,PS1_L10.csv,,,,,,,,,,,,,,,,,,,,,,,,,,,,,0,9,9,9,0,7,7,7,,,,,,,,,,,,,,,,,,,3232.7858175829897,q,1.187588874992798,3234.0355762919935,,,,,,272101,A,2024-12-07_12h41.15.701,EPIDM,2023.1.2,None,
7170.jpg,2170.jpg,2 Points,2 Points,560 Points,PS1_L10.csv,,,,,,,,,,,,,,,,,,,,,,,,,,,,,0,9,9,9,0,8,8,8,,,,,,,,,,,,,,,,,,,3238.290841541995,p,1.0024786660069367,3239.3565514999937,,,,,,272101,A,2024-12-07_12h41.15.701,EPIDM,2023.1.2,None,
5510.jpg,2514.jpg,5 Points,5 Points,565 Points,PS1_L10.csv,,,,,,,,,,,,,,,,,,,,,,,,,,,,,0,9,9,9,0,9,9,9,,,,,,,,,,,,,,,,,,,3243.6089985,p,1.1726213750080206,3244.8497796250012,,,,,,272101,A,2024-12-07_12h41.15.701,EPIDM,2023.1.2,None,
6840.jpg,3080.jpg,1 Points,1 Points,566 Points,PS1_L10.csv,,,,,,,,,,,,,,,,,,,,,,,,,,,,,0,9,9,9,0,10,10,10,,,,,,,,,,,,,,,,,,,3249.097489291991,p,1.8837442079966422,3251.0572203749907,,,,,,272101,A,2024-12-07_12h41.15.701,EPIDM,2023.1.2,None,
7195.jpg,2487.jpg,2 Points,2 Points,568 Points,PS1_L10.csv,,,,,,,,,,,,,,,,,,,,,,,,,,,,,0,9,9,9,0,11,11,11,,,,,,,,,,,,,,,,,,,3255.307150291992,p,2.1217972500016913,3257.493561957992,,,,,,272101,A,2024-12-07_12h41.15.701,EPIDM,2023.1.2,None,
5971.jpg,9912.jpg,5 Points,5 Points,573 Points,PS1_L10.csv,,,,,,,,,,,,,,,,,,,,,,,,,,,,,0,9,9,9,0,12,12,12,,,,,,,,,,,,,,,,,,,3261.7437794169964,p,0.7644699580123415,3262.576569249999,,,,,,272101,A,2024-12-07_12h41.15.701,EPIDM,2023.1.2,None,
2520.jpg,8503.jpg,2 Points,2 Points,575 Points,PS1_L10.csv,,,,,,,,,,,,,,,,,,,,,,,,,,,,,0,9,9,9,0,13,13,13,,,,,,,,,,,,,,,,,,,3266.8305177919974,q,0.9658777490112698,3267.879064875,2,0.878170083014993,,,,272101,A,2024-12-07_12h41.15.701,EPIDM,2023.1.2,None,
5480.jpg,8200.jpg,4 Points,4 Points,579 Points,PS1_L10.csv,,,,,,,,,,,,,,,,,,,,,,,,,,,,,0,9,9,9,0,14,14,14,,,,,,,,,,,,,,,,,,,3273.0882864579908,p,1.6677847079990897,3274.8355037500005,,,,,,272101,A,2024-12-07_12h41.15.701,EPIDM,2023.1.2,None,
6370.jpg,1270.jpg,4 Points,4 Points,583 Points,PS1_L10.csv,,,,,,,,,,,,,,,,,,,,,,,,,,,,,0,9,9,9,0,15,15,15,,,,,,,,,,,,,,,,,,,3279.0797742919967,q,1.1405256250145612,3280.3008747919957,,,,,,272101,A,2024-12-07_12h41.15.701,EPIDM,2023.1.2,None,
5130.jpg,1810.jpg,3 Points,3 Points,586 Points,PS1_L10.csv,,,,,,,,,,,,,,,,,,,,,,,,,,,,,0,9,9,9,0,16,16,16,,,,,,,,,,,,,,,,,,,3284.553484624994,p,1.9790692079986911,3286.6081329169974,,,,,,272101,A,2024-12-07_12h41.15.701,EPIDM,2023.1.2,None,
4250.jpg,7060.jpg,5 Points,5 Points,591 Points,PS1_L10.csv,,,,,,,,,,,,,,,,,,,,,,,,,,,,,0,9,9,9,0,17,17,17,,,,,,,,,,,,,,,,,,,3290.839619249993,q,1.9246439580019796,3292.8482764579967,,,,,,272101,A,2024-12-07_12h41.15.701,EPIDM,2023.1.2,None,
9373.jpg,9410.jpg,0 Points,0 Points,591 Points,PS1_L10.csv,,,,,,,,,,,,,,,,,,,,,,,,,,,,,0,9,9,9,0,18,18,18,,,,,,,,,,,,,,,,,,,3297.0855964999937,p,1.646576333005214,3298.8036438749987,,,,,,272101,A,2024-12-07_12h41.15.701,EPIDM,2023.1.2,None,
2221.jpg,2270.jpg,2 Points,2 Points,593 Points,PS1_L10.csv,,,,,,,,,,,,,,,,,,,,,,,,,,,,,0,9,9,9,0,19,19,19,,,,,,,,,,,,,,,,,,,3303.0464054579934,p,1.1003939580114093,3304.219320999997,,,,,,272101,A,2024-12-07_12h41.15.701,EPIDM,2023.1.2,None,
1650.jpg,2130.jpg,1 Points,1 Points,594 Points,PS1_L10.csv,,,,,,,,,,,,,,,,,,,,,,,,,,,,,0,9,9,9,0,20,20,20,,,,,,,,,,,,,,,,,,,3308.476800416989,q,0.8539623750111787,3309.3988693329884,,,,,,272101,A,2024-12-07_12h41.15.701,EPIDM,2023.1.2,None,
1280.jpg,9402.jpg,2 Points,2 Points,596 Points,PS1_L10.csv,,,,,,,,,,,,,,,,,,,,,,,,,,,,,0,9,9,9,0,21,21,21,,,,,,,,,,,,,,,,,,,3313.650696957993,p,1.6561699580051936,3315.3800192079943,,,,,,272101,A,2024-12-07_12h41.15.701,EPIDM,2023.1.2,None,
2214.jpg,4500.jpg,3 Points,3 Points,599 Points,PS1_L10.csv,,,,,,,,,,,,,,,,,,,,,,,,,,,,,0,9,9,9,0,22,22,22,,,,,,,,,,,,,,,,,,,3319.6257065829996,q,2.025405750013306,3321.724248707993,,,,,,272101,A,2024-12-07_12h41.15.701,EPIDM,2023.1.2,None,
7284.jpg,8021.jpg,4 Points,4 Points,603 Points,PS1_L10.csv,,,,,,,,,,,,,,,,,,,,,,,,,,,,,0,9,9,9,0,23,23,23,,,,,,,,,,,,,,,,,,,3325.9724954999983,p,1.8142426240083296,3327.864870666992,,,3338.3342739999935,space,1.5484736240032362,272101,A,2024-12-07_12h41.15.701,EPIDM,2023.1.2,None,
