L_Scene,R_Scene,Points_L,Points_R,PtTotal,blockFile,Instructions_Loop.thisRepN,Instructions_Loop.thisTrialN,Instructions_Loop.thisN,Instructions_Loop.thisIndex,Redo_Instructions_Loop.thisRepN,Redo_Instructions_Loop.thisTrialN,Redo_Instructions_Loop.thisN,Redo_Instructions_Loop.thisIndex,Practice_Encoding_Loop.thisRepN,Practice_Encoding_Loop.thisTrialN,Practice_Encoding_Loop.thisN,Practice_Encoding_Loop.thisIndex,Practice_Response_Fail_Loop.thisRepN,Practice_Response_Fail_Loop.thisTrialN,Practice_Response_Fail_Loop.thisN,Practice_Response_Fail_Loop.thisIndex,Practice_FB_Loop.thisRepN,Practice_FB_Loop.thisTrialN,Practice_FB_Loop.thisN,Practice_FB_Loop.thisIndex,Practice_Attention_Loop.thisRepN,Practice_Attention_Loop.thisTrialN,Practice_Attention_Loop.thisN,Practice_Attention_Loop.thisIndex,Practice_EncBrk_Loop.thisRepN,Practice_EncBrk_Loop.thisTrialN,Practice_EncBrk_Loop.thisN,Practice_EncBrk_Loop.thisIndex,Encoding_Loop.thisRepN,Encoding_Loop.thisTrialN,Encoding_Loop.thisN,Encoding_Loop.thisIndex,EncStim_Loop.thisRepN,EncStim_Loop.thisTrialN,EncStim_Loop.thisN,EncStim_Loop.thisIndex,Response_Fail_Loop.thisRepN,Response_Fail_Loop.thisTrialN,Response_Fail_Loop.thisN,Response_Fail_Loop.thisIndex,FB_Loop.thisRepN,FB_Loop.thisTrialN,FB_Loop.thisN,FB_Loop.thisIndex,Attention_Loop.thisRepN,Attention_Loop.thisTrialN,Attention_Loop.thisN,Attention_Loop.thisIndex,EncBrk_Loop.thisRepN,EncBrk_Loop.thisTrialN,EncBrk_Loop.thisN,EncBrk_Loop.thisIndex,Transition_Enc.keys,Transition_Enc.rt,Encoding_Resp.started,Encoding_Resp.keys,Encoding_Resp.rt,R_Point_FB_Stim.started,Attn_resp.keys,Attn_resp.rt,Progress_Tracker.started,EncBrk_Resp.keys,EncBrk_Resp.rt,participant,Group,date,expName,psychopyVersion,frameRate,
,,,,,,,,,,,,,,,,,,,,,,,,,,,,,,,,,,,,,,,,,,,,,,,,,,,,,,,,,,space,9.247231082990766,,,,,,,,,,247288,B,2024-12-08_09h08.32.528,EPIDM,2023.1.2,None,
A060.jpg,F041.jpg,5 Points,5 Points,5 Points,,,,,,,,,,0,0,0,0,,,,,,,,,,,,,,,,,,,,,,,,,,,,,,,,,,,,,,,,,,,897.2830799999938,None,,,,,,,,247288,B,2024-12-08_09h08.32.528,EPIDM,2023.1.2,None,
O161.jpg,1812.jpg,2 Points,2 Points,7 Points,,,,,,,,,,0,1,1,1,,,,,,,,,,,,,,,,,,,,,,,,,,,,,,,,,,,,,,,,,,,904.7662262080121,p,1.4102706249977928,906.2792771249951,,,,,,247288,B,2024-12-08_09h08.32.528,EPIDM,2023.1.2,None,
O013.jpg,A001.jpg,3 Points,3 Points,10 Points,,,,,,,,,,0,2,2,2,,,,,,,,,,,,,,,,,,,,,,,,,,,,,,,,,,,,,,,,,,,910.4960697499919,p,1.6809250420192257,912.3488575000083,,,,,,247288,B,2024-12-08_09h08.32.528,EPIDM,2023.1.2,None,
P036.jpg,F273.jpg,5 Points,5 Points,15 Points,,,,,,,,,,0,3,3,3,,,,,,,,,,,,,,,,,,,,,,,,,,,,,,,,,,,,,,,,,,,916.4908184579981,q,1.7176153330074158,918.3710488750075,,,,,,247288,B,2024-12-08_09h08.32.528,EPIDM,2023.1.2,None,
L130.jpg,2393.jpg,0 Points,0 Points,15 Points,,,,,,,,,,0,4,4,4,,,,,,,,,,,,,,,,,,,,,,,,,,,,,,,,,,,,,,,,,,,922.5190939580207,q,1.8807724999787752,924.5419820410025,0,7.339616000012029,,,,247288,B,2024-12-08_09h08.32.528,EPIDM,2023.1.2,None,
F279.jpg,P033.jpg,3 Points,3 Points,18 Points,,,,,,,,,,0,5,5,5,,,,,,,,,,,,,,,,,,,,,,,,,,,,,,,,,,,,,,,,,,,936.1676477910078,p,1.6246366669947747,937.9727757080109,,,,,,247288,B,2024-12-08_09h08.32.528,EPIDM,2023.1.2,None,
A104.jpg,2593.jpg,2 Points,2 Points,20 Points,,,,,,,,,,0,6,6,6,,,,,,,,,,,,,,,,,,,,,,,,,,,,,,,,,,,,,,,,,,,942.1287880000018,p,0.984231375012314,943.2446219580015,,,,,,247288,B,2024-12-08_09h08.32.528,EPIDM,2023.1.2,None,
2598.jpg,2605.jpg,0 Points,0 Points,20 Points,,,,,,,,,,0,7,7,7,,,,,,,,,,,,,,,,,,,,,,,,,,,,,,,,,,,,,,,,,,,947.4355969160097,q,1.1566129169950727,948.6489835829998,,,,,,247288,B,2024-12-08_09h08.32.528,EPIDM,2023.1.2,None,
L005.jpg,O011.jpg,1 Points,1 Points,21 Points,,,,,,,,,,0,8,8,8,,,,,,,,,,,,,,,,,,,,,,,,,,,,,,,,,,,,,,,,,,,952.9047803750145,q,1.4384812079952098,954.4873542909918,,,,,,247288,B,2024-12-08_09h08.32.528,EPIDM,2023.1.2,None,
8186.jpg,F078.jpg,2 Points,2 Points,23 Points,,,,,,,,,,0,9,9,9,,,,,,,,,,,,,,,,,,,,,,,,,,,,,,,,,,,,,,,,,,,958.6616013750026,q,1.146438625000883,959.9373026250105,2,2.4801771670172457,972.628169625008,space,24.84272108398727,247288,B,2024-12-08_09h08.32.528,EPIDM,2023.1.2,None,
,,,,,,,,,,,,,,,,,,,,,,,,,,,,,,,,,,,,,,,,,,,,,,,,,,,,,,,,,,space,3.5554067919729277,,,,,,,,,,247288,B,2024-12-08_09h08.32.528,EPIDM,2023.1.2,None,
7284.jpg,8021.jpg,4 Points,4 Points,4 Points,PS2_L1.csv,,,,,,,,,,,,,,,,,,,,,,,,,,,,,0,0,0,0,0,0,0,0,,,,,,,,,,,,,,,,,,,1013.4808968750003,p,1.0537650000187568,1014.6183940000192,,,,,,247288,B,2024-12-08_09h08.32.528,EPIDM,2023.1.2,None,
2214.jpg,4500.jpg,3 Points,3 Points,7 points,PS2_L1.csv,,,,,,,,,,,,,,,,,,,,,,,,,,,,,0,0,0,0,0,1,1,1,,,,,,,,,,,,,,,,,,,1018.8487871660036,p,1.94953016701038,1020.8714500410133,4,3.0104694170004223,,,,247288,B,2024-12-08_09h08.32.528,EPIDM,2023.1.2,None,
1280.jpg,9402.jpg,2 Points,2 Points,9 points,PS2_L1.csv,,,,,,,,,,,,,,,,,,,,,,,,,,,,,0,0,0,0,0,2,2,2,,,,,,,,,,,,,,,,,,,1028.2007806250185,p,1.9276907500170637,1030.203971208015,,,,,,247288,B,2024-12-08_09h08.32.528,EPIDM,2023.1.2,None,
1650.jpg,2130.jpg,1 Points,1 Points,10 points,PS2_L1.csv,,,,,,,,,,,,,,,,,,,,,,,,,,,,,0,0,0,0,0,3,3,3,,,,,,,,,,,,,,,,,,,1034.456530291005,q,1.6852236249833368,1036.208110541018,,,,,,247288,B,2024-12-08_09h08.32.528,EPIDM,2023.1.2,None,
2221.jpg,2270.jpg,2 Points,2 Points,12 points,PS2_L1.csv,,,,,,,,,,,,,,,,,,,,,,,,,,,,,0,0,0,0,0,4,4,4,,,,,,,,,,,,,,,,,,,1040.460283458,q,1.2340227910026442,1041.7520834580064,,,,,,247288,B,2024-12-08_09h08.32.528,EPIDM,2023.1.2,None,
9373.jpg,9410.jpg,0 Points,0 Points,12 points,PS2_L1.csv,,,,,,,,,,,,,,,,,,,,,,,,,,,,,0,0,0,0,0,5,5,5,,,,,,,,,,,,,,,,,,,1046.003783207998,q,1.8177084169874433,1047.8943179580092,,,,,,247288,B,2024-12-08_09h08.32.528,EPIDM,2023.1.2,None,
4250.jpg,7060.jpg,5 Points,5 Points,17 points,PS2_L1.csv,,,,,,,,,,,,,,,,,,,,,,,,,,,,,0,0,0,0,0,6,6,6,,,,,,,,,,,,,,,,,,,1052.1504636250029,q,1.8233336249832064,1054.0442511250149,,,,,,247288,B,2024-12-08_09h08.32.528,EPIDM,2023.1.2,None,
5130.jpg,1810.jpg,3 Points,3 Points,20 points,PS2_L1.csv,,,,,,,,,,,,,,,,,,,,,,,,,,,,,0,0,0,0,0,7,7,7,,,,,,,,,,,,,,,,,,,1058.2867985829944,p,1.0472711250185966,1059.4136610830028,,,,,,247288,B,2024-12-08_09h08.32.528,EPIDM,2023.1.2,None,
6370.jpg,1270.jpg,4 Points,4 Points,24 points,PS2_L1.csv,,,,,,,,,,,,,,,,,,,,,,,,,,,,,0,0,0,0,0,8,8,8,,,,,,,,,,,,,,,,,,,1063.646155082999,p,1.0310883749916684,1064.754926249996,,,,,,247288,B,2024-12-08_09h08.32.528,EPIDM,2023.1.2,None,
5480.jpg,8200.jpg,4 Points,4 Points,28 points,PS2_L1.csv,,,,,,,,,,,,,,,,,,,,,,,,,,,,,0,0,0,0,0,9,9,9,,,,,,,,,,,,,,,,,,,1068.994005457993,q,0.6758166249783244,1069.7383882499998,,,,,,247288,B,2024-12-08_09h08.32.528,EPIDM,2023.1.2,None,
2520.jpg,8503.jpg,2 Points,2 Points,30 points,PS2_L1.csv,,,,,,,,,,,,,,,,,,,,,,,,,,,,,0,0,0,0,0,10,10,10,,,,,,,,,,,,,,,,,,,1073.9826351660013,p,0.895039666997036,1074.9682478329923,,,,,,247288,B,2024-12-08_09h08.32.528,EPIDM,2023.1.2,None,
5971.jpg,9912.jpg,5 Points,5 Points,35 points,PS2_L1.csv,,,,,,,,,,,,,,,,,,,,,,,,,,,,,0,0,0,0,0,11,11,11,,,,,,,,,,,,,,,,,,,1079.2132788750168,q,0.9202974999789149,1080.1965727909992,,,,,,247288,B,2024-12-08_09h08.32.528,EPIDM,2023.1.2,None,
7195.jpg,2487.jpg,2 Points,2 Points,37 points,PS2_L1.csv,,,,,,,,,,,,,,,,,,,,,,,,,,,,,0,0,0,0,0,12,12,12,,,,,,,,,,,,,,,,,,,1084.4526781660097,p,1.2406369159871247,1085.7656170410046,,,,,,247288,B,2024-12-08_09h08.32.528,EPIDM,2023.1.2,None,
6840.jpg,3080.jpg,1 Points,1 Points,38 points,PS2_L1.csv,,,,,,,,,,,,,,,,,,,,,,,,,,,,,0,0,0,0,0,13,13,13,,,,,,,,,,,,,,,,,,,1090.0168943330063,q,0.7642782500188332,1090.8494018750207,1,2.861227040993981,,,,247288,B,2024-12-08_09h08.32.528,EPIDM,2023.1.2,None,
5510.jpg,2514.jpg,5 Points,5 Points,43 points,PS2_L1.csv,,,,,,,,,,,,,,,,,,,,,,,,,,,,,0,0,0,0,0,14,14,14,,,,,,,,,,,,,,,,,,,1098.0402199160017,q,2.171905000024708,1100.2762539999967,,,,,,247288,B,2024-12-08_09h08.32.528,EPIDM,2023.1.2,None,
7170.jpg,2170.jpg,2 Points,2 Points,45 points,PS2_L1.csv,,,,,,,,,,,,,,,,,,,,,,,,,,,,,0,0,0,0,0,15,15,15,,,,,,,,,,,,,,,,,,,1104.5221405409975,p,1.3058419580047484,1105.9031459160033,,,,,,247288,B,2024-12-08_09h08.32.528,EPIDM,2023.1.2,None,
6020.jpg,6300.jpg,2 Points,2 Points,47 points,PS2_L1.csv,,,,,,,,,,,,,,,,,,,,,,,,,,,,,0,0,0,0,0,16,16,16,,,,,,,,,,,,,,,,,,,1110.1489486659993,p,2.391269124986138,1112.609150083008,,,,,,247288,B,2024-12-08_09h08.32.528,EPIDM,2023.1.2,None,
1942.jpg,2890.jpg,1 Points,1 Points,48 points,PS2_L1.csv,,,,,,,,,,,,,,,,,,,,,,,,,,,,,0,0,0,0,0,17,17,17,,,,,,,,,,,,,,,,,,,1116.8620809160057,q,1.3906713750038762,1118.3126184580033,,,,,,247288,B,2024-12-08_09h08.32.528,EPIDM,2023.1.2,None,
6241.jpg,9561.jpg,3 Points,3 Points,51 points,PS2_L1.csv,,,,,,,,,,,,,,,,,,,,,,,,,,,,,0,0,0,0,0,18,18,18,,,,,,,,,,,,,,,,,,,1122.5686756249925,p,1.157598958001472,1123.7965249160188,,,,,,247288,B,2024-12-08_09h08.32.528,EPIDM,2023.1.2,None,
4536.jpg,2280.jpg,4 Points,4 Points,55 points,PS2_L1.csv,,,,,,,,,,,,,,,,,,,,,,,,,,,,,0,0,0,0,0,19,19,19,,,,,,,,,,,,,,,,,,,1128.0620291660016,q,0.853927542018937,1128.988591250003,,,,,,247288,B,2024-12-08_09h08.32.528,EPIDM,2023.1.2,None,
6000.jpg,6836.jpg,4 Points,4 Points,59 points,PS2_L1.csv,,,,,,,,,,,,,,,,,,,,,,,,,,,,,0,0,0,0,0,20,20,20,,,,,,,,,,,,,,,,,,,1133.2314251250064,q,1.0684946249821223,1134.369273749995,,,,,,247288,B,2024-12-08_09h08.32.528,EPIDM,2023.1.2,None,
8232.jpg,4279.jpg,5 Points,5 Points,64 points,PS2_L1.csv,,,,,,,,,,,,,,,,,,,,,,,,,,,,,0,0,0,0,0,21,21,21,,,,,,,,,,,,,,,,,,,1138.6236009999993,p,1.3321217499906197,1140.0361658750044,,,,,,247288,B,2024-12-08_09h08.32.528,EPIDM,2023.1.2,None,
2312.jpg,2722.jpg,1 Points,1 Points,65 points,PS2_L1.csv,,,,,,,,,,,,,,,,,,,,,,,,,,,,,0,0,0,0,0,22,22,22,,,,,,,,,,,,,,,,,,,1144.2780579579994,q,1.7812573749979492,1146.1344518749975,,,,,,247288,B,2024-12-08_09h08.32.528,EPIDM,2023.1.2,None,
2750.jpg,9050.jpg,4 Points,4 Points,69 points,PS2_L1.csv,,,,,,,,,,,,,,,,,,,,,,,,,,,,,0,0,0,0,0,23,23,23,,,,,,,,,,,,,,,,,,,1150.3786913329968,q,2.120678917010082,1152.5604267080198,,,1163.0434213750123,space,15.295580875012092,247288,B,2024-12-08_09h08.32.528,EPIDM,2023.1.2,None,
1113.jpg,1240.jpg,3 Points,3 Points,72 points,PS2_L2.csv,,,,,,,,,,,,,,,,,,,,,,,,,,,,,0,1,1,1,0,0,0,0,,,,,,,,,,,,,,,,,,,1181.6566728329926,q,1.4585527500021271,1183.2016052910185,,,,,,247288,B,2024-12-08_09h08.32.528,EPIDM,2023.1.2,None,
8220.jpg,2410.jpg,4 Points,4 Points,76 points,PS2_L2.csv,,,,,,,,,,,,,,,,,,,,,,,,,,,,,0,1,1,1,0,1,1,1,,,,,,,,,,,,,,,,,,,1187.4401079160161,q,1.4198447919916362,1188.9307497499976,4,1.555585082998732,,,,247288,B,2024-12-08_09h08.32.528,EPIDM,2023.1.2,None,
4621.jpg,3550.jpg,2 Points,2 Points,78 points,PS2_L2.csv,,,,,,,,,,,,,,,,,,,,,,,,,,,,,0,1,1,1,0,2,2,2,,,,,,,,,,,,,,,,,,,1194.8027572499996,q,2.871938083000714,1197.735906957998,,,,,,247288,B,2024-12-08_09h08.32.528,EPIDM,2023.1.2,None,
2751.jpg,6313.jpg,3 Points,3 Points,81 points,PS2_L2.csv,,,,,,,,,,,,,,,,,,,,,,,,,,,,,0,1,1,1,0,3,3,3,,,,,,,,,,,,,,,,,,,1201.9943143330165,q,1.2565844579949044,1203.311572458013,,,,,,247288,B,2024-12-08_09h08.32.528,EPIDM,2023.1.2,None,
4689.jpg,7009.jpg,5 Points,5 Points,86 points,PS2_L2.csv,,,,,,,,,,,,,,,,,,,,,,,,,,,,,0,1,1,1,0,4,4,4,,,,,,,,,,,,,,,,,,,1207.5694299160095,q,0.5763144999800716,1208.220439916011,,,,,,247288,B,2024-12-08_09h08.32.528,EPIDM,2023.1.2,None,
6831.jpg,2141.jpg,5 Points,5 Points,91 points,PS2_L2.csv,,,,,,,,,,,,,,,,,,,,,,,,,,,,,0,1,1,1,0,5,5,5,,,,,,,,,,,,,,,,,,,1212.4675783750135,p,1.9191779579850845,1214.4482240829966,,,,,,247288,B,2024-12-08_09h08.32.528,EPIDM,2023.1.2,None,
9417.jpg,6530.jpg,1 Point,1 Point,92 points,PS2_L2.csv,,,,,,,,,,,,,,,,,,,,,,,,,,,,,0,1,1,1,0,6,6,6,,,,,,,,,,,,,,,,,,,1218.702129665995,p,1.3725842080020811,1220.1508358330175,,,,,,247288,B,2024-12-08_09h08.32.528,EPIDM,2023.1.2,None,
7237.jpg,8510.jpg,4 Points,4 Points,96 points,PS2_L2.csv,,,,,,,,,,,,,,,,,,,,,,,,,,,,,0,1,1,1,0,7,7,7,,,,,,,,,,,,,,,,,,,1224.3861734160164,p,1.4879164170124568,1225.9477199579997,,,,,,247288,B,2024-12-08_09h08.32.528,EPIDM,2023.1.2,None,
4608.jpg,8320.jpg,1 Point,1 Point,97 points,PS2_L2.csv,,,,,,,,,,,,,,,,,,,,,,,,,,,,,0,1,1,1,0,8,8,8,,,,,,,,,,,,,,,,,,,1230.184977375,q,1.433997249987442,1231.6903053749993,,,,,,247288,B,2024-12-08_09h08.32.528,EPIDM,2023.1.2,None,
9254.jpg,9290.jpg,2 Points,2 Points,99 points,PS2_L2.csv,,,,,,,,,,,,,,,,,,,,,,,,,,,,,0,1,1,1,0,9,9,9,,,,,,,,,,,,,,,,,,,1235.9502068750153,p,0.8357397500076331,1236.8545999159978,,,,,,247288,B,2024-12-08_09h08.32.528,EPIDM,2023.1.2,None,
9530.jpg,9220.jpg,1 Point,1 Point,100 points,PS2_L2.csv,,,,,,,,,,,,,,,,,,,,,,,,,,,,,0,1,1,1,0,10,10,10,,,,,,,,,,,,,,,,,,,1241.1263153330074,q,1.3152234999870416,1242.495873458014,,,,,,247288,B,2024-12-08_09h08.32.528,EPIDM,2023.1.2,None,
2092.jpg,2210.jpg,0 Points,0 Points,100 points,PS2_L2.csv,,,,,,,,,,,,,,,,,,,,,,,,,,,,,0,1,1,1,0,11,11,11,,,,,,,,,,,,,,,,,,,1246.7585423749988,q,1.1802213749906514,1248.0040208330029,,,,,,247288,B,2024-12-08_09h08.32.528,EPIDM,2023.1.2,None,
9500.jpg,6360.jpg,1 Point,1 Point,101 points,PS2_L2.csv,,,,,,,,,,,,,,,,,,,,,,,,,,,,,0,1,1,1,0,12,12,12,,,,,,,,,,,,,,,,,,,1252.2495510000153,p,1.6160109160118736,1253.927504249994,,,,,,247288,B,2024-12-08_09h08.32.528,EPIDM,2023.1.2,None,
2220.jpg,2010.jpg,5 Points,5 Points,106 points,PS2_L2.csv,,,,,,,,,,,,,,,,,,,,,,,,,,,,,0,1,1,1,0,13,13,13,,,,,,,,,,,,,,,,,,,1258.1826688330038,q,1.3315720410028007,1259.5980437080143,5,1.8571296670124866,,,,247288,B,2024-12-08_09h08.32.528,EPIDM,2023.1.2,None,
5940.jpg,9411.jpg,0 Points,0 Points,106 points,PS2_L2.csv,,,,,,,,,,,,,,,,,,,,,,,,,,,,,0,1,1,1,0,14,14,14,,,,,,,,,,,,,,,,,,,1265.7755830830138,q,2.1705019999935757,1268.0176536660001,,,,,,247288,B,2024-12-08_09h08.32.528,EPIDM,2023.1.2,None,
4533.jpg,2385.jpg,3 Points,3 Points,109 points,PS2_L2.csv,,,,,,,,,,,,,,,,,,,,,,,,,,,,,0,1,1,1,0,15,15,15,,,,,,,,,,,,,,,,,,,1272.275422125007,q,0.7984521249891259,1273.155116790993,,,,,,247288,B,2024-12-08_09h08.32.528,EPIDM,2023.1.2,None,
9340.jpg,6910.jpg,0 Points,0 Points,109 points,PS2_L2.csv,,,,,,,,,,,,,,,,,,,,,,,,,,,,,0,1,1,1,0,16,16,16,,,,,,,,,,,,,,,,,,,1277.3913321250002,p,1.3702571250032634,1278.8422329580062,,,,,,247288,B,2024-12-08_09h08.32.528,EPIDM,2023.1.2,None,
8350.jpg,7190.jpg,5 Points,5 Points,114 points,PS2_L2.csv,,,,,,,,,,,,,,,,,,,,,,,,,,,,,0,1,1,1,0,17,17,17,,,,,,,,,,,,,,,,,,,1283.0860943750013,q,0.7876494169759098,1283.948019250005,,,,,,247288,B,2024-12-08_09h08.32.528,EPIDM,2023.1.2,None,
6211.jpg,9611.jpg,3 Points,3 Points,117 points ,PS2_L2.csv,,,,,,,,,,,,,,,,,,,,,,,,,,,,,0,1,1,1,0,18,18,18,,,,,,,,,,,,,,,,,,,1288.194592957996,p,1.4945682499965187,1289.7568439579918,,,,,,247288,B,2024-12-08_09h08.32.528,EPIDM,2023.1.2,None,
2053.jpg,9415.jpg,4 Points,4 Points,121 points,PS2_L2.csv,,,,,,,,,,,,,,,,,,,,,,,,,,,,,0,1,1,1,0,19,19,19,,,,,,,,,,,,,,,,,,,1294.006613458012,q,1.9859192919975612,1296.0516231250076,,,,,,247288,B,2024-12-08_09h08.32.528,EPIDM,2023.1.2,None,
2110.jpg,7260.jpg,5 Points,5 Points,126 points,PS2_L2.csv,,,,,,,,,,,,,,,,,,,,,,,,,,,,,0,1,1,1,0,20,20,20,,,,,,,,,,,,,,,,,,,1300.3079111250117,p,1.1651142920018174,1301.5522801250045,,,,,,247288,B,2024-12-08_09h08.32.528,EPIDM,2023.1.2,None,
2030.jpg,2495.jpg,0 Points,0 Points,126 points,PS2_L2.csv,,,,,,,,,,,,,,,,,,,,,,,,,,,,,0,1,1,1,0,21,21,21,,,,,,,,,,,,,,,,,,,1305.7978985829977,q,0.97118770799716,1306.8461367080163,,,,,,247288,B,2024-12-08_09h08.32.528,EPIDM,2023.1.2,None,
1302.jpg,2700.jpg,3 Points,3 Points,129 points,PS2_L2.csv,,,,,,,,,,,,,,,,,,,,,,,,,,,,,0,1,1,1,0,22,22,22,,,,,,,,,,,,,,,,,,,1311.0942532500194,q,0.9298755839990918,1312.0953134160081,,,,,,247288,B,2024-12-08_09h08.32.528,EPIDM,2023.1.2,None,
9010.jpg,9253.jpg,0 Points,0 Points,129 points,PS2_L2.csv,,,,,,,,,,,,,,,,,,,,,,,,,,,,,0,1,1,1,0,23,23,23,,,,,,,,,,,,,,,,,,,1316.3411150829925,q,1.6998543340014294,1318.1174164160038,,,1328.6122559159994,space,15.580346541013569,247288,B,2024-12-08_09h08.32.528,EPIDM,2023.1.2,None,
1303.jpg,2000.jpg,0 Points,0 Points,129 points,PS2_L3.csv,,,,,,,,,,,,,,,,,,,,,,,,,,,,,0,2,2,2,0,0,0,0,,,,,,,,,,,,,,,,,,,1347.499813833012,q,0.9145024169993121,1348.4810215409962,,,,,,247288,B,2024-12-08_09h08.32.528,EPIDM,2023.1.2,None,
2200.jpg,4598.jpg,1 Point,1 Point,130 points,PS2_L3.csv,,,,,,,,,,,,,,,,,,,,,,,,,,,,,0,2,2,2,0,1,1,1,,,,,,,,,,,,,,,,,,,1352.7368547499937,p,0.95856987501611,1353.7676651660004,1,1.411226208001608,,,,247288,B,2024-12-08_09h08.32.528,EPIDM,2023.1.2,None,
6190.jpg,3120.jpg,5 Points,5 Points,135 points,PS2_L3.csv,,,,,,,,,,,,,,,,,,,,,,,,,,,,,0,2,2,2,0,2,2,2,,,,,,,,,,,,,,,,,,,1359.499782416009,q,3.235149708983954,1362.8202658749942,,,,,,247288,B,2024-12-08_09h08.32.528,EPIDM,2023.1.2,None,
2570.jpg,5500.jpg,3 Points,3 Points,138 points,PS2_L3.csv,,,,,,,,,,,,,,,,,,,,,,,,,,,,,0,2,2,2,0,3,3,3,,,,,,,,,,,,,,,,,,,1367.060920541,p,0.6816760000074282,1367.818009041017,,,,,,247288,B,2024-12-08_09h08.32.528,EPIDM,2023.1.2,None,
8460.jpg,8330.jpg,0 Points,0 Points,138 points,PS2_L3.csv,,,,,,,,,,,,,,,,,,,,,,,,,,,,,0,2,2,2,0,4,4,4,,,,,,,,,,,,,,,,,,,1372.0630089160113,q,0.4407205419847742,1372.569145415997,,,,,,247288,B,2024-12-08_09h08.32.528,EPIDM,2023.1.2,None,
9320.jpg,9007.jpg,0 Points,0 Points,138 points,PS2_L3.csv,,,,,,,,,,,,,,,,,,,,,,,,,,,,,0,2,2,2,0,5,5,5,,,,,,,,,,,,,,,,,,,1376.8149315830087,q,2.792335459002061,1379.6765435830166,,,,,,247288,B,2024-12-08_09h08.32.528,EPIDM,2023.1.2,None,
2650.jpg,4531.jpg,5 Points,5 Points,143 points,PS2_L3.csv,,,,,,,,,,,,,,,,,,,,,,,,,,,,,0,2,2,2,0,6,6,6,,,,,,,,,,,,,,,,,,,1383.9228218329954,q,1.8363866670115385,1385.8408389580145,,,,,,247288,B,2024-12-08_09h08.32.528,EPIDM,2023.1.2,None,
4100.jpg,6570.2.jpg,3 Points,3 Points,146 points,PS2_L3.csv,,,,,,,,,,,,,,,,,,,,,,,,,,,,,0,2,2,2,0,7,7,7,,,,,,,,,,,,,,,,,,,1390.0901534580044,q,1.5002877909864765,1391.669154791016,,,,,,247288,B,2024-12-08_09h08.32.528,EPIDM,2023.1.2,None,
3102.jpg,F032.jpg,1 Point,1 Point,147 points,PS2_L3.csv,,,,,,,,,,,,,,,,,,,,,,,,,,,,,0,2,2,2,0,8,8,8,,,,,,,,,,,,,,,,,,,1395.9153047080035,p,0.9711091249773744,1396.9896744159923,,,,,,247288,B,2024-12-08_09h08.32.528,EPIDM,2023.1.2,None,
2240.jpg,5010.jpg,5 Points,5 Points,152 points,PS2_L3.csv,,,,,,,,,,,,,,,,,,,,,,,,,,,,,0,2,2,2,0,9,9,9,,,,,,,,,,,,,,,,,,,1401.2020434160077,p,1.2917575830069836,1402.5716037499951,,,,,,247288,B,2024-12-08_09h08.32.528,EPIDM,2023.1.2,None,
4605.jpg,1510.jpg,4 Points,4 Points,156 points,PS2_L3.csv,,,,,,,,,,,,,,,,,,,,,,,,,,,,,0,2,2,2,0,10,10,10,,,,,,,,,,,,,,,,,,,1406.8086394580023,p,1.3890127499762457,1408.2682851660065,,,,,,247288,B,2024-12-08_09h08.32.528,EPIDM,2023.1.2,None,
9490.jpg,9210.jpg,1 Point,1 Point,157 points,PS2_L3.csv,,,,,,,,,,,,,,,,,,,,,,,,,,,,,0,2,2,2,0,11,11,11,,,,,,,,,,,,,,,,,,,1412.5180538750137,q,0.9761907499923836,1413.560860291007,,,,,,247288,B,2024-12-08_09h08.32.528,EPIDM,2023.1.2,None,
6821.jpg,9622.jpg,2 Points,2 Points,159 points,PS2_L3.csv,,,,,,,,,,,,,,,,,,,,,,,,,,,,,0,2,2,2,0,12,12,12,,,,,,,,,,,,,,,,,,,1417.8057336250204,q,1.3597151660069358,1419.2280698330142,,,,,,247288,B,2024-12-08_09h08.32.528,EPIDM,2023.1.2,None,
2681.jpg,7100.jpg,3 Points,3 Points,162 points,PS2_L3.csv,,,,,,,,,,,,,,,,,,,,,,,,,,,,,0,2,2,2,0,13,13,13,,,,,,,,,,,,,,,,,,,1423.4927002910117,p,0.6412519169971347,1424.2004858750151,3,1.2909892909810878,,,,247288,B,2024-12-08_09h08.32.528,EPIDM,2023.1.2,None,
5622.jpg,9156.jpg,4 Points,4 Points,166 points,PS2_L3.csv,,,,,,,,,,,,,,,,,,,,,,,,,,,,,0,2,2,2,0,14,14,14,,,,,,,,,,,,,,,,,,,1429.8186783330166,q,1.3622080410132185,1431.2596026660176,,,,,,247288,B,2024-12-08_09h08.32.528,EPIDM,2023.1.2,None,
1111.jpg,1040.jpg,0 Points,0 Points,166 points,PS2_L3.csv,,,,,,,,,,,,,,,,,,,,,,,,,,,,,0,2,2,2,0,15,15,15,,,,,,,,,,,,,,,,,,,1435.5082162909966,q,2.0723414169915486,1437.6592704580107,,,,,,247288,B,2024-12-08_09h08.32.528,EPIDM,2023.1.2,None,
1112.jpg,6230.jpg,3 Points,3 Points,169 points,PS2_L3.csv,,,,,,,,,,,,,,,,,,,,,,,,,,,,,0,2,2,2,0,16,16,16,,,,,,,,,,,,,,,,,,,1441.908496832999,q,1.5533016249828506,1443.543225500005,,,,,,247288,B,2024-12-08_09h08.32.528,EPIDM,2023.1.2,None,
8161.jpg,1900.jpg,4 Points,4 Points,173 points,PS2_L3.csv,,,,,,,,,,,,,,,,,,,,,,,,,,,,,0,2,2,2,0,17,17,17,,,,,,,,,,,,,,,,,,,1447.7814665000187,p,0.7916140830202494,1448.6562707910198,,,,,,247288,B,2024-12-08_09h08.32.528,EPIDM,2023.1.2,None,
9800.jpg,9433.jpg,1 Point,1 Point,174 points,PS2_L3.csv,,,,,,,,,,,,,,,,,,,,,,,,,,,,,0,2,2,2,0,18,18,18,,,,,,,,,,,,,,,,,,,1452.8971255829965,p,2.060401416994864,1455.0205743749975,,,,,,247288,B,2024-12-08_09h08.32.528,EPIDM,2023.1.2,None,
1390.jpg,9421.jpg,2 Points,2 Points,176 points,PS2_L3.csv,,,,,,,,,,,,,,,,,,,,,,,,,,,,,0,2,2,2,0,19,19,19,,,,,,,,,,,,,,,,,,,1459.2656460000144,q,0.67502933301148,1460.0063795000024,,,,,,247288,B,2024-12-08_09h08.32.528,EPIDM,2023.1.2,None,
2850.jpg,4532.jpg,3 Points,3 Points,179 points,PS2_L3.csv,,,,,,,,,,,,,,,,,,,,,,,,,,,,,0,2,2,2,0,20,20,20,,,,,,,,,,,,,,,,,,,1464.270444958005,p,1.2940840410010424,1465.6395893750014,,,,,,247288,B,2024-12-08_09h08.32.528,EPIDM,2023.1.2,None,
1560.jpg,8185.jpg,0 Points,0 Points,179 points,PS2_L3.csv,,,,,,,,,,,,,,,,,,,,,,,,,,,,,0,2,2,2,0,21,21,21,,,,,,,,,,,,,,,,,,,1469.8950144580158,p,1.773267999989912,1471.7333225000184,,,,,,247288,B,2024-12-08_09h08.32.528,EPIDM,2023.1.2,None,
6314.jpg,O022.jpg,2 Points,2 Points,181 points,PS2_L3.csv,,,,,,,,,,,,,,,,,,,,,,,,,,,,,0,2,2,2,0,22,22,22,,,,,,,,,,,,,,,,,,,1475.9875802909955,p,3.1141840420023073,1479.2046030000201,,,,,,247288,B,2024-12-08_09h08.32.528,EPIDM,2023.1.2,None,
4274.jpg,8160.jpg,2 Points,2 Points,183 points,PS2_L3.csv,,,,,,,,,,,,,,,,,,,,,,,,,,,,,0,2,2,2,0,23,23,23,,,,,,,,,,,,,,,,,,,1483.420137875015,q,1.8485778750036843,1485.3902874159976,,,1495.8414814580174,space,27.22482916698209,247288,B,2024-12-08_09h08.32.528,EPIDM,2023.1.2,None,
8117.jpg,2880.jpg,5 Points,5 Points,188 points,PS2_L4.csv,,,,,,,,,,,,,,,,,,,,,,,,,,,,,0,3,3,3,0,0,0,0,,,,,,,,,,,,,,,,,,,1526.3794897909975,q,1.1114052080083638,1527.57315750001,,,,,,247288,B,2024-12-08_09h08.32.528,EPIDM,2023.1.2,None,
3220.jpg,3063.jpg,5 Points,5 Points,193 points,PS2_L4.csv,,,,,,,,,,,,,,,,,,,,,,,,,,,,,0,3,3,3,0,1,1,1,,,,,,,,,,,,,,,,,,,1531.8169699160208,q,1.8743450829933863,1533.7597094160155,5,1.496184791001724,,,,247288,B,2024-12-08_09h08.32.528,EPIDM,2023.1.2,None,
9040.jpg,1120.jpg,3 Points,3 Points,196 points,PS2_L4.csv,,,,,,,,,,,,,,,,,,,,,,,,,,,,,0,3,3,3,0,2,2,2,,,,,,,,,,,,,,,,,,,1539.585843208013,p,1.913864707981702,1541.581323958002,,,,,,247288,B,2024-12-08_09h08.32.528,EPIDM,2023.1.2,None,
5030.jpg,1670.jpg,3 Points,3 Points,199 points,PS2_L4.csv,,,,,,,,,,,,,,,,,,,,,,,,,,,,,0,3,3,3,0,3,3,3,,,,,,,,,,,,,,,,,,,1545.832962290995,q,1.4670252920186613,1547.3631228750164,,,,,,247288,B,2024-12-08_09h08.32.528,EPIDM,2023.1.2,None,
2276.jpg,6540.jpg,3 Points,3 Points,202 points,PS2_L4.csv,,,,,,,,,,,,,,,,,,,,,,,,,,,,,0,3,3,3,0,4,4,4,,,,,,,,,,,,,,,,,,,1551.6185917500115,q,1.8165102089988068,1553.4854453750013,,,,,,247288,B,2024-12-08_09h08.32.528,EPIDM,2023.1.2,None,
1540.jpg,2600.jpg,1 Point,1 Point,203 points,PS2_L4.csv,,,,,,,,,,,,,,,,,,,,,,,,,,,,,0,3,3,3,0,5,5,5,,,,,,,,,,,,,,,,,,,1557.7520390000136,q,1.0511600830068346,1558.863134040992,,,,,,247288,B,2024-12-08_09h08.32.528,EPIDM,2023.1.2,None,
8465.jpg,8400.jpg,1 Point,1 Point,204 points,PS2_L4.csv,,,,,,,,,,,,,,,,,,,,,,,,,,,,,0,3,3,3,0,6,6,6,,,,,,,,,,,,,,,,,,,1563.1129097910016,q,1.0039459170075133,1564.1834205000196,,,,,,247288,B,2024-12-08_09h08.32.528,EPIDM,2023.1.2,None,
3110.jpg,9000.jpg,4 Points,4 Points,208 points,PS2_L4.csv,,,,,,,,,,,,,,,,,,,,,,,,,,,,,0,3,3,3,0,7,7,7,,,,,,,,,,,,,,,,,,,1568.4352428750135,p,1.8938092500029597,1570.393227249995,,,,,,247288,B,2024-12-08_09h08.32.528,EPIDM,2023.1.2,None,
9570.jpg,6610.jpg,0 Points,0 Points,208 points,PS2_L4.csv,,,,,,,,,,,,,,,,,,,,,,,,,,,,,0,3,3,3,0,8,8,8,,,,,,,,,,,,,,,,,,,1574.6579492500168,q,1.728852750005899,1576.4595303749957,,,,,,247288,B,2024-12-08_09h08.32.528,EPIDM,2023.1.2,None,
2690.jpg,9360.jpg,1 Point,1 Point,209 points,PS2_L4.csv,,,,,,,,,,,,,,,,,,,,,,,,,,,,,0,3,3,3,0,9,9,9,,,,,,,,,,,,,,,,,,,1580.70171725002,p,0.8999511250003707,1581.6700375000073,,,,,,247288,B,2024-12-08_09h08.32.528,EPIDM,2023.1.2,None,
8250.jpg,1313.jpg,4 Points,4 Points,213 points,PS2_L4.csv,,,,,,,,,,,,,,,,,,,,,,,,,,,,,0,3,3,3,0,10,10,10,,,,,,,,,,,,,,,,,,,1585.9214497079956,p,1.2965165000059642,1587.2943028330046,,,,,,247288,B,2024-12-08_09h08.32.528,EPIDM,2023.1.2,None,
3022.jpg,2352.2.jpg,0 Points,0 Points,213 points,PS2_L4.csv,,,,,,,,,,,,,,,,,,,,,,,,,,,,,0,3,3,3,0,11,11,11,,,,,,,,,,,,,,,,,,,1591.5419961250154,q,1.675624459021492,1593.286055375007,,,,,,247288,B,2024-12-08_09h08.32.528,EPIDM,2023.1.2,None,
9920.jpg,3068.jpg,5 Points,5 Points,218 points,PS2_L4.csv,,,,,,,,,,,,,,,,,,,,,,,,,,,,,0,3,3,3,0,12,12,12,,,,,,,,,,,,,,,,,,,1597.5273074580182,q,1.794693665986415,1599.3884139580186,,,,,,247288,B,2024-12-08_09h08.32.528,EPIDM,2023.1.2,None,
7234.jpg,5533.jpg,3 Points,3 Points,221 points,PS2_L4.csv,,,,,,,,,,,,,,,,,,,,,,,,,,,,,0,3,3,3,0,13,13,13,,,,,,,,,,,,,,,,,,,1603.643089916004,p,1.8947885420056991,1605.5978734579985,3,1.692326333024539,,,,247288,B,2024-12-08_09h08.32.528,EPIDM,2023.1.2,None,
6250.1.jpg,3301.jpg,0 Points,0 Points,221 points,PS2_L4.csv,,,,,,,,,,,,,,,,,,,,,,,,,,,,,0,3,3,3,0,14,14,14,,,,,,,,,,,,,,,,,,,1611.6072045830078,p,1.2747554579982534,1612.945666625019,,,,,,247288,B,2024-12-08_09h08.32.528,EPIDM,2023.1.2,None,
2518.jpg,2381.jpg,1 Point,1 Point,222 points,PS2_L4.csv,,,,,,,,,,,,,,,,,,,,,,,,,,,,,0,3,3,3,0,15,15,15,,,,,,,,,,,,,,,,,,,1617.2015468330064,q,1.1274815000069793,1618.3920153329964,,,,,,247288,B,2024-12-08_09h08.32.528,EPIDM,2023.1.2,None,
1910.jpg,2575.jpg,2 Points,2 Points,224 points,PS2_L4.csv,,,,,,,,,,,,,,,,,,,,,,,,,,,,,0,3,3,3,0,16,16,16,,,,,,,,,,,,,,,,,,,1622.656754666008,q,0.8739969999878667,1623.584706708003,,,,,,247288,B,2024-12-08_09h08.32.528,EPIDM,2023.1.2,None,
1275.jpg,3150.jpg,1 Point,1 Point,225 points,PS2_L4.csv,,,,,,,,,,,,,,,,,,,,,,,,,,,,,0,3,3,3,0,17,17,17,,,,,,,,,,,,,,,,,,,1627.843798707996,q,0.9084240829979535,1628.8219062499993,,,,,,247288,B,2024-12-08_09h08.32.528,EPIDM,2023.1.2,None,
2702.jpg,1590.jpg,5 Points,5 Points,230 points,PS2_L4.csv,,,,,,,,,,,,,,,,,,,,,,,,,,,,,0,3,3,3,0,18,18,18,,,,,,,,,,,,,,,,,,,1633.0732684580144,q,1.2871246249997057,1634.4291871250025,,,,,,247288,B,2024-12-08_09h08.32.528,EPIDM,2023.1.2,None,
8480.jpg,6410.jpg,1 Point,1 Point,231 points,PS2_L4.csv,,,,,,,,,,,,,,,,,,,,,,,,,,,,,0,3,3,3,0,19,19,19,,,,,,,,,,,,,,,,,,,1638.6733440410171,q,1.9509702920040581,1640.7008240830037,,,,,,247288,B,2024-12-08_09h08.32.528,EPIDM,2023.1.2,None,
5621.jpg,5534.jpg,3 Points,3 Points,234 points,PS2_L4.csv,,,,,,,,,,,,,,,,,,,,,,,,,,,,,0,3,3,3,0,20,20,20,,,,,,,,,,,,,,,,,,,1644.9665872500045,p,1.7132463750021998,1646.7460138330061,,,,,,247288,B,2024-12-08_09h08.32.528,EPIDM,2023.1.2,None,
5972.jpg,6838.jpg,5 Points,5 Points,239 points,PS2_L4.csv,,,,,,,,,,,,,,,,,,,,,,,,,,,,,0,3,3,3,0,21,21,21,,,,,,,,,,,,,,,,,,,1651.0033457500103,p,2.7324668749934062,1653.8056427499978,,,,,,247288,B,2024-12-08_09h08.32.528,EPIDM,2023.1.2,None,
2580.jpg,8300.jpg,3 Points,3 Points,242 points,PS2_L4.csv,,,,,,,,,,,,,,,,,,,,,,,,,,,,,0,3,3,3,0,22,22,22,,,,,,,,,,,,,,,,,,,1658.0585973749985,q,2.501629000005778,1660.6259269580187,,,,,,247288,B,2024-12-08_09h08.32.528,EPIDM,2023.1.2,None,
7280.jpg,7160.jpg,0 Points,0 Points,242 points,PS2_L4.csv,,,,,,,,,,,,,,,,,,,,,,,,,,,,,0,3,3,3,0,23,23,23,,,,,,,,,,,,,,,,,,,1664.8827704580035,q,1.5411112919973675,1666.5108495829918,,,1676.9941787080024,space,17.925112665980123,247288,B,2024-12-08_09h08.32.528,EPIDM,2023.1.2,None,
6243.jpg,2752.jpg,2 Points,2 Points,244 points,PS2_L5.csv,,,,,,,,,,,,,,,,,,,,,,,,,,,,,0,4,4,4,0,0,0,0,,,,,,,,,,,,,,,,,,,1698.2383515830152,p,1.7916558750148397,1700.111280208017,,,,,,247288,B,2024-12-08_09h08.32.528,EPIDM,2023.1.2,None,
8340.jpg,7546.jpg,2 Points,2 Points,246 points,PS2_L5.csv,,,,,,,,,,,,,,,,,,,,,,,,,,,,,0,4,4,4,0,1,1,1,,,,,,,,,,,,,,,,,,,1704.3548521250195,p,1.1156477909826208,1705.5336384160037,2,1.3011460409907158,,,,247288,B,2024-12-08_09h08.32.528,EPIDM,2023.1.2,None,
1022.jpg,6930.jpg,1 Point,1 Point,247 points,PS2_L5.csv,,,,,,,,,,,,,,,,,,,,,,,,,,,,,0,4,4,4,0,2,2,2,,,,,,,,,,,,,,,,,,,1711.148321500019,q,1.7939425829972606,1713.001495791017,,,,,,247288,B,2024-12-08_09h08.32.528,EPIDM,2023.1.2,None,
7230.jpg,7570.jpg,5 Points,5 Points,252 points,PS2_L5.csv,,,,,,,,,,,,,,,,,,,,,,,,,,,,,0,4,4,4,0,3,3,3,,,,,,,,,,,,,,,,,,,1717.2512553330162,p,1.0186202080221847,1718.354095666,,,,,,247288,B,2024-12-08_09h08.32.528,EPIDM,2023.1.2,None,
5760.jpg,1602.jpg,1 Point,1 Point,253 points,PS2_L5.csv,,,,,,,,,,,,,,,,,,,,,,,,,,,,,0,4,4,4,0,4,4,4,,,,,,,,,,,,,,,,,,,1722.598737791006,q,1.1139373329933733,1723.780707458005,,,,,,247288,B,2024-12-08_09h08.32.528,EPIDM,2023.1.2,None,
9584.jpg,3400.jpg,2 Points,2 Points,255 points,PS2_L5.csv,,,,,,,,,,,,,,,,,,,,,,,,,,,,,0,4,4,4,0,5,5,5,,,,,,,,,,,,,,,,,,,1728.0304520000063,q,1.623493834020337,1729.7187351660104,,,,,,247288,B,2024-12-08_09h08.32.528,EPIDM,2023.1.2,None,
2560.jpg,5270.jpg,4 Points,4 Points,259 points,PS2_L5.csv,,,,,,,,,,,,,,,,,,,,,,,,,,,,,0,4,4,4,0,6,6,6,,,,,,,,,,,,,,,,,,,1733.9645347500045,q,2.2336394999874756,1736.27759350001,,,,,,247288,B,2024-12-08_09h08.32.528,EPIDM,2023.1.2,None,
3350.jpg,3210.jpg,1 Point,1 Point,260 points,PS2_L5.csv,,,,,,,,,,,,,,,,,,,,,,,,,,,,,0,4,4,4,0,7,7,7,,,,,,,,,,,,,,,,,,,1740.5341966660053,q,1.9776141659822315,1742.5834457500023,,,,,,247288,B,2024-12-08_09h08.32.528,EPIDM,2023.1.2,None,
5455.jpg,5220.jpg,0 Points,0 Points,260 points,PS2_L5.csv,,,,,,,,,,,,,,,,,,,,,,,,,,,,,0,4,4,4,0,8,8,8,,,,,,,,,,,,,,,,,,,1746.8302380829991,p,0.9517077500058804,1747.8423774580006,,,,,,247288,B,2024-12-08_09h08.32.528,EPIDM,2023.1.2,None,
7920.jpg,9102.jpg,3 Points,3 Points,263 points,PS2_L5.csv,,,,,,,,,,,,,,,,,,,,,,,,,,,,,0,4,4,4,0,9,9,9,,,,,,,,,,,,,,,,,,,1752.0973185409966,q,1.6839737920090556,1753.8644125410065,,,,,,247288,B,2024-12-08_09h08.32.528,EPIDM,2023.1.2,None,
1301.jpg,1070.jpg,2 Points,2 Points,265 points,PS2_L5.csv,,,,,,,,,,,,,,,,,,,,,,,,,,,,,0,4,4,4,0,10,10,10,,,,,,,,,,,,,,,,,,,1758.1052443750086,p,2.1899146659998223,1760.3753608750121,,,,,,247288,B,2024-12-08_09h08.32.528,EPIDM,2023.1.2,None,
5982.jpg,5260.jpg,5 Points,5 Points,270 points,PS2_L5.csv,,,,,,,,,,,,,,,,,,,,,,,,,,,,,0,4,4,4,0,11,11,11,,,,,,,,,,,,,,,,,,,1764.6199398330064,p,1.6963200000172947,1766.3961231659923,,,,,,247288,B,2024-12-08_09h08.32.528,EPIDM,2023.1.2,None,
5000.jpg,8180.jpg,4 Points,4 Points,274 points,PS2_L5.csv,,,,,,,,,,,,,,,,,,,,,,,,,,,,,0,4,4,4,0,12,12,12,,,,,,,,,,,,,,,,,,,1770.6335415829963,q,1.6117449589946773,1772.3203274160041,,,,,,247288,B,2024-12-08_09h08.32.528,EPIDM,2023.1.2,None,
6244.jpg,9265.jpg,0 Points,0 Points,274 points,PS2_L5.csv,,,,,,,,,,,,,,,,,,,,,,,,,,,,,0,4,4,4,0,13,13,13,,,,,,,,,,,,,,,,,,,1776.5665836250118,p,1.9187114590022247,1778.554041416006,0,2.6196296669950243,,,,247288,B,2024-12-08_09h08.32.528,EPIDM,2023.1.2,None,
5990.jpg,5780.jpg,3 Points,3 Points,277 points,PS2_L5.csv,,,,,,,,,,,,,,,,,,,,,,,,,,,,,0,4,4,4,0,14,14,14,,,,,,,,,,,,,,,,,,,1785.4835227080039,p,2.4326914999983273,1787.9842332910048,,,,,,247288,B,2024-12-08_09h08.32.528,EPIDM,2023.1.2,None,
9440.jpg,6350.jpg,4 Points,4 Points,281 points,PS2_L5.csv,,,,,,,,,,,,,,,,,,,,,,,,,,,,,0,4,4,4,0,15,15,15,,,,,,,,,,,,,,,,,,,1792.241235249996,q,1.2741354159952607,1793.5794465829968,,,,,,247288,B,2024-12-08_09h08.32.528,EPIDM,2023.1.2,None,
1850.jpg,5623.jpg,5 Points,5 Points,286 points,PS2_L5.csv,,,,,,,,,,,,,,,,,,,,,,,,,,,,,0,4,4,4,0,16,16,16,,,,,,,,,,,,,,,,,,,1797.8388692080043,p,1.0708793330122717,1798.9829112080042,,,,,,247288,B,2024-12-08_09h08.32.528,EPIDM,2023.1.2,None,
5200.jpg,5020.jpg,0 Points,0 Points,286 points,PS2_L5.csv,,,,,,,,,,,,,,,,,,,,,,,,,,,,,0,4,4,4,0,17,17,17,,,,,,,,,,,,,,,,,,,1803.232764165994,p,0.5148878750042059,1803.8190063330112,,,,,,247288,B,2024-12-08_09h08.32.528,EPIDM,2023.1.2,None,
P211.jpg,9041.jpg,4 Points,4 Points,290 points,PS2_L5.csv,,,,,,,,,,,,,,,,,,,,,,,,,,,,,0,4,4,4,0,18,18,18,,,,,,,,,,,,,,,,,,,1808.0645688330114,p,2.394562458997825,1810.5721435830055,,,,,,247288,B,2024-12-08_09h08.32.528,EPIDM,2023.1.2,None,
5600.jpg,9080.jpg,5 Points,5 Points,295 points,PS2_L5.csv,,,,,,,,,,,,,,,,,,,,,,,,,,,,,0,4,4,4,0,19,19,19,,,,,,,,,,,,,,,,,,,1814.7789227500034,q,1.0655732080049347,1815.9163375000062,,,,,,247288,B,2024-12-08_09h08.32.528,EPIDM,2023.1.2,None,
6800.jpg,9190.jpg,0 Points,0 Points,295 points,PS2_L5.csv,,,,,,,,,,,,,,,,,,,,,,,,,,,,,0,4,4,4,0,20,20,20,,,,,,,,,,,,,,,,,,,1820.1621983750083,p,1.3542334999947343,1821.5906383330002,,,,,,247288,B,2024-12-08_09h08.32.528,EPIDM,2023.1.2,None,
3280.jpg,9270.jpg,0 Points,0 Points,295 points,PS2_L5.csv,,,,,,,,,,,,,,,,,,,,,,,,,,,,,0,4,4,4,0,21,21,21,,,,,,,,,,,,,,,,,,,1825.8406206660147,q,2.018007916980423,1827.913803916017,,,,,,247288,B,2024-12-08_09h08.32.528,EPIDM,2023.1.2,None,
4613.jpg,2720.jpg,4 Points,4 Points,299 points,PS2_L5.csv,,,,,,,,,,,,,,,,,,,,,,,,,,,,,0,4,4,4,0,22,22,22,,,,,,,,,,,,,,,,,,,1832.1711401659995,q,2.3453078329912387,1834.5777607500204,,,,,,247288,B,2024-12-08_09h08.32.528,EPIDM,2023.1.2,None,
1930.jpg,9008.jpg,1 Point,1 Point,300 points,PS2_L5.csv,,,,,,,,,,,,,,,,,,,,,,,,,,,,,0,4,4,4,0,23,23,23,,,,,,,,,,,,,,,,,,,1838.845003333001,q,2.1019619590078946,1841.0238239580067,,,1851.5482305409969,space,21.4382802080072,247288,B,2024-12-08_09h08.32.528,EPIDM,2023.1.2,None,
2190.jpg,7503.jpg,2 Points,2 Points,302 points,PS2_L6.csv,,,,,,,,,,,,,,,,,,,,,,,,,,,,,0,5,5,5,0,0,0,0,,,,,,,,,,,,,,,,,,,1876.3182532500068,p,1.459866666002199,1877.847363583016,,,,,,247288,B,2024-12-08_09h08.32.528,EPIDM,2023.1.2,None,
2490.jpg,2590.jpg,4 Points,4 Points,306 points,PS2_L6.csv,,,,,,,,,,,,,,,,,,,,,,,,,,,,,0,5,5,5,0,1,1,1,,,,,,,,,,,,,,,,,,,1882.0948160830012,p,1.4588715420104563,1883.6313130000199,4,2.0884695409913547,,,,247288,B,2024-12-08_09h08.32.528,EPIDM,2023.1.2,None,
9592.jpg,1300.jpg,2 Points,2 Points,308 points,PS2_L6.csv,,,,,,,,,,,,,,,,,,,,,,,,,,,,,0,5,5,5,0,2,2,2,,,,,,,,,,,,,,,,,,,1890.0360301659966,None,,,,,,,,247288,B,2024-12-08_09h08.32.528,EPIDM,2023.1.2,None,
8230.jpg,2682.jpg,5 Points,5 Points,313 points,PS2_L6.csv,,,,,,,,,,,,,,,,,,,,,,,,,,,,,0,5,5,5,0,3,3,3,,,,,,,,,,,,,,,,,,,1897.541595415998,p,0.8350626669998746,1898.4457354579936,,,,,,247288,B,2024-12-08_09h08.32.528,EPIDM,2023.1.2,None,
9090.jpg,7580.jpg,3 Points,3 Points,316 points,PS2_L6.csv,,,,,,,,,,,,,,,,,,,,,,,,,,,,,0,5,5,5,0,4,4,4,,,,,,,,,,,,,,,,,,,1902.7098262500076,p,1.0363862499943934,1903.8155511660152,,,,,,247288,B,2024-12-08_09h08.32.528,EPIDM,2023.1.2,None,
3530.jpg,6213.jpg,1 Point,1 Point,317 points,PS2_L6.csv,,,,,,,,,,,,,,,,,,,,,,,,,,,,,0,5,5,5,0,5,5,5,,,,,,,,,,,,,,,,,,,1908.0570230410085,p,1.4078408330096863,1909.5410782910185,,,,,,247288,B,2024-12-08_09h08.32.528,EPIDM,2023.1.2,None,
1640.jpg,5531.jpg,3 Points,3 Points,320 points,PS2_L6.csv,,,,,,,,,,,,,,,,,,,,,,,,,,,,,0,5,5,5,0,6,6,6,,,,,,,,,,,,,,,,,,,1913.7888701250195,p,1.0844313749985304,1914.948153416015,,,,,,247288,B,2024-12-08_09h08.32.528,EPIDM,2023.1.2,None,
3064.jpg,3168.jpg,4 Points,4 Points,324 points,PS2_L6.csv,,,,,,,,,,,,,,,,,,,,,,,,,,,,,0,5,5,5,0,7,7,7,,,,,,,,,,,,,,,,,,,1919.1907666659972,p,1.8418923749995884,1921.1039563330123,,,,,,247288,B,2024-12-08_09h08.32.528,EPIDM,2023.1.2,None,
2710.jpg,9252.jpg,1 Point,1 Point,325 points,PS2_L6.csv,,,,,,,,,,,,,,,,,,,,,,,,,,,,,0,5,5,5,0,8,8,8,,,,,,,,,,,,,,,,,,,1925.3523874160019,q,3.1451566250179894,1928.5686616250023,,,,,,247288,B,2024-12-08_09h08.32.528,EPIDM,2023.1.2,None,
2260.jpg,2830.jpg,5 Points,5 Points,330 points,PS2_L6.csv,,,,,,,,,,,,,,,,,,,,,,,,,,,,,0,5,5,5,0,9,9,9,,,,,,,,,,,,,,,,,,,1932.8182161659934,p,0.7340759999933653,1933.6239961250103,,,,,,247288,B,2024-12-08_09h08.32.528,EPIDM,2023.1.2,None,
6510.jpg,A074.jpg,2 Points,2 Points,332 points,PS2_L6.csv,,,,,,,,,,,,,,,,,,,,,,,,,,,,,0,5,5,5,0,10,10,10,,,,,,,,,,,,,,,,,,,1937.864970499999,p,1.3443488339835312,1939.3160305000201,,,,,,247288,B,2024-12-08_09h08.32.528,EPIDM,2023.1.2,None,
5300.jpg,2372.jpg,1 Point,1 Point,333 points,PS2_L6.csv,,,,,,,,,,,,,,,,,,,,,,,,,,,,,0,5,5,5,0,11,11,11,,,,,,,,,,,,,,,,,,,1943.5252976659976,q,0.9548019169887993,1944.5872690000106,,,,,,247288,B,2024-12-08_09h08.32.528,EPIDM,2023.1.2,None,
2749.jpg,7282.jpg,3 Points,3 Points,336 points,PS2_L6.csv,,,,,,,,,,,,,,,,,,,,,,,,,,,,,0,5,5,5,0,12,12,12,,,,,,,,,,,,,,,,,,,1948.7885731660062,p,2.3079457079875283,1951.1671250410145,,,,,,247288,B,2024-12-08_09h08.32.528,EPIDM,2023.1.2,None,
3130.jpg,3500.jpg,4 Points,4 Points,340 points,PS2_L6.csv,,,,,,,,,,,,,,,,,,,,,,,,,,,,,0,5,5,5,0,13,13,13,,,,,,,,,,,,,,,,,,,1955.414927875012,p,2.9770166669914033,1958.4635045000177,4,3.0022542090155184,,,,247288,B,2024-12-08_09h08.32.528,EPIDM,2023.1.2,None,
6312.jpg,3230.jpg,2 Points,2 Points,342 points,PS2_L6.csv,,,,,,,,,,,,,,,,,,,,,,,,,,,,,0,5,5,5,0,14,14,14,,,,,,,,,,,,,,,,,,,1965.7812437500106,q,2.242282166000223,1968.10252450002,,,,,,247288,B,2024-12-08_09h08.32.528,EPIDM,2023.1.2,None,
2597.jpg,5870.jpg,5 Points,5 Points,347 points,PS2_L6.csv,,,,,,,,,,,,,,,,,,,,,,,,,,,,,0,5,5,5,0,15,15,15,,,,,,,,,,,,,,,,,,,1972.3540823750081,p,0.9421732499904465,1973.366191833018,,,,,,247288,B,2024-12-08_09h08.32.528,EPIDM,2023.1.2,None,
8033.jpg,7270.jpg,3 Points,3 Points,350 points,PS2_L6.csv,,,,,,,,,,,,,,,,,,,,,,,,,,,,,0,5,5,5,0,16,16,16,,,,,,,,,,,,,,,,,,,1977.6237617080042,q,1.2315840420196764,1978.9213559160125,,,,,,247288,B,2024-12-08_09h08.32.528,EPIDM,2023.1.2,None,
3170.jpg,6560.jpg,2 Points,2 Points,352 points,PS2_L6.csv,,,,,,,,,,,,,,,,,,,,,,,,,,,,,0,5,5,5,0,17,17,17,,,,,,,,,,,,,,,,,,,1983.1910020410141,q,2.647822750004707,1985.9101079580141,,,,,,247288,B,2024-12-08_09h08.32.528,EPIDM,2023.1.2,None,
6242.jpg,F034.jpg,4 Points,4 Points,356 points,PS2_L6.csv,,,,,,,,,,,,,,,,,,,,,,,,,,,,,0,5,5,5,0,18,18,18,,,,,,,,,,,,,,,,,,,1990.1744692079956,p,2.0971616670140065,1992.3940956250008,,,,,,247288,B,2024-12-08_09h08.32.528,EPIDM,2023.1.2,None,
2485.jpg,7350.jpg,0 Points,0 Points,356 points,PS2_L6.csv,,,,,,,,,,,,,,,,,,,,,,,,,,,,,0,5,5,5,0,19,19,19,,,,,,,,,,,,,,,,,,,1996.6004141659942,p,1.606888541020453,1998.29095533301,,,,,,247288,B,2024-12-08_09h08.32.528,EPIDM,2023.1.2,None,
2900.jpg,1101.jpg,3 Points,3 Points,359 points,PS2_L6.csv,,,,,,,,,,,,,,,,,,,,,,,,,,,,,0,5,5,5,0,20,20,20,,,,,,,,,,,,,,,,,,,2002.5366325410141,q,1.1817015420238022,2003.801765915996,,,,,,247288,B,2024-12-08_09h08.32.528,EPIDM,2023.1.2,None,
7002.jpg,4660.jpg,4 Points,4 Points,363 points,PS2_L6.csv,,,,,,,,,,,,,,,,,,,,,,,,,,,,,0,5,5,5,0,21,21,21,,,,,,,,,,,,,,,,,,,2008.0334018330032,p,1.941174791980302,2010.050820708013,,,,,,247288,B,2024-12-08_09h08.32.528,EPIDM,2023.1.2,None,
A025.jpg,1051.jpg,0 Points,0 Points,363 points,PS2_L6.csv,,,,,,,,,,,,,,,,,,,,,,,,,,,,,0,5,5,5,0,22,22,22,,,,,,,,,,,,,,,,,,,2014.2853782080056,p,2.872990125004435,2017.2852880000137,,,,,,247288,B,2024-12-08_09h08.32.528,EPIDM,2023.1.2,None,
4510.jpg,2230.jpg,5 Points,5 Points,368 points,PS2_L6.csv,,,,,,,,,,,,,,,,,,,,,,,,,,,,,0,5,5,5,0,23,23,23,,,,,,,,,,,,,,,,,,,2021.4741483330145,q,0.8760316669940948,2022.4344109999947,,,2032.9611889999942,space,18.245091000018874,247288,B,2024-12-08_09h08.32.528,EPIDM,2023.1.2,None,
2383.jpg,1616.jpg,2 Points,2 Points,370 points,PS2_L7.csv,,,,,,,,,,,,,,,,,,,,,,,,,,,,,0,6,6,6,0,0,0,0,,,,,,,,,,,,,,,,,,,2054.5262452500174,p,1.4394756659748964,2056.045096707996,,,,,,247288,B,2024-12-08_09h08.32.528,EPIDM,2023.1.2,None,
1310.jpg,3181.jpg,4 Points,4 Points,374 points,PS2_L7.csv,,,,,,,,,,,,,,,,,,,,,,,,,,,,,0,6,6,6,0,1,1,1,,,,,,,,,,,,,,,,,,,2060.29526337501,p,1.318522582994774,2061.672721291019,4,1.6616064170084428,,,,247288,B,2024-12-08_09h08.32.528,EPIDM,2023.1.2,None,
7289.jpg,4534.jpg,0 Points,0 Points,374 points,PS2_L7.csv,,,,,,,,,,,,,,,,,,,,,,,,,,,,,0,6,6,6,0,2,2,2,,,,,,,,,,,,,,,,,,,2067.662158040999,p,2.734255374991335,2070.4733999580203,,,,,,247288,B,2024-12-08_09h08.32.528,EPIDM,2023.1.2,None,
6010.jpg,7361.jpg,2 Points,2 Points,376 points,PS2_L7.csv,,,,,,,,,,,,,,,,,,,,,,,,,,,,,0,6,6,6,0,3,3,3,,,,,,,,,,,,,,,,,,,2074.7217614580004,p,2.4986733330006246,2077.2905351250083,,,,,,247288,B,2024-12-08_09h08.32.528,EPIDM,2023.1.2,None,
2661.jpg,2870.jpg,5 Points,5 Points,381 points,PS2_L7.csv,,,,,,,,,,,,,,,,,,,,,,,,,,,,,0,6,6,6,0,4,4,4,,,,,,,,,,,,,,,,,,,2081.5381822909985,p,2.8344983339775354,2084.436807582999,,,,,,247288,B,2024-12-08_09h08.32.528,EPIDM,2023.1.2,None,
7220.jpg,8090.jpg,2 Points,2 Points,383 points,PS2_L7.csv,,,,,,,,,,,,,,,,,,,,,,,,,,,,,0,6,6,6,0,5,5,5,,,,,,,,,,,,,,,,,,,2088.6850873749936,p,1.3193934580194764,2090.0741631660203,,,,,,247288,B,2024-12-08_09h08.32.528,EPIDM,2023.1.2,None,
9140.jpg,2810.jpg,3 Points,3 Points,386 points,PS2_L7.csv,,,,,,,,,,,,,,,,,,,,,,,,,,,,,0,6,6,6,0,6,6,6,,,,,,,,,,,,,,,,,,,2094.330793000001,p,1.5132657089852728,2095.904917750013,,,,,,247288,B,2024-12-08_09h08.32.528,EPIDM,2023.1.2,None,
2516.jpg,8500.jpg,4 Points,4 Points,390 points,PS2_L7.csv,,,,,,,,,,,,,,,,,,,,,,,,,,,,,0,6,6,6,0,7,7,7,,,,,,,,,,,,,,,,,,,2100.1678185409983,q,1.7492883749946486,2101.9841999160126,,,,,,247288,B,2024-12-08_09h08.32.528,EPIDM,2023.1.2,None,
9070.jpg,9420.jpg,2 Points,2 Points,392 points,PS2_L7.csv,,,,,,,,,,,,,,,,,,,,,,,,,,,,,0,6,6,6,0,8,8,8,,,,,,,,,,,,,,,,,,,2106.230809166009,q,0.9659369590226561,2107.2796006250137,,,,,,247288,B,2024-12-08_09h08.32.528,EPIDM,2023.1.2,None,
6561.jpg,1525.jpg,2 Points,2 Points,394 points,PS2_L7.csv,,,,,,,,,,,,,,,,,,,,,,,,,,,,,0,6,6,6,0,9,9,9,,,,,,,,,,,,,,,,,,,2111.534974583017,q,2.4615527499991003,2114.0488612500194,,,,,,247288,B,2024-12-08_09h08.32.528,EPIDM,2023.1.2,None,
7175.jpg,7490.jpg,2 Points,2 Points,396 points,PS2_L7.csv,,,,,,,,,,,,,,,,,,,,,,,,,,,,,0,6,6,6,0,10,10,10,,,,,,,,,,,,,,,,,,,2118.3041827080015,p,1.6196224999730475,2120.001500582992,,,,,,247288,B,2024-12-08_09h08.32.528,EPIDM,2023.1.2,None,
8010.jpg,2630.jpg,0 Points,0 Points,396 points,PS2_L7.csv,,,,,,,,,,,,,,,,,,,,,,,,,,,,,0,6,6,6,0,11,11,11,,,,,,,,,,,,,,,,,,,2124.240889790992,p,1.650594667007681,2125.9583147079975,,,,,,247288,B,2024-12-08_09h08.32.528,EPIDM,2023.1.2,None,
F174.jpg,9404.jpg,5 Points,5 Points,401 points,PS2_L7.csv,,,,,,,,,,,,,,,,,,,,,,,,,,,,,0,6,6,6,0,12,12,12,,,,,,,,,,,,,,,,,,,2130.1978042499977,q,1.886515291989781,2132.1948247910186,,,,,,247288,B,2024-12-08_09h08.32.528,EPIDM,2023.1.2,None,
2692.jpg,8231.jpg,4 Points,4 Points,405 points,PS2_L7.csv,,,,,,,,,,,,,,,,,,,,,,,,,,,,,0,6,6,6,0,13,13,13,,,,,,,,,,,,,,,,,,,2136.4030999160022,p,2.5764962079992983,2139.0881704580097,4,3.8585711249907035,,,,247288,B,2024-12-08_09h08.32.528,EPIDM,2023.1.2,None,
5994.jpg,5390.jpg,0 Points,0 Points,405 points,PS2_L7.csv,,,,,,,,,,,,,,,,,,,,,,,,,,,,,0,6,6,6,0,14,14,14,,,,,,,,,,,,,,,,,,,2147.2366222499986,q,1.5340573330176994,2148.8233207080048,,,,,,247288,B,2024-12-08_09h08.32.528,EPIDM,2023.1.2,None,
9560.jpg,3071.jpg,1 Point,1 Point,406 points,PS2_L7.csv,,,,,,,,,,,,,,,,,,,,,,,,,,,,,0,6,6,6,0,15,15,15,,,,,,,,,,,,,,,,,,,2153.086059041001,q,1.4051313750096597,2154.5577669579943,,,,,,247288,B,2024-12-08_09h08.32.528,EPIDM,2023.1.2,None,
9330.jpg,3015.jpg,5 Points,5 Points,411 points,PS2_L7.csv,,,,,,,,,,,,,,,,,,,,,,,,,,,,,0,6,6,6,0,16,16,16,,,,,,,,,,,,,,,,,,,2158.812279708014,q,3.3671148749708664,2162.250265166018,,,,,,247288,B,2024-12-08_09h08.32.528,EPIDM,2023.1.2,None,
2389.jpg,7320.jpg,0 Points,0 Points,411 points,PS2_L7.csv,,,,,,,,,,,,,,,,,,,,,,,,,,,,,0,6,6,6,0,17,17,17,,,,,,,,,,,,,,,,,,,2166.4958052080183,q,1.0905637080140878,2167.6742834160104,,,,,,247288,B,2024-12-08_09h08.32.528,EPIDM,2023.1.2,None,
6570.1.jpg,9432.jpg,5 Points,5 Points,416 points,PS2_L7.csv,,,,,,,,,,,,,,,,,,,,,,,,,,,,,0,6,6,6,0,18,18,18,,,,,,,,,,,,,,,,,,,2171.9117857080128,p,2.6183361249859445,2174.6046416250174,,,,,,247288,B,2024-12-08_09h08.32.528,EPIDM,2023.1.2,None,
9452.jpg,7184.jpg,4 Points,4 Points,420 points,PS2_L7.csv,,,,,,,,,,,,,,,,,,,,,,,,,,,,,0,6,6,6,0,19,19,19,,,,,,,,,,,,,,,,,,,2178.852069582994,p,2.894341292005265,2181.8208839159925,,,,,,247288,B,2024-12-08_09h08.32.528,EPIDM,2023.1.2,None,
5120.jpg,5520.jpg,2 Points,2 Points,422 points,PS2_L7.csv,,,,,,,,,,,,,,,,,,,,,,,,,,,,,0,6,6,6,0,20,20,20,,,,,,,,,,,,,,,,,,,2186.065270666004,p,1.0816669169871602,2187.2143870409927,,,,,,247288,B,2024-12-08_09h08.32.528,EPIDM,2023.1.2,None,
5970.jpg,3300.jpg,0 Points,0 Points,422 points,PS2_L7.csv,,,,,,,,,,,,,,,,,,,,,,,,,,,,,0,6,6,6,0,21,21,21,,,,,,,,,,,,,,,,,,,2191.4655118329974,p,2.8408268750063144,2194.3885207500134,,,,,,247288,B,2024-12-08_09h08.32.528,EPIDM,2023.1.2,None,
7620.jpg,5395.jpg,1 Point,1 Point,423 points,PS2_L7.csv,,,,,,,,,,,,,,,,,,,,,,,,,,,,,0,6,6,6,0,22,22,22,,,,,,,,,,,,,,,,,,,2198.6331097910006,q,1.5197562920220662,2200.216938041005,,,,,,247288,B,2024-12-08_09h08.32.528,EPIDM,2023.1.2,None,
P019.jpg,F158.jpg,3 Points,3 Points,426 points,PS2_L7.csv,,,,,,,,,,,,,,,,,,,,,,,,,,,,,0,6,6,6,0,23,23,23,,,,,,,,,,,,,,,,,,,2204.4851831250126,p,1.3879548749828245,2206.0079149999947,,,2216.410864083009,space,17.32516808298533,247288,B,2024-12-08_09h08.32.528,EPIDM,2023.1.2,None,
2620.jpg,2594.jpg,0 Points,0 Points,426 points,PS2_L8.csv,,,,,,,,,,,,,,,,,,,,,,,,,,,,,0,7,7,7,0,0,0,0,,,,,,,,,,,,,,,,,,,2237.0634610830166,q,1.2493177500145976,2238.4184667500085,,,,,,247288,B,2024-12-08_09h08.32.528,EPIDM,2023.1.2,None,
F369.jpg,3100.jpg,2 Points,2 Points,428 points,PS2_L8.csv,,,,,,,,,,,,,,,,,,,,,,,,,,,,,0,7,7,7,0,1,1,1,,,,,,,,,,,,,,,,,,,2242.630498375016,q,1.7782326659944374,2244.498531874997,2,1.4394169159932062,,,,247288,B,2024-12-08_09h08.32.528,EPIDM,2023.1.2,None,
1052.jpg,1201.jpg,3 Points,3 Points,431 points,PS2_L8.csv,,,,,,,,,,,,,,,,,,,,,,,,,,,,,0,7,7,7,0,2,2,2,,,,,,,,,,,,,,,,,,,2250.263381583005,p,0.9841538329783361,2251.342649750004,,,,,,247288,B,2024-12-08_09h08.32.528,EPIDM,2023.1.2,None,
2606.jpg,2480.jpg,1 Point,1 Point,432 points,PS2_L8.csv,,,,,,,,,,,,,,,,,,,,,,,,,,,,,0,7,7,7,0,3,3,3,,,,,,,,,,,,,,,,,,,2255.5664394579944,q,0.9690981669991743,2256.609492082993,,,,,,247288,B,2024-12-08_09h08.32.528,EPIDM,2023.1.2,None,
9594.jpg,1080.jpg,4 Points,4 Points,436 points,PS2_L8.csv,,,,,,,,,,,,,,,,,,,,,,,,,,,,,0,7,7,7,0,4,4,4,,,,,,,,,,,,,,,,,,,2260.866642708017,p,2.205439124983968,2263.1464037910046,,,,,,247288,B,2024-12-08_09h08.32.528,EPIDM,2023.1.2,None,
4770.jpg,4275.jpg,3 Points,3 Points,439 points,PS2_L8.csv,,,,,,,,,,,,,,,,,,,,,,,,,,,,,0,7,7,7,0,5,5,5,,,,,,,,,,,,,,,,,,,2267.393378083012,q,2.5660025420074817,2270.033099458,,,,,,247288,B,2024-12-08_09h08.32.528,EPIDM,2023.1.2,None,
P077.jpg,A041.jpg,1 Point,1 Point,440 points,PS2_L8.csv,,,,,,,,,,,,,,,,,,,,,,,,,,,,,0,7,7,7,0,6,6,6,,,,,,,,,,,,,,,,,,,2274.266124457994,p,1.1573301660246216,2275.561805791018,,,,,,247288,B,2024-12-08_09h08.32.528,EPIDM,2023.1.2,None,
6550.jpg,9582.jpg,5 Points,5 Points,445 points,PS2_L8.csv,,,,,,,,,,,,,,,,,,,,,,,,,,,,,0,7,7,7,0,7,7,7,,,,,,,,,,,,,,,,,,,2279.742525666021,p,1.9293307090119924,2281.7896415830182,,,,,,247288,B,2024-12-08_09h08.32.528,EPIDM,2023.1.2,None,
8040.jpg,7185.jpg,1 Point,1 Point,446 points,PS2_L8.csv,,,,,,,,,,,,,,,,,,,,,,,,,,,,,0,7,7,7,0,8,8,8,,,,,,,,,,,,,,,,,,,2285.98974345802,q,1.3459252080065198,2287.4168175410014,,,,,,247288,B,2024-12-08_09h08.32.528,EPIDM,2023.1.2,None,
P233.jpg,3060.jpg,1 Point,1 Point,447 points,PS2_L8.csv,,,,,,,,,,,,,,,,,,,,,,,,,,,,,0,7,7,7,0,9,9,9,,,,,,,,,,,,,,,,,,,2291.6661466660153,q,2.2760722500097472,2294.055783165997,,,,,,247288,B,2024-12-08_09h08.32.528,EPIDM,2023.1.2,None,
1090.jpg,P217.jpg,5 Points,5 Points,452 points,PS2_L8.csv,,,,,,,,,,,,,,,,,,,,,,,,,,,,,0,7,7,7,0,10,10,10,,,,,,,,,,,,,,,,,,,2298.264115750004,q,1.886238584003877,2300.2658161660074,,,,,,247288,B,2024-12-08_09h08.32.528,EPIDM,2023.1.2,None,
9405.jpg,6250.2.jpg,3 Points,3 Points,455 points,PS2_L8.csv,,,,,,,,,,,,,,,,,,,,,,,,,,,,,0,7,7,7,0,11,11,11,,,,,,,,,,,,,,,,,,,2304.475247916009,p,0.9379560409870464,2305.490196416009,,,,,,247288,B,2024-12-08_09h08.32.528,EPIDM,2023.1.2,None,
1610.jpg,F203.jpg,0 Points,0 Points,455 points,PS2_L8.csv,,,,,,,,,,,,,,,,,,,,,,,,,,,,,0,7,7,7,0,12,12,12,,,,,,,,,,,,,,,,,,,2309.730147416005,p,1.388737500004936,2311.2207578750094,,,,,,247288,B,2024-12-08_09h08.32.528,EPIDM,2023.1.2,None,
P222.jpg,9401.jpg,2 Points,2 Points,457 points,PS2_L8.csv,,,,,,,,,,,,,,,,,,,,,,,,,,,,,0,7,7,7,0,13,13,13,,,,,,,,,,,,,,,,,,,2315.433710083016,p,3.1642514579871204,2318.713293708017,2,2.7648327499919105,,,,247288,B,2024-12-08_09h08.32.528,EPIDM,2023.1.2,None,
5471.jpg,7352.jpg,2 Points,2 Points,459 points,PS2_L8.csv,,,,,,,,,,,,,,,,,,,,,,,,,,,,,0,7,7,7,0,14,14,14,,,,,,,,,,,,,,,,,,,2325.7946259159944,q,1.5793830000038724,2327.43858812502,,,,,,247288,B,2024-12-08_09h08.32.528,EPIDM,2023.1.2,None,
9042.jpg,2753.jpg,0 Points,0 Points,459 points,PS2_L8.csv,,,,,,,,,,,,,,,,,,,,,,,,,,,,,0,7,7,7,0,15,15,15,,,,,,,,,,,,,,,,,,,2331.681110125006,p,2.0291607920080423,2333.7672152500018,,,,,,247288,B,2024-12-08_09h08.32.528,EPIDM,2023.1.2,None,
8311.jpg,4609.jpg,2 Points,2 Points,461 points,PS2_L8.csv,,,,,,,,,,,,,,,,,,,,,,,,,,,,,0,7,7,7,0,16,16,16,,,,,,,,,,,,,,,,,,,2338.0211832500063,p,1.368211999972118,2339.457965083013,,,,,,247288,B,2024-12-08_09h08.32.528,EPIDM,2023.1.2,None,
2320.jpg,2791.jpg,4 Points,4 Points,465 points,PS2_L8.csv,,,,,,,,,,,,,,,,,,,,,,,,,,,,,0,7,7,7,0,17,17,17,,,,,,,,,,,,,,,,,,,2343.708137166017,q,1.4817521249933634,2345.258365290996,,,,,,247288,B,2024-12-08_09h08.32.528,EPIDM,2023.1.2,None,
F365.jpg,3180.jpg,5 Points,5 Points,470 points,PS2_L8.csv,,,,,,,,,,,,,,,,,,,,,,,,,,,,,0,7,7,7,0,18,18,18,,,,,,,,,,,,,,,,,,,2349.5134720000206,p,2.971669041988207,2352.5765608329966,,,,,,247288,B,2024-12-08_09h08.32.528,EPIDM,2023.1.2,None,
9300.jpg,1050.jpg,4 Points,4 Points,474 points,PS2_L8.csv,,,,,,,,,,,,,,,,,,,,,,,,,,,,,0,7,7,7,0,19,19,19,,,,,,,,,,,,,,,,,,,2356.7963442910113,p,0.9775123750150669,2357.8620105000155,,,,,,247288,B,2024-12-08_09h08.32.528,EPIDM,2023.1.2,None,
6150.jpg,2206.jpg,0 Points,0 Points,474 points,PS2_L8.csv,,,,,,,,,,,,,,,,,,,,,,,,,,,,,0,7,7,7,0,20,20,20,,,,,,,,,,,,,,,,,,,2362.0801945410203,p,1.7570860830019228,2363.911290582997,,,,,,247288,B,2024-12-08_09h08.32.528,EPIDM,2023.1.2,None,
6260.jpg,3062.jpg,3 Points,3 Points,477 points,PS2_L8.csv,,,,,,,,,,,,,,,,,,,,,,,,,,,,,0,7,7,7,0,21,21,21,,,,,,,,,,,,,,,,,,,2368.1507686660043,p,1.8067776249954477,2370.023665375018,,,,,,247288,B,2024-12-08_09h08.32.528,EPIDM,2023.1.2,None,
6571.jpg,P237.jpg,2 Points,2 Points,479 points,PS2_L8.csv,,,,,,,,,,,,,,,,,,,,,,,,,,,,,0,7,7,7,0,22,22,22,,,,,,,,,,,,,,,,,,,2374.276118458016,q,2.160550915985368,2376.5500777499983,,,,,,247288,B,2024-12-08_09h08.32.528,EPIDM,2023.1.2,None,
7283.jpg,1720.jpg,4 Points,4 Points,483 points,PS2_L8.csv,,,,,,,,,,,,,,,,,,,,,,,,,,,,,0,7,7,7,0,23,23,23,,,,,,,,,,,,,,,,,,,2380.7556992910104,p,0.8086835840076674,2381.636824040994,,,2392.0979290830146,space,25.842512874980457,247288,B,2024-12-08_09h08.32.528,EPIDM,2023.1.2,None,
3160.jpg,6210.jpg,1 Point,1 Point,484 points,PS2_L9.csv,,,,,,,,,,,,,,,,,,,,,,,,,,,,,0,8,8,8,0,0,0,0,,,,,,,,,,,,,,,,,,,2421.2497910410166,q,1.552719083003467,2422.8821815410047,,,,,,247288,B,2024-12-08_09h08.32.528,EPIDM,2023.1.2,None,
2100.jpg,7205.jpg,5 Points,5 Points,489 points,PS2_L9.csv,,,,,,,,,,,,,,,,,,,,,,,,,,,,,0,8,8,8,0,1,1,1,,,,,,,,,,,,,,,,,,,2427.128553125018,q,0.9864896659855731,2428.1954937500122,5,1.537125750008272,,,,247288,B,2024-12-08_09h08.32.528,EPIDM,2023.1.2,None,
9110.jpg,3051.jpg,1 Point,1 Point,490 points,PS2_L9.csv,,,,,,,,,,,,,,,,,,,,,,,,,,,,,0,8,8,8,0,2,2,2,,,,,,,,,,,,,,,,,,,2434.041719666013,q,1.2509387499885634,2435.3688096250116,,,,,,247288,B,2024-12-08_09h08.32.528,EPIDM,2023.1.2,None,
9101.jpg,9571.jpg,2 Points,2 Points,492 points,PS2_L9.csv,,,,,,,,,,,,,,,,,,,,,,,,,,,,,0,8,8,8,0,3,3,3,,,,,,,,,,,,,,,,,,,2439.6117732910207,q,3.2389489590132143,2442.9191559159954,,,,,,247288,B,2024-12-08_09h08.32.528,EPIDM,2023.1.2,None,
5410.jpg,1450.jpg,5 Points,5 Points,497 points,PS2_L9.csv,,,,,,,,,,,,,,,,,,,,,,,,,,,,,0,8,8,8,0,4,4,4,,,,,,,,,,,,,,,,,,,2447.161178625014,p,1.2818088750063907,2448.511364875012,,,,,,247288,B,2024-12-08_09h08.32.528,EPIDM,2023.1.2,None,
F149.jpg,3030.jpg,0 Points,0 Points,497 points,PS2_L9.csv,,,,,,,,,,,,,,,,,,,,,,,,,,,,,0,8,8,8,0,5,5,5,,,,,,,,,,,,,,,,,,,2452.7783825410006,q,1.3195304999826476,2454.201179833006,,,,,,247288,B,2024-12-08_09h08.32.528,EPIDM,2023.1.2,None,
3266.jpg,7360.jpg,1 Point,1 Point,498 points,PS2_L9.csv,,,,,,,,,,,,,,,,,,,,,,,,,,,,,0,8,8,8,0,6,6,6,,,,,,,,,,,,,,,,,,,2458.4240039160068,p,0.6738278339907993,2459.2067106660106,,,,,,247288,B,2024-12-08_09h08.32.528,EPIDM,2023.1.2,None,
5660.jpg,5201.jpg,0 Points,0 Points,498 points,PS2_L9.csv,,,,,,,,,,,,,,,,,,,,,,,,,,,,,0,8,8,8,0,7,7,7,,,,,,,,,,,,,,,,,,,2463.4148948329967,p,0.9315074170008302,2464.4236700409965,,,,,,247288,B,2024-12-08_09h08.32.528,EPIDM,2023.1.2,None,
1945.jpg,2800.jpg,4 Points,4 Points,502 points,PS2_L9.csv,,,,,,,,,,,,,,,,,,,,,,,,,,,,,0,8,8,8,0,8,8,8,,,,,,,,,,,,,,,,,,,2468.6741301250004,q,1.9034900419937912,2470.649110750004,,,,,,247288,B,2024-12-08_09h08.32.528,EPIDM,2023.1.2,None,
3000.jpg,6200.jpg,5 Points,5 Points,507 points,PS2_L9.csv,,,,,,,,,,,,,,,,,,,,,,,,,,,,,0,8,8,8,0,9,9,9,,,,,,,,,,,,,,,,,,,2474.9005764579924,p,2.2691877500037663,2477.241235624999,,,,,,247288,B,2024-12-08_09h08.32.528,EPIDM,2023.1.2,None,
2215.jpg,2512.jpg,1 Point,1 Point,508 points,PS2_L9.csv,,,,,,,,,,,,,,,,,,,,,,,,,,,,,0,8,8,8,0,10,10,10,,,,,,,,,,,,,,,,,,,2481.4838055,p,1.1018403340131044,2482.6524759159947,,,,,,247288,B,2024-12-08_09h08.32.528,EPIDM,2023.1.2,None,
5460.jpg,5800.jpg,0 Points,0 Points,508 points,PS2_L9.csv,,,,,,,,,,,,,,,,,,,,,,,,,,,,,0,8,8,8,0,11,11,11,,,,,,,,,,,,,,,,,,,2486.897230833012,p,1.0721611249900889,2488.0496777080116,,,,,,247288,B,2024-12-08_09h08.32.528,EPIDM,2023.1.2,None,
3061.jpg,2717.jpg,4 Points,4 Points,512 points,PS2_L9.csv,,,,,,,,,,,,,,,,,,,,,,,,,,,,,0,8,8,8,0,12,12,12,,,,,,,,,,,,,,,,,,,2492.2838413749996,p,1.5343303339905106,2493.882313665992,,,,,,247288,B,2024-12-08_09h08.32.528,EPIDM,2023.1.2,None,
7380.jpg,1220.jpg,1 Point,1 Point,513 points,PS2_L9.csv,,,,,,,,,,,,,,,,,,,,,,,,,,,,,0,8,8,8,0,13,13,13,,,,,,,,,,,,,,,,,,,2498.1437162499933,p,1.306063666997943,2499.5120298750116,1,2.7445697079820093,,,,247288,B,2024-12-08_09h08.32.528,EPIDM,2023.1.2,None,
1740.jpg,7480.jpg,0 Points,0 Points,513 points,PS2_L9.csv,,,,,,,,,,,,,,,,,,,,,,,,,,,,,0,8,8,8,0,14,14,14,,,,,,,,,,,,,,,,,,,2506.573407332995,p,1.203110166999977,2507.839146665996,,,,,,247288,B,2024-12-08_09h08.32.528,EPIDM,2023.1.2,None,
7285.jpg,4233.jpg,5 Points,5 Points,518 points,PS2_L9.csv,,,,,,,,,,,,,,,,,,,,,,,,,,,,,0,8,8,8,0,15,15,15,,,,,,,,,,,,,,,,,,,2512.083300750004,q,3.029546167002991,2515.1849672080134,,,,,,247288,B,2024-12-08_09h08.32.528,EPIDM,2023.1.2,None,
6830.jpg,6212.jpg,4 Points,4 Points,522 points,PS2_L9.csv,,,,,,,,,,,,,,,,,,,,,,,,,,,,,0,8,8,8,0,16,16,16,,,,,,,,,,,,,,,,,,,2519.430166875012,p,2.465434334008023,2521.97077325001,,,,,,247288,B,2024-12-08_09h08.32.528,EPIDM,2023.1.2,None,
7830.jpg,2499.jpg,3 Points,3 Points,525 points,PS2_L9.csv,,,,,,,,,,,,,,,,,,,,,,,,,,,,,0,8,8,8,0,17,17,17,,,,,,,,,,,,,,,,,,,2526.2299280830193,p,1.778336749994196,2528.0812527910166,,,,,,247288,B,2024-12-08_09h08.32.528,EPIDM,2023.1.2,None,
9520.jpg,1931.jpg,3 Points,3 Points,528 points,PS2_L9.csv,,,,,,,,,,,,,,,,,,,,,,,,,,,,,0,8,8,8,0,18,18,18,,,,,,,,,,,,,,,,,,,2532.328864915995,p,1.0558850000088569,2533.454290458001,,,,,,247288,B,2024-12-08_09h08.32.528,EPIDM,2023.1.2,None,
9160.jpg,1200.jpg,4 Points,4 Points,532 points,PS2_L9.csv,,,,,,,,,,,,,,,,,,,,,,,,,,,,,0,8,8,8,0,19,19,19,,,,,,,,,,,,,,,,,,,2537.715890708001,p,1.0039234170108102,2538.7973075830087,,,,,,247288,B,2024-12-08_09h08.32.528,EPIDM,2023.1.2,None,
2020.jpg,1947.jpg,5 Points,5 Points,537 points,PS2_L9.csv,,,,,,,,,,,,,,,,,,,,,,,,,,,,,0,8,8,8,0,20,20,20,,,,,,,,,,,,,,,,,,,2543.0353878330206,q,1.9089874170022085,2545.014842208009,,,,,,247288,B,2024-12-08_09h08.32.528,EPIDM,2023.1.2,None,
4535.jpg,1811.jpg,1 Point,1 Point,538 points,PS2_L9.csv,,,,,,,,,,,,,,,,,,,,,,,,,,,,,0,8,8,8,0,21,21,21,,,,,,,,,,,,,,,,,,,2549.2551900410035,p,1.9925415409961715,2551.318541000015,,,,,,247288,B,2024-12-08_09h08.32.528,EPIDM,2023.1.2,None,
9910.jpg,6940.jpg,2 Points,2 Points,540 points,PS2_L9.csv,,,,,,,,,,,,,,,,,,,,,,,,,,,,,0,8,8,8,0,22,22,22,,,,,,,,,,,,,,,,,,,2555.5545052500092,q,1.5495255829882808,2557.1713087499957,,,,,,247288,B,2024-12-08_09h08.32.528,EPIDM,2023.1.2,None,
9480.jpg,9250.jpg,0 Points,0 Points,540 points,PS2_L9.csv,,,,,,,,,,,,,,,,,,,,,,,,,,,,,0,8,8,8,0,23,23,23,,,,,,,,,,,,,,,,,,,2561.41805883302,q,1.8719687919947319,2563.3528306249937,,,2573.841775083012,space,23.805144790996565,247288,B,2024-12-08_09h08.32.528,EPIDM,2023.1.2,None,
1660.jpg,2840.jpg,2 Points,2 Points,542 points,PS2_L10.csv,,,,,,,,,,,,,,,,,,,,,,,,,,,,,0,9,9,9,0,0,0,0,,,,,,,,,,,,,,,,,,,2600.9642562910158,p,1.3941160829854198,2602.427654583007,,,,,,247288,B,2024-12-08_09h08.32.528,EPIDM,2023.1.2,None,
2691.jpg,7640.jpg,0 Points,0 Points,542 points,PS2_L10.csv,,,,,,,,,,,,,,,,,,,,,,,,,,,,,0,9,9,9,0,1,1,1,,,,,,,,,,,,,,,,,,,2606.6803216660046,p,1.2536727499973495,2608.0067840830015,0,1.5732862500008196,,,,247288,B,2024-12-08_09h08.32.528,EPIDM,2023.1.2,None,
9180.jpg,9046.jpg,3 Points,3 Points,545 points,PS2_L10.csv,,,,,,,,,,,,,,,,,,,,,,,,,,,,,0,9,9,9,0,2,2,2,,,,,,,,,,,,,,,,,,,2613.8999366250064,p,1.881000416004099,2615.8522472500044,,,,,,247288,B,2024-12-08_09h08.32.528,EPIDM,2023.1.2,None,
8041.jpg,2271.jpg,2 Points,2 Points,547 points,PS2_L10.csv,,,,,,,,,,,,,,,,,,,,,,,,,,,,,0,9,9,9,0,3,3,3,,,,,,,,,,,,,,,,,,,2620.106959416007,q,0.7302269999927375,2620.909134791,,,,,,247288,B,2024-12-08_09h08.32.528,EPIDM,2023.1.2,None,
1661.jpg,1321.jpg,3 Points,3 Points,550 points,PS2_L10.csv,,,,,,,,,,,,,,,,,,,,,,,,,,,,,0,9,9,9,0,4,4,4,,,,,,,,,,,,,,,,,,,2625.1568439160183,q,0.7615374590095598,2625.9804436250124,,,,,,247288,B,2024-12-08_09h08.32.528,EPIDM,2023.1.2,None,
9430.jpg,3010.jpg,5 Points,5 Points,555 points,PS2_L10.csv,,,,,,,,,,,,,,,,,,,,,,,,,,,,,0,9,9,9,0,5,5,5,,,,,,,,,,,,,,,,,,,2630.226899208006,q,0.9466697500029113,2631.2350916250143,,,,,,247288,B,2024-12-08_09h08.32.528,EPIDM,2023.1.2,None,
2616.jpg,7238.jpg,4 Points,4 Points,559 points,PS2_L10.csv,,,,,,,,,,,,,,,,,,,,,,,,,,,,,0,9,9,9,0,6,6,6,,,,,,,,,,,,,,,,,,,2635.5032027080015,q,1.0457039159955457,2636.6176834159996,,,,,,247288,B,2024-12-08_09h08.32.528,EPIDM,2023.1.2,None,
9470.jpg,9400.jpg,3 Points,3 Points,562 points,PS2_L10.csv,,,,,,,,,,,,,,,,,,,,,,,,,,,,,0,9,9,9,0,7,7,7,,,,,,,,,,,,,,,,,,,2640.867350000015,q,1.650057666003704,2642.5830126660003,,,,,,247288,B,2024-12-08_09h08.32.528,EPIDM,2023.1.2,None,
8260.jpg,8280.jpg,3 Points,3 Points,565 points,PS2_L10.csv,,,,,,,,,,,,,,,,,,,,,,,,,,,,,0,9,9,9,0,8,8,8,,,,,,,,,,,,,,,,,,,2646.829341375007,p,1.2638105409860145,2648.157628749992,,,,,,247288,B,2024-12-08_09h08.32.528,EPIDM,2023.1.2,None,
9230.jpg,9181.jpg,0 Points,0 Points,565 points,PS2_L10.csv,,,,,,,,,,,,,,,,,,,,,,,,,,,,,0,9,9,9,0,9,9,9,,,,,,,,,,,,,,,,,,,2652.4126612910186,p,1.649199958977988,2654.130622249999,,,,,,247288,B,2024-12-08_09h08.32.528,EPIDM,2023.1.2,None,
6834.jpg,9120.jpg,5 Points,5 Points,570 points,PS2_L10.csv,,,,,,,,,,,,,,,,,,,,,,,,,,,,,0,9,9,9,0,10,10,10,,,,,,,,,,,,,,,,,,,2658.387671500008,q,1.625325458997395,2660.0781684580143,,,,,,247288,B,2024-12-08_09h08.32.528,EPIDM,2023.1.2,None,
2440.jpg,7351.jpg,4 Points,4 Points,574 points,PS2_L10.csv,,,,,,,,,,,,,,,,,,,,,,,,,,,,,0,9,9,9,0,11,11,11,,,,,,,,,,,,,,,,,,,2664.3458453330095,q,1.402130041999044,2665.8273530000006,,,,,,247288,B,2024-12-08_09h08.32.528,EPIDM,2023.1.2,None,
9280.jpg,9390.jpg,1 Point,1 Point,575 points,PS2_L10.csv,,,,,,,,,,,,,,,,,,,,,,,,,,,,,0,9,9,9,0,12,12,12,,,,,,,,,,,,,,,,,,,2670.071667415992,q,0.7003383330011275,2670.847067833005,,,,,,247288,B,2024-12-08_09h08.32.528,EPIDM,2023.1.2,None,
7186.jpg,9182.jpg,2 Points,2 Points,577 points,PS2_L10.csv,,,,,,,,,,,,,,,,,,,,,,,,,,,,,0,9,9,9,0,13,13,13,,,,,,,,,,,,,,,,,,,2675.088353875006,q,2.4997041250171605,2677.672345083003,2,1.9593360839935485,,,,247288,B,2024-12-08_09h08.32.528,EPIDM,2023.1.2,None,
7820.jpg,1121.jpg,0 Points,0 Points,577 points,PS2_L10.csv,,,,,,,,,,,,,,,,,,,,,,,,,,,,,0,9,9,9,0,14,14,14,,,,,,,,,,,,,,,,,,,2683.9447183750162,p,0.9468157909868751,2684.973550750001,,,,,,247288,B,2024-12-08_09h08.32.528,EPIDM,2023.1.2,None,
1110.jpg,9331.jpg,2 Points,2 Points,579 points,PS2_L10.csv,,,,,,,,,,,,,,,,,,,,,,,,,,,,,0,9,9,9,0,15,15,15,,,,,,,,,,,,,,,,,,,2689.220919125015,p,1.6709561249881517,2690.959033541003,,,,,,247288,B,2024-12-08_09h08.32.528,EPIDM,2023.1.2,None,
9001.jpg,9620.jpg,1 Point,1 Point,580 points,PS2_L10.csv,,,,,,,,,,,,,,,,,,,,,,,,,,,,,0,9,9,9,0,16,16,16,,,,,,,,,,,,,,,,,,,2695.207808750012,p,0.7881110419984907,2696.0762685830123,,,,,,247288,B,2024-12-08_09h08.32.528,EPIDM,2023.1.2,None,
5535.jpg,8210.jpg,3 Points,3 Points,583 points,PS2_L10.csv,,,,,,,,,,,,,,,,,,,,,,,,,,,,,0,9,9,9,0,17,17,17,,,,,,,,,,,,,,,,,,,2700.31361058302,p,0.8903165420051664,2701.285134500009,,,,,,247288,B,2024-12-08_09h08.32.528,EPIDM,2023.1.2,None,
7950.jpg,7187.jpg,1 Point,1 Point,584 points,PS2_L10.csv,,,,,,,,,,,,,,,,,,,,,,,,,,,,,0,9,9,9,0,18,18,18,,,,,,,,,,,,,,,,,,,2705.5346703329997,q,2.125084999977844,2707.7363921249926,,,,,,247288,B,2024-12-08_09h08.32.528,EPIDM,2023.1.2,None,
3250.jpg,A053.jpg,3 Points,3 Points,587 points,PS2_L10.csv,,,,,,,,,,,,,,,,,,,,,,,,,,,,,0,9,9,9,0,19,19,19,,,,,,,,,,,,,,,,,,,2712.0044283750176,p,1.6384152499958873,2713.7449195829977,,,,,,247288,B,2024-12-08_09h08.32.528,EPIDM,2023.1.2,None,
2205.jpg,3053.jpg,4 Points,4 Points,591 points,PS2_L10.csv,,,,,,,,,,,,,,,,,,,,,,,,,,,,,0,9,9,9,0,20,20,20,,,,,,,,,,,,,,,,,,,2717.966630166018,q,1.0207272919942625,2719.0859461660148,,,,,,247288,B,2024-12-08_09h08.32.528,EPIDM,2023.1.2,None,
5594.jpg,5750.jpg,5 Points,5 Points,596 points,PS2_L10.csv,,,,,,,,,,,,,,,,,,,,,,,,,,,,,0,9,9,9,0,21,21,21,,,,,,,,,,,,,,,,,,,2723.310711500002,q,0.8842080419999547,2724.269500458002,,,,,,247288,B,2024-12-08_09h08.32.528,EPIDM,2023.1.2,None,
6900.jpg,8531.jpg,4 Points,4 Points,600 points,PS2_L10.csv,,,,,,,,,,,,,,,,,,,,,,,,,,,,,0,9,9,9,0,22,22,22,,,,,,,,,,,,,,,,,,,2728.5106159160205,p,1.7729343750106636,2730.358250916004,,,,,,247288,B,2024-12-08_09h08.32.528,EPIDM,2023.1.2,None,
1019.jpg,2120.jpg,0 Points,0 Points,600 points,PS2_L10.csv,,,,,,,,,,,,,,,,,,,,,,,,,,,,,0,9,9,9,0,23,23,23,,,,,,,,,,,,,,,,,,,2734.607010250009,p,0.8678952910122462,2735.5454397080175,,,2746.0098033749964,space,10.624865291989408,247288,B,2024-12-08_09h08.32.528,EPIDM,2023.1.2,None,
