L_Scene,R_Scene,Points_L,Points_R,PtTotal,blockFile,Instructions_Loop.thisRepN,Instructions_Loop.thisTrialN,Instructions_Loop.thisN,Instructions_Loop.thisIndex,Redo_Instructions_Loop.thisRepN,Redo_Instructions_Loop.thisTrialN,Redo_Instructions_Loop.thisN,Redo_Instructions_Loop.thisIndex,Practice_Encoding_Loop.thisRepN,Practice_Encoding_Loop.thisTrialN,Practice_Encoding_Loop.thisN,Practice_Encoding_Loop.thisIndex,Practice_Response_Fail_Loop.thisRepN,Practice_Response_Fail_Loop.thisTrialN,Practice_Response_Fail_Loop.thisN,Practice_Response_Fail_Loop.thisIndex,Practice_FB_Loop.thisRepN,Practice_FB_Loop.thisTrialN,Practice_FB_Loop.thisN,Practice_FB_Loop.thisIndex,Practice_Attention_Loop.thisRepN,Practice_Attention_Loop.thisTrialN,Practice_Attention_Loop.thisN,Practice_Attention_Loop.thisIndex,Practice_EncBrk_Loop.thisRepN,Practice_EncBrk_Loop.thisTrialN,Practice_EncBrk_Loop.thisN,Practice_EncBrk_Loop.thisIndex,Encoding_Loop.thisRepN,Encoding_Loop.thisTrialN,Encoding_Loop.thisN,Encoding_Loop.thisIndex,EncStim_Loop.thisRepN,EncStim_Loop.thisTrialN,EncStim_Loop.thisN,EncStim_Loop.thisIndex,Response_Fail_Loop.thisRepN,Response_Fail_Loop.thisTrialN,Response_Fail_Loop.thisN,Response_Fail_Loop.thisIndex,FB_Loop.thisRepN,FB_Loop.thisTrialN,FB_Loop.thisN,FB_Loop.thisIndex,Attention_Loop.thisRepN,Attention_Loop.thisTrialN,Attention_Loop.thisN,Attention_Loop.thisIndex,EncBrk_Loop.thisRepN,EncBrk_Loop.thisTrialN,EncBrk_Loop.thisN,EncBrk_Loop.thisIndex,Transition_Enc.keys,Transition_Enc.rt,Encoding_Resp.started,Encoding_Resp.keys,Encoding_Resp.rt,R_Point_FB_Stim.started,Attn_resp.keys,Attn_resp.rt,Progress_Tracker.started,EncBrk_Resp.keys,EncBrk_Resp.rt,participant,Group,date,expName,psychopyVersion,frameRate,
,,,,,,,,,,,,,,,,,,,,,,,,,,,,,,,,,,,,,,,,,,,,,,,,,,,,,,,,,,space,4.478274333989248,,,,,,,,,,272734,A,2024-12-08_10h12.09.325,EPIDM,2023.1.2,None,
A060.jpg,F041.jpg,5 Points,5 Points,5 Points,,,,,,,,,,0,0,0,0,,,,,,,,,,,,,,,,,,,,,,,,,,,,,,,,,,,,,,,,,,,1063.7038293329824,q,1.4233422499964945,1065.2843364169821,,,,,,272734,A,2024-12-08_10h12.09.325,EPIDM,2023.1.2,None,
O161.jpg,1812.jpg,2 Points,2 Points,7 Points,,,,,,,,,,0,1,1,1,,,,,,,,,,,,,,,,,,,,,,,,,,,,,,,,,,,,,,,,,,,1069.453241332987,p,0.7873917920223903,1070.388056374999,,,,,,272734,A,2024-12-08_10h12.09.325,EPIDM,2023.1.2,None,
O013.jpg,A001.jpg,3 Points,3 Points,10 Points,,,,,,,,,,0,2,2,2,,,,,,,,,,,,,,,,,,,,,,,,,,,,,,,,,,,,,,,,,,,1074.5680334999925,p,1.0320416250033304,1075.7761652499903,,,,,,272734,A,2024-12-08_10h12.09.325,EPIDM,2023.1.2,None,
P036.jpg,F273.jpg,5 Points,5 Points,15 Points,,,,,,,,,,0,3,3,3,,,,,,,,,,,,,,,,,,,,,,,,,,,,,,,,,,,,,,,,,,,1079.919039417,q,1.04068816601648,1081.117756791995,,,,,,272734,A,2024-12-08_10h12.09.325,EPIDM,2023.1.2,None,
L130.jpg,2393.jpg,0 Points,0 Points,15 Points,,,,,,,,,,0,4,4,4,,,,,,,,,,,,,,,,,,,,,,,,,,,,,,,,,,,,,,,,,,,1085.2703874169965,q,0.5858407920168247,1086.0044122499821,0,4.780748916993616,,,,272734,A,2024-12-08_10h12.09.325,EPIDM,2023.1.2,None,
F279.jpg,P033.jpg,3 Points,3 Points,18 Points,,,,,,,,,,0,5,5,5,,,,,,,,,,,,,,,,,,,,,,,,,,,,,,,,,,,,,,,,,,,1095.083019541984,p,1.420200541993836,1096.6788937920064,,,,,,272734,A,2024-12-08_10h12.09.325,EPIDM,2023.1.2,None,
A104.jpg,2593.jpg,2 Points,2 Points,20 Points,,,,,,,,,,0,6,6,6,,,,,,,,,,,,,,,,,,,,,,,,,,,,,,,,,,,,,,,,,,,1100.8398212920001,q,0.5350109999999404,1101.5125384999847,,,,,,272734,A,2024-12-08_10h12.09.325,EPIDM,2023.1.2,None,
2598.jpg,2605.jpg,0 Points,0 Points,20 Points,,,,,,,,,,0,7,7,7,,,,,,,,,,,,,,,,,,,,,,,,,,,,,,,,,,,,,,,,,,,1105.693082791986,p,0.585879250022117,1106.3830892499827,,,,,,272734,A,2024-12-08_10h12.09.325,EPIDM,2023.1.2,None,
L005.jpg,O011.jpg,1 Points,1 Points,21 Points,,,,,,,,,,0,8,8,8,,,,,,,,,,,,,,,,,,,,,,,,,,,,,,,,,,,,,,,,,,,1110.6024462079804,q,0.9346206669870298,1111.6712564170011,,,,,,272734,A,2024-12-08_10h12.09.325,EPIDM,2023.1.2,None,
8186.jpg,F078.jpg,2 Points,2 Points,23 Points,,,,,,,,,,0,9,9,9,,,,,,,,,,,,,,,,,,,,,,,,,,,,,,,,,,,,,,,,,,,1115.8562159169815,q,0.910649833997013,1116.9022928329941,2,1.5811318749911152,1128.7418750420038,space,21.585276124998927,272734,A,2024-12-08_10h12.09.325,EPIDM,2023.1.2,None,
,,,,,,,,,,,,,,,,,,,,,,,,,,,,,,,,,,,,,,,,,,,,,,,,,,,,,,,,,,space,2.613681875023758,,,,,,,,,,272734,A,2024-12-08_10h12.09.325,EPIDM,2023.1.2,None,
1019.jpg,2120.jpg,0 Points,0 Points,0 Points,PS1_L1.csv,,,,,,,,,,,,,,,,,,,,,,,,,,,,,0,0,0,0,0,0,0,0,,,,,,,,,,,,,,,,,,,1168.6138773330022,q,0.42479937500320375,1169.1595334580052,,,,,,272734,A,2024-12-08_10h12.09.325,EPIDM,2023.1.2,None,
6900.jpg,8531.jpg,4 Points,4 Points,4 Points,PS1_L1.csv,,,,,,,,,,,,,,,,,,,,,,,,,,,,,0,0,0,0,0,1,1,1,,,,,,,,,,,,,,,,,,,1173.3614401670056,q,0.469162374996813,1173.89479029199,4,1.8528606250183657,,,,272734,A,2024-12-08_10h12.09.325,EPIDM,2023.1.2,None,
5594.jpg,5750.jpg,5 Points,5 Points,9 Points,PS1_L1.csv,,,,,,,,,,,,,,,,,,,,,,,,,,,,,0,0,0,0,0,2,2,2,,,,,,,,,,,,,,,,,,,1180.0580980829836,p,0.6283139589941129,1180.7619937080017,,,,,,272734,A,2024-12-08_10h12.09.325,EPIDM,2023.1.2,None,
2205.jpg,3053.jpg,4 Points,4 Points,13 Points,PS1_L1.csv,,,,,,,,,,,,,,,,,,,,,,,,,,,,,0,0,0,0,0,3,3,3,,,,,,,,,,,,,,,,,,,1185.00508420798,p,0.6487550829770043,1185.717650207982,,,,,,272734,A,2024-12-08_10h12.09.325,EPIDM,2023.1.2,None,
3250.jpg,A053.jpg,3 Points,3 Points,16 Points,PS1_L1.csv,,,,,,,,,,,,,,,,,,,,,,,,,,,,,0,0,0,0,0,4,4,4,,,,,,,,,,,,,,,,,,,1189.966414458002,q,0.39844216700294055,1190.4746533749858,,,,,,272734,A,2024-12-08_10h12.09.325,EPIDM,2023.1.2,None,
7950.jpg,7187.jpg,1 Point,1 Point,17 Points,PS1_L1.csv,,,,,,,,,,,,,,,,,,,,,,,,,,,,,0,0,0,0,0,5,5,5,,,,,,,,,,,,,,,,,,,1194.6805216670036,p,0.1974941670196131,1194.9535378750006,,,,,,272734,A,2024-12-08_10h12.09.325,EPIDM,2023.1.2,None,
5535.jpg,8210.jpg,3 Points,3 Points,20 Points,PS1_L1.csv,,,,,,,,,,,,,,,,,,,,,,,,,,,,,0,0,0,0,0,6,6,6,,,,,,,,,,,,,,,,,,,1199.2074982500053,q,0.2064337079937104,1199.4808734580001,,,,,,272734,A,2024-12-08_10h12.09.325,EPIDM,2023.1.2,None,
9001.jpg,9620.jpg,1 Point,1 Point,21 Points,PS1_L1.csv,,,,,,,,,,,,,,,,,,,,,,,,,,,,,0,0,0,0,0,7,7,7,,,,,,,,,,,,,,,,,,,1203.720923749992,q,0.27668050001375377,1204.0739171250025,,,,,,272734,A,2024-12-08_10h12.09.325,EPIDM,2023.1.2,None,
1110.jpg,9331.jpg,2 Points,2 Points,23 Points,PS1_L1.csv,,,,,,,,,,,,,,,,,,,,,,,,,,,,,0,0,0,0,0,8,8,8,,,,,,,,,,,,,,,,,,,1208.31927966699,p,0.13385600000037812,1208.5269086670014,,,,,,272734,A,2024-12-08_10h12.09.325,EPIDM,2023.1.2,None,
7820.jpg,1121.jpg,0 Points,0 Points,23 Points,PS1_L1.csv,,,,,,,,,,,,,,,,,,,,,,,,,,,,,0,0,0,0,0,9,9,9,,,,,,,,,,,,,,,,,,,1212.7749872919812,q,0.190411541989306,1213.0305847499985,,,,,,272734,A,2024-12-08_10h12.09.325,EPIDM,2023.1.2,None,
7186.jpg,9182.jpg,2 Points,2 Points,25 Points,PS1_L1.csv,,,,,,,,,,,,,,,,,,,,,,,,,,,,,0,0,0,0,0,10,10,10,,,,,,,,,,,,,,,,,,,1217.2870032920036,p,0.10190825001336634,1217.4732169999916,,,,,,272734,A,2024-12-08_10h12.09.325,EPIDM,2023.1.2,None,
9280.jpg,9390.jpg,1 Point,1 Point,26 Points,PS1_L1.csv,,,,,,,,,,,,,,,,,,,,,,,,,,,,,0,0,0,0,0,11,11,11,,,,,,,,,,,,,,,,,,,1221.7207415000012,q,0.2278130410122685,1222.0281211249821,,,,,,272734,A,2024-12-08_10h12.09.325,EPIDM,2023.1.2,None,
2440.jpg,7351.jpg,4 Points,4 Points,30 Points,PS1_L1.csv,,,,,,,,,,,,,,,,,,,,,,,,,,,,,0,0,0,0,0,12,12,12,,,,,,,,,,,,,,,,,,,1226.2771634169912,p,0.08006733300862834,1226.4378482920001,,,,,,272734,A,2024-12-08_10h12.09.325,EPIDM,2023.1.2,None,
6834.jpg,9120.jpg,5 Points,5 Points,35 Points,PS1_L1.csv,,,,,,,,,,,,,,,,,,,,,,,,,,,,,0,0,0,0,0,13,13,13,,,,,,,,,,,,,,,,,,,1230.6768407500058,q,0.09563308401266113,1230.8355549169937,5,1.288457082991954,,,,272734,A,2024-12-08_10h12.09.325,EPIDM,2023.1.2,None,
9230.jpg,9181.jpg,0 Points,0 Points,35 Points,PS1_L1.csv,,,,,,,,,,,,,,,,,,,,,,,,,,,,,0,0,0,0,0,14,14,14,,,,,,,,,,,,,,,,,,,1236.4273405830027,p,0.24937150001642294,1236.7415985419939,,,,,,272734,A,2024-12-08_10h12.09.325,EPIDM,2023.1.2,None,
8260.jpg,8280.jpg,3 Points,3 Points,38 Points,PS1_L1.csv,,,,,,,,,,,,,,,,,,,,,,,,,,,,,0,0,0,0,0,15,15,15,,,,,,,,,,,,,,,,,,,1241.0008155420073,q,0.1078269999998156,1241.1735621249827,,,,,,272734,A,2024-12-08_10h12.09.325,EPIDM,2023.1.2,None,
9470.jpg,9400.jpg,3 Points,3 Points,41 Points,PS1_L1.csv,,,,,,,,,,,,,,,,,,,,,,,,,,,,,0,0,0,0,0,16,16,16,,,,,,,,,,,,,,,,,,,1245.4196870419837,p,0.10501883400138468,1245.5901042500045,,,,,,272734,A,2024-12-08_10h12.09.325,EPIDM,2023.1.2,None,
2616.jpg,7238.jpg,4 Points,4 Points,45 Points,PS1_L1.csv,,,,,,,,,,,,,,,,,,,,,,,,,,,,,0,0,0,0,0,17,17,17,,,,,,,,,,,,,,,,,,,1249.8476164999884,p,0.10887058297521435,1250.0213453329925,,,,,,272734,A,2024-12-08_10h12.09.325,EPIDM,2023.1.2,None,
9430.jpg,3010.jpg,5 Points,5 Points,50 Points,PS1_L1.csv,,,,,,,,,,,,,,,,,,,,,,,,,,,,,0,0,0,0,0,18,18,18,,,,,,,,,,,,,,,,,,,1254.2860682919854,q,0.006370749993948266,1254.3652284579875,,,,,,272734,A,2024-12-08_10h12.09.325,EPIDM,2023.1.2,None,
1661.jpg,1321.jpg,3 Points,3 Points,53 Points,PS1_L1.csv,,,,,,,,,,,,,,,,,,,,,,,,,,,,,0,0,0,0,0,19,19,19,,,,,,,,,,,,,,,,,,,1258.6192994579906,p,0.024777040991466492,1258.7011484579998,,,,,,272734,A,2024-12-08_10h12.09.325,EPIDM,2023.1.2,None,
8041.jpg,2271.jpg,2 Points,2 Points,55 Points,PS1_L1.csv,,,,,,,,,,,,,,,,,,,,,,,,,,,,,0,0,0,0,0,20,20,20,,,,,,,,,,,,,,,,,,,1262.9566428749822,q,0.21520683402195573,1263.237679666985,,,,,,272734,A,2024-12-08_10h12.09.325,EPIDM,2023.1.2,None,
9180.jpg,9046.jpg,3 Points,3 Points,58 Points,PS1_L1.csv,,,,,,,,,,,,,,,,,,,,,,,,,,,,,0,0,0,0,0,21,21,21,,,,,,,,,,,,,,,,,,,1267.4890234170016,p,0.1309487080143299,1267.683094582986,,,,,,272734,A,2024-12-08_10h12.09.325,EPIDM,2023.1.2,None,
2691.jpg,7640.jpg,0 Points,0 Points,58 Points,PS1_L1.csv,,,,,,,,,,,,,,,,,,,,,,,,,,,,,0,0,0,0,0,22,22,22,,,,,,,,,,,,,,,,,,,1271.9370261669974,q,0.09867745800875127,1272.10917362498,,,,,,272734,A,2024-12-08_10h12.09.325,EPIDM,2023.1.2,None,
1660.jpg,2840.jpg,2 Points,2 Points,60 Points,PS1_L1.csv,,,,,,,,,,,,,,,,,,,,,,,,,,,,,0,0,0,0,0,23,23,23,,,,,,,,,,,,,,,,,,,1276.361982041999,p,0.2660568749997765,1276.6998698329844,,,1287.2031940830057,space,13.113829833979253,272734,A,2024-12-08_10h12.09.325,EPIDM,2023.1.2,None,
9480.jpg,9250.jpg,0 Points,0 Points,60 Points,PS1_L2.csv,,,,,,,,,,,,,,,,,,,,,,,,,,,,,0,1,1,1,0,0,0,0,,,,,,,,,,,,,,,,,,,1303.6384672079876,p,0.16490912501467392,1303.8709399579966,,,,,,272734,A,2024-12-08_10h12.09.325,EPIDM,2023.1.2,None,
9910.jpg,6940.jpg,2 Points,2 Points,62 Points,PS1_L2.csv,,,,,,,,,,,,,,,,,,,,,,,,,,,,,0,1,1,1,0,1,1,1,,,,,,,,,,,,,,,,,,,1308.1187271669914,q,0.10894545802148059,1308.2834046669886,2,2.4719297919946257,,,,272734,A,2024-12-08_10h12.09.325,EPIDM,2023.1.2,None,
4535.jpg,1811.jpg,1 Point,1 Point,63 Points,PS1_L2.csv,,,,,,,,,,,,,,,,,,,,,,,,,,,,,0,1,1,1,0,2,2,2,,,,,,,,,,,,,,,,,,,1315.0714554580045,p,0.39507624998805113,1315.540724166989,,,,,,272734,A,2024-12-08_10h12.09.325,EPIDM,2023.1.2,None,
2020.jpg,1947.jpg,5 Points,5 Points,68 Points,PS1_L2.csv,,,,,,,,,,,,,,,,,,,,,,,,,,,,,0,1,1,1,0,3,3,3,,,,,,,,,,,,,,,,,,,1319.778286457993,q,0.3042553340201266,1320.1532104579965,,,,,,272734,A,2024-12-08_10h12.09.325,EPIDM,2023.1.2,None,
9160.jpg,1200.jpg,4 Points,4 Points,72 Points,PS1_L2.csv,,,,,,,,,,,,,,,,,,,,,,,,,,,,,0,1,1,1,0,4,4,4,,,,,,,,,,,,,,,,,,,1324.3939524999878,p,0.6005074999993667,1325.0721589580062,,,,,,272734,A,2024-12-08_10h12.09.325,EPIDM,2023.1.2,None,
9520.jpg,1931.jpg,3 Points,3 Points,75 Points,PS1_L2.csv,,,,,,,,,,,,,,,,,,,,,,,,,,,,,0,1,1,1,0,5,5,5,,,,,,,,,,,,,,,,,,,1329.3154215829854,q,0.3270327500067651,1329.7106072499882,,,,,,272734,A,2024-12-08_10h12.09.325,EPIDM,2023.1.2,None,
7830.jpg,2499.jpg,3 Points,3 Points,78 Points,PS1_L2.csv,,,,,,,,,,,,,,,,,,,,,,,,,,,,,0,1,1,1,0,6,6,6,,,,,,,,,,,,,,,,,,,1333.9631832499872,p,0.15890058301738463,1334.185158874985,,,,,,272734,A,2024-12-08_10h12.09.325,EPIDM,2023.1.2,None,
6830.jpg,6212.jpg,4 Points,4 Points,82 Points,PS1_L2.csv,,,,,,,,,,,,,,,,,,,,,,,,,,,,,0,1,1,1,0,7,7,7,,,,,,,,,,,,,,,,,,,1338.4507048749947,p,0.3113017500145361,1338.8397733329912,,,,,,272734,A,2024-12-08_10h12.09.325,EPIDM,2023.1.2,None,
7285.jpg,4233.jpg,5 Points,5 Points,87 Points,PS1_L2.csv,,,,,,,,,,,,,,,,,,,,,,,,,,,,,0,1,1,1,0,8,8,8,,,,,,,,,,,,,,,,,,,1343.0876641669893,p,0.9142703330144286,1344.0785919579794,,,,,,272734,A,2024-12-08_10h12.09.325,EPIDM,2023.1.2,None,
1740.jpg,7480.jpg,0 Points,0 Points,87 Points,PS1_L2.csv,,,,,,,,,,,,,,,,,,,,,,,,,,,,,0,1,1,1,0,9,9,9,,,,,,,,,,,,,,,,,,,1348.326627167,q,0.5228201250138227,1348.9192303750024,,,,,,272734,A,2024-12-08_10h12.09.325,EPIDM,2023.1.2,None,
7380.jpg,1220.jpg,1 Point,1 Point,88 Points,PS1_L2.csv,,,,,,,,,,,,,,,,,,,,,,,,,,,,,0,1,1,1,0,10,10,10,,,,,,,,,,,,,,,,,,,1353.1602111670072,p,0.37782879098085687,1353.5930273330014,,,,,,272734,A,2024-12-08_10h12.09.325,EPIDM,2023.1.2,None,
3061.jpg,2717.jpg,4 Points,4 Points,92 Points,PS1_L2.csv,,,,,,,,,,,,,,,,,,,,,,,,,,,,,0,1,1,1,0,11,11,11,,,,,,,,,,,,,,,,,,,1357.857177458005,q,0.41655812502722256,1358.3373036249832,,,,,,272734,A,2024-12-08_10h12.09.325,EPIDM,2023.1.2,None,
5460.jpg,5800.jpg,0 Points,0 Points,92 Points,PS1_L2.csv,,,,,,,,,,,,,,,,,,,,,,,,,,,,,0,1,1,1,0,12,12,12,,,,,,,,,,,,,,,,,,,1362.5906767080014,q,0.6114303329959512,1363.2760635830055,,,,,,272734,A,2024-12-08_10h12.09.325,EPIDM,2023.1.2,None,
2215.jpg,2512.jpg,1 Point,1 Point,93 Points,PS1_L2.csv,,,,,,,,,,,,,,,,,,,,,,,,,,,,,0,1,1,1,0,13,13,13,,,,,,,,,,,,,,,,,,,1367.516049208003,p,0.24538591702003032,1367.832525582984,1,1.1440541660122108,,,,272734,A,2024-12-08_10h12.09.325,EPIDM,2023.1.2,None,
3000.jpg,6200.jpg,5 Points,5 Points,98 Points,PS1_L2.csv,,,,,,,,,,,,,,,,,,,,,,,,,,,,,0,1,1,1,0,14,14,14,,,,,,,,,,,,,,,,,,,1373.2819316249806,p,0.6160084169823676,1373.9689964999852,,,,,,272734,A,2024-12-08_10h12.09.325,EPIDM,2023.1.2,None,
1945.jpg,2800.jpg,4 Points,4 Points,102 Points,PS1_L2.csv,,,,,,,,,,,,,,,,,,,,,,,,,,,,,0,1,1,1,0,15,15,15,,,,,,,,,,,,,,,,,,,1378.2091722920013,q,2.3041097089881077,1380.593339916988,,,,,,272734,A,2024-12-08_10h12.09.325,EPIDM,2023.1.2,None,
5660.jpg,5201.jpg,0 Points,0 Points,102 Points,PS1_L2.csv,,,,,,,,,,,,,,,,,,,,,,,,,,,,,0,1,1,1,0,16,16,16,,,,,,,,,,,,,,,,,,,1384.8324399169942,p,0.32889850001083687,1385.233037124999,,,,,,272734,A,2024-12-08_10h12.09.325,EPIDM,2023.1.2,None,
3266.jpg,7360.jpg,1 Point,1 Point,103 Points,PS1_L2.csv,,,,,,,,,,,,,,,,,,,,,,,,,,,,,0,1,1,1,0,17,17,17,,,,,,,,,,,,,,,,,,,1389.475634707982,q,0.2851354170124978,1389.8310625419836,,,,,,272734,A,2024-12-08_10h12.09.325,EPIDM,2023.1.2,None,
F149.jpg,3030.jpg,0 Points,0 Points,103 Points,PS1_L2.csv,,,,,,,,,,,,,,,,,,,,,,,,,,,,,0,1,1,1,0,18,18,18,,,,,,,,,,,,,,,,,,,1394.0731705419894,p,0.37548483299906366,1394.5523629999952,,,,,,272734,A,2024-12-08_10h12.09.325,EPIDM,2023.1.2,None,
5410.jpg,1450.jpg,5 Points,5 Points,108 Points,PS1_L2.csv,,,,,,,,,,,,,,,,,,,,,,,,,,,,,0,1,1,1,0,19,19,19,,,,,,,,,,,,,,,,,,,1398.7592989999976,q,0.2170107919955626,1399.0357265000057,,,,,,272734,A,2024-12-08_10h12.09.325,EPIDM,2023.1.2,None,
9101.jpg,9571.jpg,2 Points,2 Points,110 Points,PS1_L2.csv,,,,,,,,,,,,,,,,,,,,,,,,,,,,,0,1,1,1,0,20,20,20,,,,,,,,,,,,,,,,,,,1403.2898897079867,p,0.23126183400745504,1403.5838789999834,,,,,,272734,A,2024-12-08_10h12.09.325,EPIDM,2023.1.2,None,
9110.jpg,3051.jpg,1 Point,1 Point,111 Points,PS1_L2.csv,,,,,,,,,,,,,,,,,,,,,,,,,,,,,0,1,1,1,0,21,21,21,,,,,,,,,,,,,,,,,,,1407.8297567499976,q,0.30069691699463874,1408.203403749998,,,,,,272734,A,2024-12-08_10h12.09.325,EPIDM,2023.1.2,None,
2100.jpg,7205.jpg,5 Points,5 Points,116 Points,PS1_L2.csv,,,,,,,,,,,,,,,,,,,,,,,,,,,,,0,1,1,1,0,22,22,22,,,,,,,,,,,,,,,,,,,1412.4525905829796,p,0.14849787499406375,1412.6726050830039,,,,,,272734,A,2024-12-08_10h12.09.325,EPIDM,2023.1.2,None,
3160.jpg,6210.jpg,1 Point,1 Point,117 Points,PS1_L2.csv,,,,,,,,,,,,,,,,,,,,,,,,,,,,,0,1,1,1,0,23,23,23,,,,,,,,,,,,,,,,,,,1416.9150187500054,q,0.27746216699597426,1417.260623042006,,,1427.708596374985,space,9.700477291014977,272734,A,2024-12-08_10h12.09.325,EPIDM,2023.1.2,None,
7283.jpg,1720.jpg,4 Points,4 Points,121 Points,PS1_L3.csv,,,,,,,,,,,,,,,,,,,,,,,,,,,,,0,2,2,2,0,0,0,0,,,,,,,,,,,,,,,,,,,1440.7388613329967,q,0.25272587497602217,1441.075139166991,,,,,,272734,A,2024-12-08_10h12.09.325,EPIDM,2023.1.2,None,
6571.jpg,P237.jpg,2 Points,2 Points,123 Points,PS1_L3.csv,,,,,,,,,,,,,,,,,,,,,,,,,,,,,0,2,2,2,0,1,1,1,,,,,,,,,,,,,,,,,,,1445.3173379169893,p,0.5135984589869622,1445.95014666699,2,1.2352788330172189,,,,272734,A,2024-12-08_10h12.09.325,EPIDM,2023.1.2,None,
6260.jpg,3062.jpg,3 Points,3 Points,126 Points,PS1_L3.csv,,,,,,,,,,,,,,,,,,,,,,,,,,,,,0,2,2,2,0,2,2,2,,,,,,,,,,,,,,,,,,,1451.5048842499964,q,0.2942230000044219,1451.9140914579912,,,,,,272734,A,2024-12-08_10h12.09.325,EPIDM,2023.1.2,None,
6150.jpg,2206.jpg,0 Points,0 Points,126 Points,PS1_L3.csv,,,,,,,,,,,,,,,,,,,,,,,,,,,,,0,2,2,2,0,3,3,3,,,,,,,,,,,,,,,,,,,1456.1148077079852,q,0.4762265000026673,1456.6651394579967,,,,,,272734,A,2024-12-08_10h12.09.325,EPIDM,2023.1.2,None,
9300.jpg,1050.jpg,4 Points,4 Points,130 Points,PS1_L3.csv,,,,,,,,,,,,,,,,,,,,,,,,,,,,,0,2,2,2,0,4,4,4,,,,,,,,,,,,,,,,,,,1460.9117432079802,p,0.29549783302354626,1461.2789414580038,,,,,,272734,A,2024-12-08_10h12.09.325,EPIDM,2023.1.2,None,
F365.jpg,3180.jpg,5 Points,5 Points,135 Points,PS1_L3.csv,,,,,,,,,,,,,,,,,,,,,,,,,,,,,0,2,2,2,0,5,5,5,,,,,,,,,,,,,,,,,,,1465.5313724169973,q,0.15623966601560824,1465.7852728749858,,,,,,272734,A,2024-12-08_10h12.09.325,EPIDM,2023.1.2,None,
2320.jpg,2791.jpg,4 Points,4 Points,139 Points,PS1_L3.csv,,,,,,,,,,,,,,,,,,,,,,,,,,,,,0,2,2,2,0,6,6,6,,,,,,,,,,,,,,,,,,,1470.0074877080042,p,0.04800912502105348,1470.1494171670056,,,,,,272734,A,2024-12-08_10h12.09.325,EPIDM,2023.1.2,None,
8311.jpg,4609.jpg,2 Points,2 Points,141 Points,PS1_L3.csv,,,,,,,,,,,,,,,,,,,,,,,,,,,,,0,2,2,2,0,7,7,7,,,,,,,,,,,,,,,,,,,1474.3751538750075,q,0.12016020799637772,1474.560071666987,,,,,,272734,A,2024-12-08_10h12.09.325,EPIDM,2023.1.2,None,
9042.jpg,2753.jpg,0 Points,0 Points,141 Points,PS1_L3.csv,,,,,,,,,,,,,,,,,,,,,,,,,,,,,0,2,2,2,0,8,8,8,,,,,,,,,,,,,,,,,,,1478.810711750004,p,0.24466458399547264,1479.1149338329851,,,,,,272734,A,2024-12-08_10h12.09.325,EPIDM,2023.1.2,None,
5471.jpg,7352.jpg,2 Points,2 Points,143 Points,PS1_L3.csv,,,,,,,,,,,,,,,,,,,,,,,,,,,,,0,2,2,2,0,9,9,9,,,,,,,,,,,,,,,,,,,1483.371154958004,q,0.16330933300196193,1483.600479332992,,,,,,272734,A,2024-12-08_10h12.09.325,EPIDM,2023.1.2,None,
P222.jpg,9401.jpg,2 Points,2 Points,145 Points,PS1_L3.csv,,,,,,,,,,,,,,,,,,,,,,,,,,,,,0,2,2,2,0,10,10,10,,,,,,,,,,,,,,,,,,,1487.8537606669997,p,0.2329926670063287,1488.1820539170003,,,,,,272734,A,2024-12-08_10h12.09.325,EPIDM,2023.1.2,None,
1610.jpg,F203.jpg,0 Points,0 Points,145 Points,PS1_L3.csv,,,,,,,,,,,,,,,,,,,,,,,,,,,,,0,2,2,2,0,11,11,11,,,,,,,,,,,,,,,,,,,1492.4045363749901,q,0.1627802909933962,1492.6915295000072,,,,,,272734,A,2024-12-08_10h12.09.325,EPIDM,2023.1.2,None,
9405.jpg,6250.2.jpg,3 Points,3 Points,148 Points,PS1_L3.csv,,,,,,,,,,,,,,,,,,,,,,,,,,,,,0,2,2,2,0,12,12,12,,,,,,,,,,,,,,,,,,,1496.8875244999945,p,0.05746270902454853,1497.0262656669947,,,,,,272734,A,2024-12-08_10h12.09.325,EPIDM,2023.1.2,None,
1090.jpg,P217.jpg,5 Points,5 Points,153 Points,PS1_L3.csv,,,,,,,,,,,,,,,,,,,,,,,,,,,,,0,2,2,2,0,13,13,13,,,,,,,,,,,,,,,,,,,1501.277251374995,q,0.12116016700747423,1501.5005783329834,5,2.1362113329814747,,,,272734,A,2024-12-08_10h12.09.325,EPIDM,2023.1.2,None,
P233.jpg,3060.jpg,1 Point,1 Point,154 Points,PS1_L3.csv,,,,,,,,,,,,,,,,,,,,,,,,,,,,,0,2,2,2,0,14,14,14,,,,,,,,,,,,,,,,,,,1507.959927082993,p,0.38277383300010115,1508.4539108749887,,,,,,272734,A,2024-12-08_10h12.09.325,EPIDM,2023.1.2,None,
8040.jpg,7185.jpg,1 Point,1 Point,155 Points,PS1_L3.csv,,,,,,,,,,,,,,,,,,,,,,,,,,,,,0,2,2,2,0,15,15,15,,,,,,,,,,,,,,,,,,,1512.6500348749978,q,0.14852641700417735,1512.875148207997,,,,,,272734,A,2024-12-08_10h12.09.325,EPIDM,2023.1.2,None,
6550.jpg,9582.jpg,5 Points,5 Points,160 Points,PS1_L3.csv,,,,,,,,,,,,,,,,,,,,,,,,,,,,,0,2,2,2,0,16,16,16,,,,,,,,,,,,,,,,,,,1517.1169824579847,p,0.09786354200332426,1517.2813968749833,,,,,,272734,A,2024-12-08_10h12.09.325,EPIDM,2023.1.2,None,
P077.jpg,A041.jpg,1 Point,1 Point,161 Points,PS1_L3.csv,,,,,,,,,,,,,,,,,,,,,,,,,,,,,0,2,2,2,0,17,17,17,,,,,,,,,,,,,,,,,,,1521.5286070829898,q,0.32511166599579155,1521.9910911250045,,,,,,272734,A,2024-12-08_10h12.09.325,EPIDM,2023.1.2,None,
4770.jpg,4275.jpg,3 Points,3 Points,164 Points,PS1_L3.csv,,,,,,,,,,,,,,,,,,,,,,,,,,,,,0,2,2,2,0,18,18,18,,,,,,,,,,,,,,,,,,,1526.1638423749828,p,0.37036387500120327,1526.6491247919912,,,,,,272734,A,2024-12-08_10h12.09.325,EPIDM,2023.1.2,None,
9594.jpg,1080.jpg,4 Points,4 Points,168 Points,PS1_L3.csv,,,,,,,,,,,,,,,,,,,,,,,,,,,,,0,2,2,2,0,19,19,19,,,,,,,,,,,,,,,,,,,1530.8460338329896,q,0.22337266700924374,1531.1524789579853,,,,,,272734,A,2024-12-08_10h12.09.325,EPIDM,2023.1.2,None,
2606.jpg,2480.jpg,1 Point,1 Point,169 Points,PS1_L3.csv,,,,,,,,,,,,,,,,,,,,,,,,,,,,,0,2,2,2,0,20,20,20,,,,,,,,,,,,,,,,,,,1535.3863131669932,p,0.26793641701806337,1535.7297470420017,,,,,,272734,A,2024-12-08_10h12.09.325,EPIDM,2023.1.2,None,
1052.jpg,1201.jpg,3 Points,3 Points,172 Points,PS1_L3.csv,,,,,,,,,,,,,,,,,,,,,,,,,,,,,0,2,2,2,0,21,21,21,,,,,,,,,,,,,,,,,,,1539.980451874988,q,0.280726291006431,1540.3310044579848,,,,,,272734,A,2024-12-08_10h12.09.325,EPIDM,2023.1.2,None,
F369.jpg,3100.jpg,2 Points,2 Points,174 Points,PS1_L3.csv,,,,,,,,,,,,,,,,,,,,,,,,,,,,,0,2,2,2,0,22,22,22,,,,,,,,,,,,,,,,,,,1544.5876512920076,p,0.2251995409897063,1544.9150948330062,,,,,,272734,A,2024-12-08_10h12.09.325,EPIDM,2023.1.2,None,
2620.jpg,2594.jpg,0 Points,0 Points,174 Points,PS1_L3.csv,,,,,,,,,,,,,,,,,,,,,,,,,,,,,0,2,2,2,0,23,23,23,,,,,,,,,,,,,,,,,,,1549.1383389169932,p,0.5389809160260484,1549.7688879579946,,,1560.2328903749876,space,4.548357291001594,272734,A,2024-12-08_10h12.09.325,EPIDM,2023.1.2,None,
P019.jpg,F158.jpg,3 Points,3 Points,177 Points,PS1_L4.csv,,,,,,,,,,,,,,,,,,,,,,,,,,,,,0,3,3,3,0,0,0,0,,,,,,,,,,,,,,,,,,,1568.0951498329814,p,0.42173400000319816,1568.6593409999914,,,,,,272734,A,2024-12-08_10h12.09.325,EPIDM,2023.1.2,None,
7620.jpg,5395.jpg,1 Point,1 Point,178 Points,PS1_L4.csv,,,,,,,,,,,,,,,,,,,,,,,,,,,,,0,3,3,3,0,1,1,1,,,,,,,,,,,,,,,,,,,1572.8429908329854,q,0.19421679200604558,1573.14707549999,1,1.8321012080123182,,,,272734,A,2024-12-08_10h12.09.325,EPIDM,2023.1.2,None,
5970.jpg,3300.jpg,0 Points,0 Points,178 Points,PS1_L4.csv,,,,,,,,,,,,,,,,,,,,,,,,,,,,,0,3,3,3,0,2,2,2,,,,,,,,,,,,,,,,,,,1579.2549970420077,q,0.6132407500117552,1579.928477999987,,,,,,272734,A,2024-12-08_10h12.09.325,EPIDM,2023.1.2,None,
5120.jpg,5520.jpg,2 Points,2 Points,180 Points,PS1_L4.csv,,,,,,,,,,,,,,,,,,,,,,,,,,,,,0,3,3,3,0,3,3,3,,,,,,,,,,,,,,,,,,,1584.1852641250007,p,0.18731933401431888,1584.4435896670038,,,,,,272734,A,2024-12-08_10h12.09.325,EPIDM,2023.1.2,None,
9452.jpg,7184.jpg,4 Points,4 Points,184 Points,PS1_L4.csv,,,,,,,,,,,,,,,,,,,,,,,,,,,,,0,3,3,3,0,4,4,4,,,,,,,,,,,,,,,,,,,1588.6949806670018,q,0.3802722910186276,1589.1424082919839,,,,,,272734,A,2024-12-08_10h12.09.325,EPIDM,2023.1.2,None,
6570.1.jpg,9432.jpg,5 Points,5 Points,189 Points,PS1_L4.csv,,,,,,,,,,,,,,,,,,,,,,,,,,,,,0,3,3,3,0,5,5,5,,,,,,,,,,,,,,,,,,,1593.3880011249857,p,0.4165450420114212,1593.8757475419843,,,,,,272734,A,2024-12-08_10h12.09.325,EPIDM,2023.1.2,None,
2389.jpg,7320.jpg,0 Points,0 Points,189 Points,PS1_L4.csv,,,,,,,,,,,,,,,,,,,,,,,,,,,,,0,3,3,3,0,6,6,6,,,,,,,,,,,,,,,,,,,1598.1282895419863,p,0.6907325840147678,1598.8989406249893,,,,,,272734,A,2024-12-08_10h12.09.325,EPIDM,2023.1.2,None,
9330.jpg,3015.jpg,5 Points,5 Points,194 Points,PS1_L4.csv,,,,,,,,,,,,,,,,,,,,,,,,,,,,,0,3,3,3,0,7,7,7,,,,,,,,,,,,,,,,,,,1603.1418502919842,q,0.485834542021621,1603.6928532919846,,,,,,272734,A,2024-12-08_10h12.09.325,EPIDM,2023.1.2,None,
9560.jpg,3071.jpg,1 Point,1 Point,195 Points,PS1_L4.csv,,,,,,,,,,,,,,,,,,,,,,,,,,,,,0,3,3,3,0,8,8,8,,,,,,,,,,,,,,,,,,,1607.937000542006,p,0.20224500002223067,1608.2069860000047,,,,,,272734,A,2024-12-08_10h12.09.325,EPIDM,2023.1.2,None,
5994.jpg,5390.jpg,0 Points,0 Points,195 Points,PS1_L4.csv,,,,,,,,,,,,,,,,,,,,,,,,,,,,,0,3,3,3,0,9,9,9,,,,,,,,,,,,,,,,,,,1612.4609286669875,q,0.29503837501397356,1612.8288429169916,,,,,,272734,A,2024-12-08_10h12.09.325,EPIDM,2023.1.2,None,
2692.jpg,8231.jpg,4 Points,4 Points,199 Points,PS1_L4.csv,,,,,,,,,,,,,,,,,,,,,,,,,,,,,0,3,3,3,0,10,10,10,,,,,,,,,,,,,,,,,,,1617.081383666984,p,0.2981678749783896,1617.43981874999,,,,,,272734,A,2024-12-08_10h12.09.325,EPIDM,2023.1.2,None,
F174.jpg,9404.jpg,5 Points,5 Points,204 Points,PS1_L4.csv,,,,,,,,,,,,,,,,,,,,,,,,,,,,,0,3,3,3,0,11,11,11,,,,,,,,,,,,,,,,,,,1621.6985927500064,q,0.2724105000088457,1622.0795554579818,,,,,,272734,A,2024-12-08_10h12.09.325,EPIDM,2023.1.2,None,
8010.jpg,2630.jpg,0 Points,0 Points,204 Points,PS1_L4.csv,,,,,,,,,,,,,,,,,,,,,,,,,,,,,0,3,3,3,0,12,12,12,,,,,,,,,,,,,,,,,,,1626.30338329199,p,0.2912025000259746,1626.7079753330036,,,,,,272734,A,2024-12-08_10h12.09.325,EPIDM,2023.1.2,None,
7175.jpg,7490.jpg,2 Points,2 Points,206 Points,PS1_L4.csv,,,,,,,,,,,,,,,,,,,,,,,,,,,,,0,3,3,3,0,13,13,13,,,,,,,,,,,,,,,,,,,1630.9112964579836,q,0.30756829198799096,1631.3050691249955,2,1.385095083998749,,,,272734,A,2024-12-08_10h12.09.325,EPIDM,2023.1.2,None,
6561.jpg,1525.jpg,2 Points,2 Points,208 Points,PS1_L4.csv,,,,,,,,,,,,,,,,,,,,,,,,,,,,,0,3,3,3,0,14,14,14,,,,,,,,,,,,,,,,,,,1637.0173711249954,q,0.3220410420035478,1637.4134682079894,,,,,,272734,A,2024-12-08_10h12.09.325,EPIDM,2023.1.2,None,
9070.jpg,9420.jpg,2 Points,2 Points,210 Points,PS1_L4.csv,,,,,,,,,,,,,,,,,,,,,,,,,,,,,0,3,3,3,0,15,15,15,,,,,,,,,,,,,,,,,,,1641.6635924169968,p,0.21901441598311067,1641.9433632919972,,,,,,272734,A,2024-12-08_10h12.09.325,EPIDM,2023.1.2,None,
2516.jpg,8500.jpg,4 Points,4 Points,214 Points,PS1_L4.csv,,,,,,,,,,,,,,,,,,,,,,,,,,,,,0,3,3,3,0,16,16,16,,,,,,,,,,,,,,,,,,,1646.2002409579873,p,0.4581955829926301,1646.7372183330008,,,,,,272734,A,2024-12-08_10h12.09.325,EPIDM,2023.1.2,None,
9140.jpg,2810.jpg,3 Points,3 Points,217 Points,PS1_L4.csv,,,,,,,,,,,,,,,,,,,,,,,,,,,,,0,3,3,3,0,17,17,17,,,,,,,,,,,,,,,,,,,1650.983344791981,q,0.7234847919899039,1651.7786657919933,,,,,,272734,A,2024-12-08_10h12.09.325,EPIDM,2023.1.2,None,
7220.jpg,8090.jpg,2 Points,2 Points,219 Points,PS1_L4.csv,,,,,,,,,,,,,,,,,,,,,,,,,,,,,0,3,3,3,0,18,18,18,,,,,,,,,,,,,,,,,,,1656.0332185419975,p,0.6177273750072345,1656.7166355419904,,,,,,272734,A,2024-12-08_10h12.09.325,EPIDM,2023.1.2,None,
2661.jpg,2870.jpg,5 Points,5 Points,224 Points,PS1_L4.csv,,,,,,,,,,,,,,,,,,,,,,,,,,,,,0,3,3,3,0,19,19,19,,,,,,,,,,,,,,,,,,,1660.9728319580026,q,0.22995725000509992,1661.2692028330057,,,,,,272734,A,2024-12-08_10h12.09.325,EPIDM,2023.1.2,None,
6010.jpg,7361.jpg,2 Points,2 Points,226 Points,PS1_L4.csv,,,,,,,,,,,,,,,,,,,,,,,,,,,,,0,3,3,3,0,20,20,20,,,,,,,,,,,,,,,,,,,1665.5176075419877,p,0.5323927910067141,1666.1235112499853,,,,,,272734,A,2024-12-08_10h12.09.325,EPIDM,2023.1.2,None,
7289.jpg,4534.jpg,0 Points,0 Points,226 Points,PS1_L4.csv,,,,,,,,,,,,,,,,,,,,,,,,,,,,,0,3,3,3,0,21,21,21,,,,,,,,,,,,,,,,,,,1670.3724472920003,p,0.5651843329833355,1671.012414708006,,,,,,272734,A,2024-12-08_10h12.09.325,EPIDM,2023.1.2,None,
1310.jpg,3181.jpg,4 Points,4 Points,230 Points,PS1_L4.csv,,,,,,,,,,,,,,,,,,,,,,,,,,,,,0,3,3,3,0,22,22,22,,,,,,,,,,,,,,,,,,,1675.2586510420078,p,0.6797213339887094,1676.0064931249944,,,,,,272734,A,2024-12-08_10h12.09.325,EPIDM,2023.1.2,None,
2383.jpg,1616.jpg,2 Points,2 Points,232 Points,PS1_L4.csv,,,,,,,,,,,,,,,,,,,,,,,,,,,,,0,3,3,3,0,23,23,23,,,,,,,,,,,,,,,,,,,1680.252052833006,p,1.0050498750060797,1681.3243697919825,,,1691.7944955419807,space,6.175065374991391,272734,A,2024-12-08_10h12.09.325,EPIDM,2023.1.2,None,
4510.jpg,2230.jpg,5 Points,5 Points,237 Points,PS1_L5.csv,,,,,,,,,,,,,,,,,,,,,,,,,,,,,0,4,4,4,0,0,0,0,,,,,,,,,,,,,,,,,,,1701.2955345829832,q,0.7937636249989737,1702.1719545829983,,,,,,272734,A,2024-12-08_10h12.09.325,EPIDM,2023.1.2,None,
A025.jpg,1051.jpg,0 Points,0 Points,237 Points,PS1_L5.csv,,,,,,,,,,,,,,,,,,,,,,,,,,,,,0,4,4,4,0,1,1,1,,,,,,,,,,,,,,,,,,,1706.405236666993,p,0.4442309580044821,1706.9869677079841,0,1.826426541985711,,,,272734,A,2024-12-08_10h12.09.325,EPIDM,2023.1.2,None,
7002.jpg,4660.jpg,4 Points,4 Points,241 Points,PS1_L5.csv,,,,,,,,,,,,,,,,,,,,,,,,,,,,,0,4,4,4,0,2,2,2,,,,,,,,,,,,,,,,,,,1713.125290291995,p,0.5977220420027152,1713.8360771249863,,,,,,272734,A,2024-12-08_10h12.09.325,EPIDM,2023.1.2,None,
2900.jpg,1101.jpg,3 Points,3 Points,244 Points,PS1_L5.csv,,,,,,,,,,,,,,,,,,,,,,,,,,,,,0,4,4,4,0,3,3,3,,,,,,,,,,,,,,,,,,,1718.039166292001,q,0.2095985829946585,1718.3322312079836,,,,,,272734,A,2024-12-08_10h12.09.325,EPIDM,2023.1.2,None,
2485.jpg,7350.jpg,0 Points,0 Points,244 Points,PS1_L5.csv,,,,,,,,,,,,,,,,,,,,,,,,,,,,,0,4,4,4,0,4,4,4,,,,,,,,,,,,,,,,,,,1722.578769832995,p,0.29324425000231713,1722.9452636250062,,,,,,272734,A,2024-12-08_10h12.09.325,EPIDM,2023.1.2,None,
6242.jpg,F034.jpg,4 Points,4 Points,248 Points,PS1_L5.csv,,,,,,,,,,,,,,,,,,,,,,,,,,,,,0,4,4,4,0,5,5,5,,,,,,,,,,,,,,,,,,,1727.1917953749944,q,0.5136092079919763,1727.8188785829989,,,,,,272734,A,2024-12-08_10h12.09.325,EPIDM,2023.1.2,None,
3170.jpg,6560.jpg,2 Points,2 Points,250 Points,PS1_L5.csv,,,,,,,,,,,,,,,,,,,,,,,,,,,,,0,4,4,4,0,6,6,6,,,,,,,,,,,,,,,,,,,1732.024489500007,p,0.23144408300868236,1732.3252280419983,,,,,,272734,A,2024-12-08_10h12.09.325,EPIDM,2023.1.2,None,
8033.jpg,7270.jpg,3 Points,3 Points,253 Points,PS1_L5.csv,,,,,,,,,,,,,,,,,,,,,,,,,,,,,0,4,4,4,0,7,7,7,,,,,,,,,,,,,,,,,,,1736.567122916982,q,0.8891307080048136,1737.5281801669917,,,,,,272734,A,2024-12-08_10h12.09.325,EPIDM,2023.1.2,None,
2597.jpg,5870.jpg,5 Points,5 Points,258 Points,PS1_L5.csv,,,,,,,,,,,,,,,,,,,,,,,,,,,,,0,4,4,4,0,8,8,8,,,,,,,,,,,,,,,,,,,1741.7866523329867,q,0.44596912499400787,1742.3122148329858,,,,,,272734,A,2024-12-08_10h12.09.325,EPIDM,2023.1.2,None,
6312.jpg,3230.jpg,2 Points,2 Points,260 Points,PS1_L5.csv,,,,,,,,,,,,,,,,,,,,,,,,,,,,,0,4,4,4,0,9,9,9,,,,,,,,,,,,,,,,,,,1746.566568374983,p,0.9131761669996195,1747.5573581669887,,,,,,272734,A,2024-12-08_10h12.09.325,EPIDM,2023.1.2,None,
3130.jpg,3500.jpg,4 Points,4 Points,264 Points,PS1_L5.csv,,,,,,,,,,,,,,,,,,,,,,,,,,,,,0,4,4,4,0,10,10,10,,,,,,,,,,,,,,,,,,,1751.8041680419992,q,0.203639208979439,1752.0741650830023,,,,,,272734,A,2024-12-08_10h12.09.325,EPIDM,2023.1.2,None,
2749.jpg,7282.jpg,3 Points,3 Points,267 Points,PS1_L5.csv,,,,,,,,,,,,,,,,,,,,,,,,,,,,,0,4,4,4,0,11,11,11,,,,,,,,,,,,,,,,,,,1756.3304539170058,p,0.27789866700186394,1756.6940507079998,,,,,,272734,A,2024-12-08_10h12.09.325,EPIDM,2023.1.2,None,
5300.jpg,2372.jpg,1 Point,1 Point,268 Points,PS1_L5.csv,,,,,,,,,,,,,,,,,,,,,,,,,,,,,0,4,4,4,0,12,12,12,,,,,,,,,,,,,,,,,,,1760.9366198329953,q,0.19918970900471322,1761.2110016669903,,,,,,272734,A,2024-12-08_10h12.09.325,EPIDM,2023.1.2,None,
6510.jpg,A074.jpg,2 Points,2 Points,270 Points,PS1_L5.csv,,,,,,,,,,,,,,,,,,,,,,,,,,,,,0,4,4,4,0,13,13,13,,,,,,,,,,,,,,,,,,,1765.4571361249837,p,0.27716999998665415,1765.8662223749852,2,1.2244413330045063,,,,272734,A,2024-12-08_10h12.09.325,EPIDM,2023.1.2,None,
2260.jpg,2830.jpg,5 Points,5 Points,275 Points,PS1_L5.csv,,,,,,,,,,,,,,,,,,,,,,,,,,,,,0,4,4,4,0,14,14,14,,,,,,,,,,,,,,,,,,,1771.4161182499956,p,0.5426328330067918,1772.0398158750031,,,,,,272734,A,2024-12-08_10h12.09.325,EPIDM,2023.1.2,None,
2710.jpg,9252.jpg,1 Point,1 Point,276 Points,PS1_L5.csv,,,,,,,,,,,,,,,,,,,,,,,,,,,,,0,4,4,4,0,15,15,15,,,,,,,,,,,,,,,,,,,1776.2900689999806,p,0.7407721669878811,1777.0995553749963,,,,,,272734,A,2024-12-08_10h12.09.325,EPIDM,2023.1.2,None,
3064.jpg,3168.jpg,4 Points,4 Points,280 Points,PS1_L5.csv,,,,,,,,,,,,,,,,,,,,,,,,,,,,,0,4,4,4,0,16,16,16,,,,,,,,,,,,,,,,,,,1781.353020666982,q,0.2133310409844853,1781.6318026669906,,,,,,272734,A,2024-12-08_10h12.09.325,EPIDM,2023.1.2,None,
1640.jpg,5531.jpg,3 Points,3 Points,283 Points,PS1_L5.csv,,,,,,,,,,,,,,,,,,,,,,,,,,,,,0,4,4,4,0,17,17,17,,,,,,,,,,,,,,,,,,,1785.8939273330034,q,0.30567941701156087,1786.281520916993,,,,,,272734,A,2024-12-08_10h12.09.325,EPIDM,2023.1.2,None,
3530.jpg,6213.jpg,1 Point,1 Point,284 Points,PS1_L5.csv,,,,,,,,,,,,,,,,,,,,,,,,,,,,,0,4,4,4,0,18,18,18,,,,,,,,,,,,,,,,,,,1790.5212329170026,p,0.6369490829820279,1791.2328758329968,,,,,,272734,A,2024-12-08_10h12.09.325,EPIDM,2023.1.2,None,
9090.jpg,7580.jpg,3 Points,3 Points,287 Points,PS1_L5.csv,,,,,,,,,,,,,,,,,,,,,,,,,,,,,0,4,4,4,0,19,19,19,,,,,,,,,,,,,,,,,,,1795.4732290829998,p,0.6856972909881733,1796.240149041987,,,,,,272734,A,2024-12-08_10h12.09.325,EPIDM,2023.1.2,None,
8230.jpg,2682.jpg,5 Points,5 Points,292 Points,PS1_L5.csv,,,,,,,,,,,,,,,,,,,,,,,,,,,,,0,4,4,4,0,20,20,20,,,,,,,,,,,,,,,,,,,1800.4802042079973,q,0.27024508302565664,1800.822081166989,,,,,,272734,A,2024-12-08_10h12.09.325,EPIDM,2023.1.2,None,
9592.jpg,1300.jpg,2 Points,2 Points,294 Points,PS1_L5.csv,,,,,,,,,,,,,,,,,,,,,,,,,,,,,0,4,4,4,0,21,21,21,,,,,,,,,,,,,,,,,,,1805.0629880829947,p,0.3434329580049962,1805.4786447919905,,,,,,272734,A,2024-12-08_10h12.09.325,EPIDM,2023.1.2,None,
2490.jpg,2590.jpg,4 Points,4 Points,298 Points,PS1_L5.csv,,,,,,,,,,,,,,,,,,,,,,,,,,,,,0,4,4,4,0,22,22,22,,,,,,,,,,,,,,,,,,,1809.7403772079851,q,0.14596208301372826,1809.9564389580046,,,,,,272734,A,2024-12-08_10h12.09.325,EPIDM,2023.1.2,None,
2190.jpg,7503.jpg,2 Points,2 Points,300 Points,PS1_L5.csv,,,,,,,,,,,,,,,,,,,,,,,,,,,,,0,4,4,4,0,23,23,23,,,,,,,,,,,,,,,,,,,1814.2016747919843,p,0.6282551670155954,1814.9039656670066,,,1825.3780044580053,space,7.683488709008088,272734,A,2024-12-08_10h12.09.325,EPIDM,2023.1.2,None,
1930.jpg,9008.jpg,1 Point,1 Point,301 Points,PS1_L6.csv,,,,,,,,,,,,,,,,,,,,,,,,,,,,,0,5,5,5,0,0,0,0,,,,,,,,,,,,,,,,,,,1836.3811937919818,q,0.3356004589877557,1836.7965449999901,,,,,,272734,A,2024-12-08_10h12.09.325,EPIDM,2023.1.2,None,
4613.jpg,2720.jpg,4 Points,4 Points,305 Points,PS1_L6.csv,,,,,,,,,,,,,,,,,,,,,,,,,,,,,0,5,5,5,0,1,1,1,,,,,,,,,,,,,,,,,,,1841.0452582080034,p,0.8089482079958543,1841.9302186249988,4,4.442621625028551,,,,272734,A,2024-12-08_10h12.09.325,EPIDM,2023.1.2,None,
3280.jpg,9270.jpg,0 Points,0 Points,305 Points,PS1_L6.csv,,,,,,,,,,,,,,,,,,,,,,,,,,,,,0,5,5,5,0,2,2,2,,,,,,,,,,,,,,,,,,,1850.6809099169914,q,1.5317919999943115,1852.2715166669805,,,,,,272734,A,2024-12-08_10h12.09.325,EPIDM,2023.1.2,None,
6800.jpg,9190.jpg,0 Points,0 Points,305 Points,PS1_L6.csv,,,,,,,,,,,,,,,,,,,,,,,,,,,,,0,5,5,5,0,3,3,3,,,,,,,,,,,,,,,,,,,1856.5353670830082,p,0.5572814999904949,1857.156608291989,,,,,,272734,A,2024-12-08_10h12.09.325,EPIDM,2023.1.2,None,
5600.jpg,9080.jpg,5 Points,5 Points,310 Points,PS1_L6.csv,,,,,,,,,,,,,,,,,,,,,,,,,,,,,0,5,5,5,0,4,4,4,,,,,,,,,,,,,,,,,,,1861.4205248329963,p,0.7600485419970937,1862.2578021670051,,,,,,272734,A,2024-12-08_10h12.09.325,EPIDM,2023.1.2,None,
P211.jpg,9041.jpg,4 Points,4 Points,314 Points,PS1_L6.csv,,,,,,,,,,,,,,,,,,,,,,,,,,,,,0,5,5,5,0,5,5,5,,,,,,,,,,,,,,,,,,,1866.5036904169829,q,1.0614195409871172,1867.6675755420001,,,,,,272734,A,2024-12-08_10h12.09.325,EPIDM,2023.1.2,None,
5200.jpg,5020.jpg,0 Points,0 Points,314 Points,PS1_L6.csv,,,,,,,,,,,,,,,,,,,,,,,,,,,,,0,5,5,5,0,6,6,6,,,,,,,,,,,,,,,,,,,1871.8811402919819,q,1.1233781250193715,1873.075602375,,,,,,272734,A,2024-12-08_10h12.09.325,EPIDM,2023.1.2,None,
1850.jpg,5623.jpg,5 Points,5 Points,319 Points,PS1_L6.csv,,,,,,,,,,,,,,,,,,,,,,,,,,,,,0,5,5,5,0,7,7,7,,,,,,,,,,,,,,,,,,,1877.3241226669925,p,0.8646896250138525,1878.2790073750075,,,,,,272734,A,2024-12-08_10h12.09.325,EPIDM,2023.1.2,None,
9440.jpg,6350.jpg,4 Points,4 Points,323 Points,PS1_L6.csv,,,,,,,,,,,,,,,,,,,,,,,,,,,,,0,5,5,5,0,8,8,8,,,,,,,,,,,,,,,,,,,1882.520682167,q,1.2112612499913666,1883.7946827919804,,,,,,272734,A,2024-12-08_10h12.09.325,EPIDM,2023.1.2,None,
5990.jpg,5780.jpg,3 Points,3 Points,326 Points,PS1_L6.csv,,,,,,,,,,,,,,,,,,,,,,,,,,,,,0,5,5,5,0,9,9,9,,,,,,,,,,,,,,,,,,,1888.0495025419805,p,0.7307052499963902,1888.8423623749986,,,,,,272734,A,2024-12-08_10h12.09.325,EPIDM,2023.1.2,None,
6244.jpg,9265.jpg,0 Points,0 Points,326 Points,PS1_L6.csv,,,,,,,,,,,,,,,,,,,,,,,,,,,,,0,5,5,5,0,10,10,10,,,,,,,,,,,,,,,,,,,1893.0936370829877,q,0.3260362909932155,1893.4788339170045,,,,,,272734,A,2024-12-08_10h12.09.325,EPIDM,2023.1.2,None,
5000.jpg,8180.jpg,4 Points,4 Points,330 Points,PS1_L6.csv,,,,,,,,,,,,,,,,,,,,,,,,,,,,,0,5,5,5,0,11,11,11,,,,,,,,,,,,,,,,,,,1897.7318359999917,p,0.664578292024089,1898.4682177919894,,,,,,272734,A,2024-12-08_10h12.09.325,EPIDM,2023.1.2,None,
5982.jpg,5260.jpg,5 Points,5 Points,335 Points,PS1_L6.csv,,,,,,,,,,,,,,,,,,,,,,,,,,,,,0,5,5,5,0,12,12,12,,,,,,,,,,,,,,,,,,,1902.7098629999964,p,1.0945883329841308,1903.8782574170036,,,,,,272734,A,2024-12-08_10h12.09.325,EPIDM,2023.1.2,None,
1301.jpg,1070.jpg,2 Points,2 Points,337 Points,PS1_L6.csv,,,,,,,,,,,,,,,,,,,,,,,,,,,,,0,5,5,5,0,13,13,13,,,,,,,,,,,,,,,,,,,1908.116254749999,p,0.9436126660148147,1909.1426816669991,2,1.3366349590069149,,,,272734,A,2024-12-08_10h12.09.325,EPIDM,2023.1.2,None,
7920.jpg,9102.jpg,3 Points,3 Points,340 Points,PS1_L6.csv,,,,,,,,,,,,,,,,,,,,,,,,,,,,,0,5,5,5,0,14,14,14,,,,,,,,,,,,,,,,,,,1914.802301082993,p,1.29784108401509,1916.174821749999,,,,,,272734,A,2024-12-08_10h12.09.325,EPIDM,2023.1.2,None,
5455.jpg,5220.jpg,0 Points,0 Points,340 Points,PS1_L6.csv,,,,,,,,,,,,,,,,,,,,,,,,,,,,,0,5,5,5,0,15,15,15,,,,,,,,,,,,,,,,,,,1920.4125676669937,q,0.8948087500175461,1921.3801674580027,,,,,,272734,A,2024-12-08_10h12.09.325,EPIDM,2023.1.2,None,
3350.jpg,3210.jpg,1 Point,1 Point,341 Points,PS1_L6.csv,,,,,,,,,,,,,,,,,,,,,,,,,,,,,0,5,5,5,0,16,16,16,,,,,,,,,,,,,,,,,,,1925.6307130419882,q,1.8863188750110567,1927.580170458008,,,,,,272734,A,2024-12-08_10h12.09.325,EPIDM,2023.1.2,None,
2560.jpg,5270.jpg,4 Points,4 Points,345 Points,PS1_L6.csv,,,,,,,,,,,,,,,,,,,,,,,,,,,,,0,5,5,5,0,17,17,17,,,,,,,,,,,,,,,,,,,1931.8423429169925,p,0.8569791670015547,1932.765525374998,,,,,,272734,A,2024-12-08_10h12.09.325,EPIDM,2023.1.2,None,
9584.jpg,3400.jpg,2 Points,2 Points,347 Points,PS1_L6.csv,,,,,,,,,,,,,,,,,,,,,,,,,,,,,0,5,5,5,0,18,18,18,,,,,,,,,,,,,,,,,,,1937.0117694579822,p,0.7668750000011642,1937.8503087080026,,,,,,272734,A,2024-12-08_10h12.09.325,EPIDM,2023.1.2,None,
5760.jpg,1602.jpg,1 Point,1 Point,348 Points,PS1_L6.csv,,,,,,,,,,,,,,,,,,,,,,,,,,,,,0,5,5,5,0,19,19,19,,,,,,,,,,,,,,,,,,,1942.0932453330024,p,1.17374783300329,1943.3332402079832,,,,,,272734,A,2024-12-08_10h12.09.325,EPIDM,2023.1.2,None,
7230.jpg,7570.jpg,5 Points,5 Points,353 Points,PS1_L6.csv,,,,,,,,,,,,,,,,,,,,,,,,,,,,,0,5,5,5,0,20,20,20,,,,,,,,,,,,,,,,,,,1947.5787911250081,p,1.215467957983492,1948.868878874986,,,,,,272734,A,2024-12-08_10h12.09.325,EPIDM,2023.1.2,None,
1022.jpg,6930.jpg,1 Point,1 Point,354 Points,PS1_L6.csv,,,,,,,,,,,,,,,,,,,,,,,,,,,,,0,5,5,5,0,21,21,21,,,,,,,,,,,,,,,,,,,1953.1105772919836,q,0.9806945000018459,1954.1713596250047,,,,,,272734,A,2024-12-08_10h12.09.325,EPIDM,2023.1.2,None,
8340.jpg,7546.jpg,2 Points,2 Points,356 Points,PS1_L6.csv,,,,,,,,,,,,,,,,,,,,,,,,,,,,,0,5,5,5,0,22,22,22,,,,,,,,,,,,,,,,,,,1958.4118532919965,p,1.422989790997235,1959.9021961670078,,,,,,272734,A,2024-12-08_10h12.09.325,EPIDM,2023.1.2,None,
6243.jpg,2752.jpg,2 Points,2 Points,358 Points,PS1_L6.csv,,,,,,,,,,,,,,,,,,,,,,,,,,,,,0,5,5,5,0,23,23,23,,,,,,,,,,,,,,,,,,,1964.1441188330064,p,0.8980276250222232,1965.1181045419944,,,1975.5840031249973,space,10.016637375025311,272734,A,2024-12-08_10h12.09.325,EPIDM,2023.1.2,None,
7280.jpg,7160.jpg,0 Points,0 Points,358 Points,PS1_L7.csv,,,,,,,,,,,,,,,,,,,,,,,,,,,,,0,6,6,6,0,0,0,0,,,,,,,,,,,,,,,,,,,1988.9151909579814,q,0.4213897919980809,1989.4233102499857,,,,,,272734,A,2024-12-08_10h12.09.325,EPIDM,2023.1.2,None,
2580.jpg,8300.jpg,3 Points,3 Points,361 Points,PS1_L7.csv,,,,,,,,,,,,,,,,,,,,,,,,,,,,,0,6,6,6,0,1,1,1,,,,,,,,,,,,,,,,,,,1993.6575548329856,p,0.760066040995298,1994.4933995419997,3,1.3388168340025004,,,,272734,A,2024-12-08_10h12.09.325,EPIDM,2023.1.2,None,
5972.jpg,6838.jpg,5 Points,5 Points,366 Points,PS1_L7.csv,,,,,,,,,,,,,,,,,,,,,,,,,,,,,0,6,6,6,0,2,2,2,,,,,,,,,,,,,,,,,,,2000.1451641249878,q,0.34435812500305474,2000.5613529169932,,,,,,272734,A,2024-12-08_10h12.09.325,EPIDM,2023.1.2,None,
5621.jpg,5534.jpg,3 Points,3 Points,369 Points,PS1_L7.csv,,,,,,,,,,,,,,,,,,,,,,,,,,,,,0,6,6,6,0,3,3,3,,,,,,,,,,,,,,,,,,,2004.8102769999823,p,1.038968915992882,2005.9374780829821,,,,,,272734,A,2024-12-08_10h12.09.325,EPIDM,2023.1.2,None,
8480.jpg,6410.jpg,1 Point,1 Point,370 Points,PS1_L7.csv,,,,,,,,,,,,,,,,,,,,,,,,,,,,,0,6,6,6,0,4,4,4,,,,,,,,,,,,,,,,,,,2010.1760957500082,q,1.3213322500232607,2011.5741209169792,,,,,,272734,A,2024-12-08_10h12.09.325,EPIDM,2023.1.2,None,
2702.jpg,1590.jpg,5 Points,5 Points,375 Points,PS1_L7.csv,,,,,,,,,,,,,,,,,,,,,,,,,,,,,0,6,6,6,0,5,5,5,,,,,,,,,,,,,,,,,,,2015.81970683299,p,0.8446161670144647,2016.7311452499998,,,,,,272734,A,2024-12-08_10h12.09.325,EPIDM,2023.1.2,None,
1275.jpg,3150.jpg,1 Point,1 Point,376 Points,PS1_L7.csv,,,,,,,,,,,,,,,,,,,,,,,,,,,,,0,6,6,6,0,6,6,6,,,,,,,,,,,,,,,,,,,2020.975879125006,p,0.9284846670052502,2021.9830817499897,,,,,,272734,A,2024-12-08_10h12.09.325,EPIDM,2023.1.2,None,
1910.jpg,2575.jpg,2 Points,2 Points,378 Points,PS1_L7.csv,,,,,,,,,,,,,,,,,,,,,,,,,,,,,0,6,6,6,0,7,7,7,,,,,,,,,,,,,,,,,,,2026.2286226249998,q,1.1002396660041995,2027.386859582999,,,,,,272734,A,2024-12-08_10h12.09.325,EPIDM,2023.1.2,None,
2518.jpg,2381.jpg,1 Point,1 Point,382 Points,PS1_L7.csv,,,,,,,,,,,,,,,,,,,,,,,,,,,,,0,6,6,6,0,8,8,8,,,,,,,,,,,,,,,,,,,2031.6506856250053,p,1.164957333006896,2032.8760713749798,,,,,,272734,A,2024-12-08_10h12.09.325,EPIDM,2023.1.2,None,
6250.1.jpg,3301.jpg,0 Points,0 Points,382 Points,PS1_L7.csv,,,,,,,,,,,,,,,,,,,,,,,,,,,,,0,6,6,6,0,9,9,9,,,,,,,,,,,,,,,,,,,2037.1329709999845,p,0.7545443749986589,2037.9583875829994,,,,,,272734,A,2024-12-08_10h12.09.325,EPIDM,2023.1.2,None,
7234.jpg,5533.jpg,3 Points,3 Points,385 Points,PS1_L7.csv,,,,,,,,,,,,,,,,,,,,,,,,,,,,,0,6,6,6,0,10,10,10,,,,,,,,,,,,,,,,,,,2042.2104903750005,p,1.2614153340109624,2043.540218167007,,,,,,272734,A,2024-12-08_10h12.09.325,EPIDM,2023.1.2,None,
9920.jpg,3068.jpg,5 Points,5 Points,390 Points,PS1_L7.csv,,,,,,,,,,,,,,,,,,,,,,,,,,,,,0,6,6,6,0,11,11,11,,,,,,,,,,,,,,,,,,,2047.7827574170078,p,1.1608502909948584,2048.999290582986,,,,,,272734,A,2024-12-08_10h12.09.325,EPIDM,2023.1.2,None,
3022.jpg,2352.2.jpg,0 Points,0 Points,390 Points,PS1_L7.csv,,,,,,,,,,,,,,,,,,,,,,,,,,,,,0,6,6,6,0,12,12,12,,,,,,,,,,,,,,,,,,,2053.263147541991,p,1.0248440000286791,2054.3629211249936,,,,,,272734,A,2024-12-08_10h12.09.325,EPIDM,2023.1.2,None,
8250.jpg,1313.jpg,4 Points,4 Points,394 Points,PS1_L7.csv,,,,,,,,,,,,,,,,,,,,,,,,,,,,,0,6,6,6,0,13,13,13,,,,,,,,,,,,,,,,,,,2058.6158150830015,p,0.9515360000077635,2059.641490124981,4,1.7332886250223964,,,,272734,A,2024-12-08_10h12.09.325,EPIDM,2023.1.2,None,
2690.jpg,9360.jpg,1 Point,1 Point,395 Points,PS1_L7.csv,,,,,,,,,,,,,,,,,,,,,,,,,,,,,0,6,6,6,0,14,14,14,,,,,,,,,,,,,,,,,,,2065.691355416988,q,0.6362165420141537,2066.39585916698,,,,,,272734,A,2024-12-08_10h12.09.325,EPIDM,2023.1.2,None,
9570.jpg,6610.jpg,0 Points,0 Points,395 Points,PS1_L7.csv,,,,,,,,,,,,,,,,,,,,,,,,,,,,,0,6,6,6,0,15,15,15,,,,,,,,,,,,,,,,,,,2070.6448307079845,q,0.530282084015198,2071.2532439579954,,,,,,272734,A,2024-12-08_10h12.09.325,EPIDM,2023.1.2,None,
3110.jpg,9000.jpg,4 Points,4 Points,399 Points,PS1_L7.csv,,,,,,,,,,,,,,,,,,,,,,,,,,,,,0,6,6,6,0,16,16,16,,,,,,,,,,,,,,,,,,,2075.502643166983,p,1.0489306660019793,2076.6124581249896,,,,,,272734,A,2024-12-08_10h12.09.325,EPIDM,2023.1.2,None,
8465.jpg,8400.jpg,1 Point,1 Point,400 Points,PS1_L7.csv,,,,,,,,,,,,,,,,,,,,,,,,,,,,,0,6,6,6,0,17,17,17,,,,,,,,,,,,,,,,,,,2080.864897457999,p,1.358684416016331,2082.2866718749865,,,,,,272734,A,2024-12-08_10h12.09.325,EPIDM,2023.1.2,None,
1540.jpg,2600.jpg,1 Point,1 Point,401 Points,PS1_L7.csv,,,,,,,,,,,,,,,,,,,,,,,,,,,,,0,6,6,6,0,18,18,18,,,,,,,,,,,,,,,,,,,2086.5309937919956,q,0.20323391701094806,2086.798117416998,,,,,,272734,A,2024-12-08_10h12.09.325,EPIDM,2023.1.2,None,
2276.jpg,6540.jpg,3 Points,3 Points,404 Points,PS1_L7.csv,,,,,,,,,,,,,,,,,,,,,,,,,,,,,0,6,6,6,0,19,19,19,,,,,,,,,,,,,,,,,,,2091.048363124981,p,0.27022925001801923,2091.3749968329794,,,,,,272734,A,2024-12-08_10h12.09.325,EPIDM,2023.1.2,None,
5030.jpg,1670.jpg,3 Points,3 Points,407 Points,PS1_L7.csv,,,,,,,,,,,,,,,,,,,,,,,,,,,,,0,6,6,6,0,20,20,20,,,,,,,,,,,,,,,,,,,2095.6379841669986,q,0.1998803339956794,2095.903066125,,,,,,272734,A,2024-12-08_10h12.09.325,EPIDM,2023.1.2,None,
9040.jpg,1120.jpg,3 Points,3 Points,410 Points,PS1_L7.csv,,,,,,,,,,,,,,,,,,,,,,,,,,,,,0,6,6,6,0,21,21,21,,,,,,,,,,,,,,,,,,,2100.157815582992,p,0.17647375000524335,2100.4036847079988,,,,,,272734,A,2024-12-08_10h12.09.325,EPIDM,2023.1.2,None,
3220.jpg,3063.jpg,5 Points,5 Points,415 Points,PS1_L7.csv,,,,,,,,,,,,,,,,,,,,,,,,,,,,,0,6,6,6,0,22,22,22,,,,,,,,,,,,,,,,,,,2104.6517495829903,q,0.20247250000829808,2104.9218432079942,,,,,,272734,A,2024-12-08_10h12.09.325,EPIDM,2023.1.2,None,
8117.jpg,2880.jpg,5 Points,5 Points,420 Points,PS1_L7.csv,,,,,,,,,,,,,,,,,,,,,,,,,,,,,0,6,6,6,0,23,23,23,,,,,,,,,,,,,,,,,,,2109.1677713329846,q,0.9340266249782871,2110.173942124995,,,2120.639194791991,space,8.598638290975941,272734,A,2024-12-08_10h12.09.325,EPIDM,2023.1.2,None,
4274.jpg,8160.jpg,2 Points,2 Points,422 Points,PS1_L8.csv,,,,,,,,,,,,,,,,,,,,,,,,,,,,,0,7,7,7,0,0,0,0,,,,,,,,,,,,,,,,,,,2132.5701947920024,p,0.5412858750205487,2133.1802841669996,,,,,,272734,A,2024-12-08_10h12.09.325,EPIDM,2023.1.2,None,
6314.jpg,O022.jpg,2 Points,2 Points,424 Points,PS1_L8.csv,,,,,,,,,,,,,,,,,,,,,,,,,,,,,0,7,7,7,0,1,1,1,,,,,,,,,,,,,,,,,,,2137.4296369169897,p,0.8481629999878351,2138.3833250830066,2,1.3782554579956923,,,,272734,A,2024-12-08_10h12.09.325,EPIDM,2023.1.2,None,
1560.jpg,8185.jpg,0 Points,0 Points,424 Points,PS1_L8.csv,,,,,,,,,,,,,,,,,,,,,,,,,,,,,0,7,7,7,0,2,2,2,,,,,,,,,,,,,,,,,,,2144.0801252920064,q,0.38112941599683836,2144.5626363749907,,,,,,272734,A,2024-12-08_10h12.09.325,EPIDM,2023.1.2,None,
2850.jpg,4532.jpg,3 Points,3 Points,427 Points,PS1_L8.csv,,,,,,,,,,,,,,,,,,,,,,,,,,,,,0,7,7,7,0,3,3,3,,,,,,,,,,,,,,,,,,,2148.781255042006,p,0.6880463330016937,2149.5303912499803,,,,,,272734,A,2024-12-08_10h12.09.325,EPIDM,2023.1.2,None,
1390.jpg,9421.jpg,2 Points,2 Points,429 Points,PS1_L8.csv,,,,,,,,,,,,,,,,,,,,,,,,,,,,,0,7,7,7,0,4,4,4,,,,,,,,,,,,,,,,,,,2153.791976999986,p,0.7194225840212312,2154.5752176249807,,,,,,272734,A,2024-12-08_10h12.09.325,EPIDM,2023.1.2,None,
9800.jpg,9433.jpg,1 Point,1 Point,430 Points,PS1_L8.csv,,,,,,,,,,,,,,,,,,,,,,,,,,,,,0,7,7,7,0,5,5,5,,,,,,,,,,,,,,,,,,,2158.823193749995,q,0.805787708988646,2159.6838015829853,,,,,,272734,A,2024-12-08_10h12.09.325,EPIDM,2023.1.2,None,
8161.jpg,1900.jpg,4 Points,4 Points,434 Points,PS1_L8.csv,,,,,,,,,,,,,,,,,,,,,,,,,,,,,0,7,7,7,0,6,6,6,,,,,,,,,,,,,,,,,,,2163.942741582985,p,0.83779154100921,2164.848162624985,,,,,,272734,A,2024-12-08_10h12.09.325,EPIDM,2023.1.2,None,
1112.jpg,6230.jpg,3 Points,3 Points,437 Points,PS1_L8.csv,,,,,,,,,,,,,,,,,,,,,,,,,,,,,0,7,7,7,0,7,7,7,,,,,,,,,,,,,,,,,,,2169.0994123749842,p,1.4972414579824544,2170.6657197079912,,,,,,272734,A,2024-12-08_10h12.09.325,EPIDM,2023.1.2,None,
1111.jpg,1040.jpg,0 Points,0 Points,437 Points,PS1_L8.csv,,,,,,,,,,,,,,,,,,,,,,,,,,,,,0,7,7,7,0,8,8,8,,,,,,,,,,,,,,,,,,,2174.9061809169943,q,0.7220411250018515,2175.6936219169875,,,,,,272734,A,2024-12-08_10h12.09.325,EPIDM,2023.1.2,None,
5622.jpg,9156.jpg,4 Points,4 Points,441 Points,PS1_L8.csv,,,,,,,,,,,,,,,,,,,,,,,,,,,,,0,7,7,7,0,9,9,9,,,,,,,,,,,,,,,,,,,2179.9417395420023,p,0.4300040420203004,2180.452177957981,,,,,,272734,A,2024-12-08_10h12.09.325,EPIDM,2023.1.2,None,
2681.jpg,7100.jpg,3 Points,3 Points,444 Points,PS1_L8.csv,,,,,,,,,,,,,,,,,,,,,,,,,,,,,0,7,7,7,0,10,10,10,,,,,,,,,,,,,,,,,,,2184.7018848749867,p,0.7096475000143982,2185.4853278749797,,,,,,272734,A,2024-12-08_10h12.09.325,EPIDM,2023.1.2,None,
6821.jpg,9622.jpg,2 Points,2 Points,446 Points,PS1_L8.csv,,,,,,,,,,,,,,,,,,,,,,,,,,,,,0,7,7,7,0,11,11,11,,,,,,,,,,,,,,,,,,,2189.735395041993,p,0.9163950410147663,2190.7248422919947,,,,,,272734,A,2024-12-08_10h12.09.325,EPIDM,2023.1.2,None,
9490.jpg,9210.jpg,1 Point,1 Point,447 Points,PS1_L8.csv,,,,,,,,,,,,,,,,,,,,,,,,,,,,,0,7,7,7,0,12,12,12,,,,,,,,,,,,,,,,,,,2194.9750095419877,q,0.28404004202457145,2195.320654042007,,,,,,272734,A,2024-12-08_10h12.09.325,EPIDM,2023.1.2,None,
4605.jpg,1510.jpg,4 Points,4 Points,451 Points,PS1_L8.csv,,,,,,,,,,,,,,,,,,,,,,,,,,,,,0,7,7,7,0,13,13,13,,,,,,,,,,,,,,,,,,,2199.5757298749813,p,0.4278021669888403,2200.06788841699,4,3.9152569160214625,,,,272734,A,2024-12-08_10h12.09.325,EPIDM,2023.1.2,None,
2240.jpg,5010.jpg,5 Points,5 Points,456 Points,PS1_L8.csv,,,,,,,,,,,,,,,,,,,,,,,,,,,,,0,7,7,7,0,14,14,14,,,,,,,,,,,,,,,,,,,2208.301888124988,q,0.6367411670216825,2209.0227764169977,,,,,,272734,A,2024-12-08_10h12.09.325,EPIDM,2023.1.2,None,
3102.jpg,F032.jpg,1 Point,1 Point,457 Points,PS1_L8.csv,,,,,,,,,,,,,,,,,,,,,,,,,,,,,0,7,7,7,0,15,15,15,,,,,,,,,,,,,,,,,,,2213.2617872499977,p,0.5491539579816163,2213.9273009169847,,,,,,272734,A,2024-12-08_10h12.09.325,EPIDM,2023.1.2,None,
4100.jpg,6570.2.jpg,3 Points,3 Points,460 Points,PS1_L8.csv,,,,,,,,,,,,,,,,,,,,,,,,,,,,,0,7,7,7,0,16,16,16,,,,,,,,,,,,,,,,,,,2218.1414646249905,q,0.21396945798187517,2218.4705246670055,,,,,,272734,A,2024-12-08_10h12.09.325,EPIDM,2023.1.2,None,
2650.jpg,4531.jpg,5 Points,5 Points,465 Points,PS1_L8.csv,,,,,,,,,,,,,,,,,,,,,,,,,,,,,0,7,7,7,0,17,17,17,,,,,,,,,,,,,,,,,,,2222.6736421670066,p,0.40938083300716244,2223.1589277919848,,,,,,272734,A,2024-12-08_10h12.09.325,EPIDM,2023.1.2,None,
9320.jpg,9007.jpg,0 Points,0 Points,465 Points,PS1_L8.csv,,,,,,,,,,,,,,,,,,,,,,,,,,,,,0,7,7,7,0,18,18,18,,,,,,,,,,,,,,,,,,,2227.411117916985,q,0.7519511250138748,2228.2383872499922,,,,,,272734,A,2024-12-08_10h12.09.325,EPIDM,2023.1.2,None,
8460.jpg,8330.jpg,0 Points,0 Points,465 Points,PS1_L8.csv,,,,,,,,,,,,,,,,,,,,,,,,,,,,,0,7,7,7,0,19,19,19,,,,,,,,,,,,,,,,,,,2232.4762022499926,p,0.3654311250138562,2232.909589499992,,,,,,272734,A,2024-12-08_10h12.09.325,EPIDM,2023.1.2,None,
2570.jpg,5500.jpg,3 Points,3 Points,468 Points,PS1_L8.csv,,,,,,,,,,,,,,,,,,,,,,,,,,,,,0,7,7,7,0,20,20,20,,,,,,,,,,,,,,,,,,,2237.1698550829897,p,1.144275042024674,2238.3793506670045,,,,,,272734,A,2024-12-08_10h12.09.325,EPIDM,2023.1.2,None,
6190.jpg,3120.jpg,5 Points,5 Points,473 Points,PS1_L8.csv,,,,,,,,,,,,,,,,,,,,,,,,,,,,,0,7,7,7,0,21,21,21,,,,,,,,,,,,,,,,,,,2242.6336594579916,p,1.432604250003351,2244.147492249991,,,,,,272734,A,2024-12-08_10h12.09.325,EPIDM,2023.1.2,None,
2200.jpg,4598.jpg,1 Point,1 Point,474 Points,PS1_L8.csv,,,,,,,,,,,,,,,,,,,,,,,,,,,,,0,7,7,7,0,22,22,22,,,,,,,,,,,,,,,,,,,2248.3898128329893,p,0.9082723750034347,2249.37306379198,,,,,,272734,A,2024-12-08_10h12.09.325,EPIDM,2023.1.2,None,
1303.jpg,2000.jpg,0 Points,0 Points,474 Points,PS1_L8.csv,,,,,,,,,,,,,,,,,,,,,,,,,,,,,0,7,7,7,0,23,23,23,,,,,,,,,,,,,,,,,,,2253.620924374991,q,0.8056510410096962,2254.5068028749956,,,2264.9873553329962,space,12.109705458016833,272734,A,2024-12-08_10h12.09.325,EPIDM,2023.1.2,None,
9010.jpg,9253.jpg,0 Points,0 Points,474 Points,PS1_L9.csv,,,,,,,,,,,,,,,,,,,,,,,,,,,,,0,8,8,8,0,0,0,0,,,,,,,,,,,,,,,,,,,2280.4223250829964,p,0.5869774580060039,2281.077465167007,,,,,,272734,A,2024-12-08_10h12.09.325,EPIDM,2023.1.2,None,
1302.jpg,2700.jpg,3 Points,3 Points,477 Points,PS1_L9.csv,,,,,,,,,,,,,,,,,,,,,,,,,,,,,0,8,8,8,0,1,1,1,,,,,,,,,,,,,,,,,,,2285.3299218750035,p,1.5597468340129126,2286.969649457984,3,1.8036482089955825,,,,272734,A,2024-12-08_10h12.09.325,EPIDM,2023.1.2,None,
2030.jpg,2495.jpg,0 Points,0 Points,477 Points,PS1_L9.csv,,,,,,,,,,,,,,,,,,,,,,,,,,,,,0,8,8,8,0,2,2,2,,,,,,,,,,,,,,,,,,,2293.0862335419806,p,0.6429678330023307,2293.802799666999,,,,,,272734,A,2024-12-08_10h12.09.325,EPIDM,2023.1.2,None,
2110.jpg,7260.jpg,5 Points,5 Points,482 Points,PS1_L9.csv,,,,,,,,,,,,,,,,,,,,,,,,,,,,,0,8,8,8,0,3,3,3,,,,,,,,,,,,,,,,,,,2298.0559464170074,p,0.992717667017132,2299.1249448749877,,,,,,272734,A,2024-12-08_10h12.09.325,EPIDM,2023.1.2,None,
2053.jpg,9415.jpg,4 Points,4 Points,486 Points,PS1_L9.csv,,,,,,,,,,,,,,,,,,,,,,,,,,,,,0,8,8,8,0,4,4,4,,,,,,,,,,,,,,,,,,,2303.371660167002,q,1.6291891250002664,2305.074116542004,,,,,,272734,A,2024-12-08_10h12.09.325,EPIDM,2023.1.2,None,
6211.jpg,9611.jpg,3 Points,3 Points,489 Points,PS1_L9.csv,,,,,,,,,,,,,,,,,,,,,,,,,,,,,0,8,8,8,0,5,5,5,,,,,,,,,,,,,,,,,,,2309.3250025000016,p,1.123261792003177,2310.512263957993,,,,,,272734,A,2024-12-08_10h12.09.325,EPIDM,2023.1.2,None,
8350.jpg,7190.jpg,5 Points,5 Points,494 Points,PS1_L9.csv,,,,,,,,,,,,,,,,,,,,,,,,,,,,,0,8,8,8,0,6,6,6,,,,,,,,,,,,,,,,,,,2314.7648770420055,q,0.4119160419795662,2315.250971917005,,,,,,272734,A,2024-12-08_10h12.09.325,EPIDM,2023.1.2,None,
9340.jpg,6910.jpg,0 Points,0 Points,494 Points,PS1_L9.csv,,,,,,,,,,,,,,,,,,,,,,,,,,,,,0,8,8,8,0,7,7,7,,,,,,,,,,,,,,,,,,,2319.4886551669915,p,0.6559855000232346,2320.2243996250036,,,,,,272734,A,2024-12-08_10h12.09.325,EPIDM,2023.1.2,None,
4533.jpg,2385.jpg,3 Points,3 Points,497 Points,PS1_L9.csv,,,,,,,,,,,,,,,,,,,,,,,,,,,,,0,8,8,8,0,8,8,8,,,,,,,,,,,,,,,,,,,2324.476339249988,p,1.1480222920072265,2325.6946333329834,,,,,,272734,A,2024-12-08_10h12.09.325,EPIDM,2023.1.2,None,
5940.jpg,9411.jpg,0 Points,0 Points,497 Points,PS1_L9.csv,,,,,,,,,,,,,,,,,,,,,,,,,,,,,0,8,8,8,0,9,9,9,,,,,,,,,,,,,,,,,,,2329.9312512920005,q,1.0928830000048038,2331.0933197919803,,,,,,272734,A,2024-12-08_10h12.09.325,EPIDM,2023.1.2,None,
2220.jpg,2010.jpg,5 Points,5 Points,502 Points,PS1_L9.csv,,,,,,,,,,,,,,,,,,,,,,,,,,,,,0,8,8,8,0,10,10,10,,,,,,,,,,,,,,,,,,,2335.336536124989,p,0.5982869580038823,2336.009014957992,,,,,,272734,A,2024-12-08_10h12.09.325,EPIDM,2023.1.2,None,
9500.jpg,6360.jpg,1 Point,1 Point,503 Points,PS1_L9.csv,,,,,,,,,,,,,,,,,,,,,,,,,,,,,0,8,8,8,0,11,11,11,,,,,,,,,,,,,,,,,,,2340.249314582994,p,1.582031875004759,2341.904824750003,,,,,,272734,A,2024-12-08_10h12.09.325,EPIDM,2023.1.2,None,
2092.jpg,2210.jpg,0 Points,0 Points,503 Points,PS1_L9.csv,,,,,,,,,,,,,,,,,,,,,,,,,,,,,0,8,8,8,0,12,12,12,,,,,,,,,,,,,,,,,,,2346.147276874981,q,0.4844698749948293,2346.697129749984,,,,,,272734,A,2024-12-08_10h12.09.325,EPIDM,2023.1.2,None,
9530.jpg,9220.jpg,1 Point,1 Point,504 Points,PS1_L9.csv,,,,,,,,,,,,,,,,,,,,,,,,,,,,,0,8,8,8,0,13,13,13,,,,,,,,,,,,,,,,,,,2350.940215874987,q,1.1483907500223722,2352.1487264169846,1,1.4649680830189027,,,,272734,A,2024-12-08_10h12.09.325,EPIDM,2023.1.2,None,
9254.jpg,9290.jpg,2 Points,2 Points,506 Points,PS1_L9.csv,,,,,,,,,,,,,,,,,,,,,,,,,,,,,0,8,8,8,0,14,14,14,,,,,,,,,,,,,,,,,,,2357.9371612499817,p,0.6862220829934813,2358.6756370420044,,,,,,272734,A,2024-12-08_10h12.09.325,EPIDM,2023.1.2,None,
4608.jpg,8320.jpg,1 Point,1 Point,507 Points,PS1_L9.csv,,,,,,,,,,,,,,,,,,,,,,,,,,,,,0,8,8,8,0,15,15,15,,,,,,,,,,,,,,,,,,,2362.9307143329934,q,0.932725709018996,2363.9257056250062,,,,,,272734,A,2024-12-08_10h12.09.325,EPIDM,2023.1.2,None,
7237.jpg,8510.jpg,4 Points,4 Points,511 Points,PS1_L9.csv,,,,,,,,,,,,,,,,,,,,,,,,,,,,,0,8,8,8,0,16,16,16,,,,,,,,,,,,,,,,,,,2368.173854624998,q,0.914383875002386,2369.1643305830075,,,,,,272734,A,2024-12-08_10h12.09.325,EPIDM,2023.1.2,None,
9417.jpg,6530.jpg,1 Point,1 Point,512 Points,PS1_L9.csv,,,,,,,,,,,,,,,,,,,,,,,,,,,,,0,8,8,8,0,17,17,17,,,,,,,,,,,,,,,,,,,2373.420021083002,p,0.4419290829973761,2373.9491860419803,,,,,,272734,A,2024-12-08_10h12.09.325,EPIDM,2023.1.2,None,
6831.jpg,2141.jpg,5 Points,5 Points,517 Points,PS1_L9.csv,,,,,,,,,,,,,,,,,,,,,,,,,,,,,0,8,8,8,0,18,18,18,,,,,,,,,,,,,,,,,,,2378.1879953749885,q,1.3790467079961672,2379.6451777080074,,,,,,272734,A,2024-12-08_10h12.09.325,EPIDM,2023.1.2,None,
4689.jpg,7009.jpg,5 Points,5 Points,522 Points,PS1_L9.csv,,,,,,,,,,,,,,,,,,,,,,,,,,,,,0,8,8,8,0,19,19,19,,,,,,,,,,,,,,,,,,,2383.889905374992,q,0.9084521250042599,2384.8646947919915,,,,,,272734,A,2024-12-08_10h12.09.325,EPIDM,2023.1.2,None,
2751.jpg,6313.jpg,3 Points,3 Points,525 Points,PS1_L9.csv,,,,,,,,,,,,,,,,,,,,,,,,,,,,,0,8,8,8,0,20,20,20,,,,,,,,,,,,,,,,,,,2389.113108291989,q,1.0289621670090128,2390.2164491250005,,,,,,272734,A,2024-12-08_10h12.09.325,EPIDM,2023.1.2,None,
4621.jpg,3550.jpg,2 Points,2 Points,527 Points,PS1_L9.csv,,,,,,,,,,,,,,,,,,,,,,,,,,,,,0,8,8,8,0,21,21,21,,,,,,,,,,,,,,,,,,,2394.4641197919846,p,1.309813458006829,2395.8475602919934,,,,,,272734,A,2024-12-08_10h12.09.325,EPIDM,2023.1.2,None,
8220.jpg,2410.jpg,4 Points,4 Points,531 Points,PS1_L9.csv,,,,,,,,,,,,,,,,,,,,,,,,,,,,,0,8,8,8,0,22,22,22,,,,,,,,,,,,,,,,,,,2400.092744583002,q,0.7945130000007339,2400.9545555000077,,,,,,272734,A,2024-12-08_10h12.09.325,EPIDM,2023.1.2,None,
1113.jpg,1240.jpg,3 Points,3 Points,534 Points,PS1_L9.csv,,,,,,,,,,,,,,,,,,,,,,,,,,,,,0,8,8,8,0,23,23,23,,,,,,,,,,,,,,,,,,,2405.210164374992,q,1.468282249988988,2406.7545372919994,,,2417.238462374982,space,5.8650383339845575,272734,A,2024-12-08_10h12.09.325,EPIDM,2023.1.2,None,
2750.jpg,9050.jpg,4 Points,4 Points,538 Points,PS1_L10.csv,,,,,,,,,,,,,,,,,,,,,,,,,,,,,0,9,9,9,0,0,0,0,,,,,,,,,,,,,,,,,,,2426.428607332986,p,1.3598985000280663,2427.8598342920013,,,,,,272734,A,2024-12-08_10h12.09.325,EPIDM,2023.1.2,None,
2312.jpg,2722.jpg,1 Points,1 Points,539 Points,PS1_L10.csv,,,,,,,,,,,,,,,,,,,,,,,,,,,,,0,9,9,9,0,1,1,1,,,,,,,,,,,,,,,,,,,2432.114757500007,p,1.3786469580081757,2433.5591765829886,1,2.135364124987973,,,,272734,A,2024-12-08_10h12.09.325,EPIDM,2023.1.2,None,
8232.jpg,4279.jpg,5 Points,5 Points,544 Points,PS1_L10.csv,,,,,,,,,,,,,,,,,,,,,,,,,,,,,0,9,9,9,0,2,2,2,,,,,,,,,,,,,,,,,,,2440.0143657919834,p,1.0713689579861239,2441.1688037079875,,,,,,272734,A,2024-12-08_10h12.09.325,EPIDM,2023.1.2,None,
6000.jpg,6836.jpg,4 Points,4 Points,548 Points,PS1_L10.csv,,,,,,,,,,,,,,,,,,,,,,,,,,,,,0,9,9,9,0,3,3,3,,,,,,,,,,,,,,,,,,,2445.41476741698,q,0.8141570829902776,2446.2986763329827,,,,,,272734,A,2024-12-08_10h12.09.325,EPIDM,2023.1.2,None,
4536.jpg,2280.jpg,4 Points,4 Points,552 Points,PS1_L10.csv,,,,,,,,,,,,,,,,,,,,,,,,,,,,,0,9,9,9,0,4,4,4,,,,,,,,,,,,,,,,,,,2450.5379660830076,p,0.8105759590107482,2451.4249085829942,,,,,,272734,A,2024-12-08_10h12.09.325,EPIDM,2023.1.2,None,
6241.jpg,9561.jpg,3 Points,3 Points,555 Points,PS1_L10.csv,,,,,,,,,,,,,,,,,,,,,,,,,,,,,0,9,9,9,0,5,5,5,,,,,,,,,,,,,,,,,,,2455.6675499169796,q,0.8015787079930305,2456.542536541994,,,,,,272734,A,2024-12-08_10h12.09.325,EPIDM,2023.1.2,None,
1942.jpg,2890.jpg,1 Points,1 Points,556 Points,PS1_L10.csv,,,,,,,,,,,,,,,,,,,,,,,,,,,,,0,9,9,9,0,6,6,6,,,,,,,,,,,,,,,,,,,2460.803836916981,q,1.398994750023121,2462.2601045829942,,,,,,272734,A,2024-12-08_10h12.09.325,EPIDM,2023.1.2,None,
6020.jpg,6300.jpg,2 Points,2 Points,558 Points,PS1_L10.csv,,,,,,,,,,,,,,,,,,,,,,,,,,,,,0,9,9,9,0,7,7,7,,,,,,,,,,,,,,,,,,,2466.5140899170074,q,1.7060438329936005,2468.283361207985,,,,,,272734,A,2024-12-08_10h12.09.325,EPIDM,2023.1.2,None,
7170.jpg,2170.jpg,2 Points,2 Points,560 Points,PS1_L10.csv,,,,,,,,,,,,,,,,,,,,,,,,,,,,,0,9,9,9,0,8,8,8,,,,,,,,,,,,,,,,,,,2472.5411061669874,q,0.6707395420235116,2473.283283333003,,,,,,272734,A,2024-12-08_10h12.09.325,EPIDM,2023.1.2,None,
5510.jpg,2514.jpg,5 Points,5 Points,565 Points,PS1_L10.csv,,,,,,,,,,,,,,,,,,,,,,,,,,,,,0,9,9,9,0,9,9,9,,,,,,,,,,,,,,,,,,,2477.5272172080004,p,1.260023832990555,2478.8639898329857,,,,,,272734,A,2024-12-08_10h12.09.325,EPIDM,2023.1.2,None,
6840.jpg,3080.jpg,1 Points,1 Points,566 Points,PS1_L10.csv,,,,,,,,,,,,,,,,,,,,,,,,,,,,,0,9,9,9,0,10,10,10,,,,,,,,,,,,,,,,,,,2483.110589249991,q,0.6934032920107711,2483.8578863749863,,,,,,272734,A,2024-12-08_10h12.09.325,EPIDM,2023.1.2,None,
7195.jpg,2487.jpg,2 Points,2 Points,568 Points,PS1_L10.csv,,,,,,,,,,,,,,,,,,,,,,,,,,,,,0,9,9,9,0,11,11,11,,,,,,,,,,,,,,,,,,,2488.110879541986,q,0.7727103339857422,2488.950600374985,,,,,,272734,A,2024-12-08_10h12.09.325,EPIDM,2023.1.2,None,
5971.jpg,9912.jpg,5 Points,5 Points,573 Points,PS1_L10.csv,,,,,,,,,,,,,,,,,,,,,,,,,,,,,0,9,9,9,0,12,12,12,,,,,,,,,,,,,,,,,,,2493.1975994579843,p,0.42123579198960215,2493.689693249995,,,,,,272734,A,2024-12-08_10h12.09.325,EPIDM,2023.1.2,None,
2520.jpg,8503.jpg,2 Points,2 Points,575 Points,PS1_L10.csv,,,,,,,,,,,,,,,,,,,,,,,,,,,,,0,9,9,9,0,13,13,13,,,,,,,,,,,,,,,,,,,2497.953282750008,p,0.7480934580089524,2498.7811682919855,2,1.3049894589930773,,,,272734,A,2024-12-08_10h12.09.325,EPIDM,2023.1.2,None,
5480.jpg,8200.jpg,4 Points,4 Points,579 Points,PS1_L10.csv,,,,,,,,,,,,,,,,,,,,,,,,,,,,,0,9,9,9,0,14,14,14,,,,,,,,,,,,,,,,,,,2504.4163077499834,p,0.6512523750134278,2505.154427957983,,,,,,272734,A,2024-12-08_10h12.09.325,EPIDM,2023.1.2,None,
6370.jpg,1270.jpg,4 Points,4 Points,583 Points,PS1_L10.csv,,,,,,,,,,,,,,,,,,,,,,,,,,,,,0,9,9,9,0,15,15,15,,,,,,,,,,,,,,,,,,,2509.399084292003,q,0.29052549999323674,2509.7688159579993,,,,,,272734,A,2024-12-08_10h12.09.325,EPIDM,2023.1.2,None,
5130.jpg,1810.jpg,3 Points,3 Points,586 Points,PS1_L10.csv,,,,,,,,,,,,,,,,,,,,,,,,,,,,,0,9,9,9,0,16,16,16,,,,,,,,,,,,,,,,,,,2514.013015042001,p,0.429486667009769,2514.5189478749817,,,,,,272734,A,2024-12-08_10h12.09.325,EPIDM,2023.1.2,None,
4250.jpg,7060.jpg,5 Points,5 Points,591 Points,PS1_L10.csv,,,,,,,,,,,,,,,,,,,,,,,,,,,,,0,9,9,9,0,17,17,17,,,,,,,,,,,,,,,,,,,2518.762666958006,q,0.3836827909981366,2519.221317791991,,,,,,272734,A,2024-12-08_10h12.09.325,EPIDM,2023.1.2,None,
9373.jpg,9410.jpg,0 Points,0 Points,591 Points,PS1_L10.csv,,,,,,,,,,,,,,,,,,,,,,,,,,,,,0,9,9,9,0,18,18,18,,,,,,,,,,,,,,,,,,,2523.4589933329844,p,0.927038875001017,2524.4580914170074,,,,,,272734,A,2024-12-08_10h12.09.325,EPIDM,2023.1.2,None,
2221.jpg,2270.jpg,2 Points,2 Points,593 Points,PS1_L10.csv,,,,,,,,,,,,,,,,,,,,,,,,,,,,,0,9,9,9,0,19,19,19,,,,,,,,,,,,,,,,,,,2528.7022767080052,p,1.323585500009358,2530.0945921249804,,,,,,272734,A,2024-12-08_10h12.09.325,EPIDM,2023.1.2,None,
1650.jpg,2130.jpg,1 Points,1 Points,594 Points,PS1_L10.csv,,,,,,,,,,,,,,,,,,,,,,,,,,,,,0,9,9,9,0,20,20,20,,,,,,,,,,,,,,,,,,,2534.3506160829857,p,0.45917858299799263,2534.8848919169977,,,,,,272734,A,2024-12-08_10h12.09.325,EPIDM,2023.1.2,None,
1280.jpg,9402.jpg,2 Points,2 Points,596 Points,PS1_L10.csv,,,,,,,,,,,,,,,,,,,,,,,,,,,,,0,9,9,9,0,21,21,21,,,,,,,,,,,,,,,,,,,2539.1392547499854,q,0.8776559590187389,2540.0754839169967,,,,,,272734,A,2024-12-08_10h12.09.325,EPIDM,2023.1.2,None,
2214.jpg,4500.jpg,3 Points,3 Points,599 Points,PS1_L10.csv,,,,,,,,,,,,,,,,,,,,,,,,,,,,,0,9,9,9,0,22,22,22,,,,,,,,,,,,,,,,,,,2544.325646249985,p,0.8995998750033323,2545.296998832986,,,,,,272734,A,2024-12-08_10h12.09.325,EPIDM,2023.1.2,None,
7284.jpg,8021.jpg,4 Points,4 Points,603 Points,PS1_L10.csv,,,,,,,,,,,,,,,,,,,,,,,,,,,,,0,9,9,9,0,23,23,23,,,,,,,,,,,,,,,,,,,2549.543857499986,q,0.49811629101168364,2550.112287583004,,,2560.5753876669914,space,3.0341351670213044,272734,A,2024-12-08_10h12.09.325,EPIDM,2023.1.2,None,
