L_Scene,R_Scene,Points_L,Points_R,PtTotal,blockFile,Instructions_Loop.thisRepN,Instructions_Loop.thisTrialN,Instructions_Loop.thisN,Instructions_Loop.thisIndex,Redo_Instructions_Loop.thisRepN,Redo_Instructions_Loop.thisTrialN,Redo_Instructions_Loop.thisN,Redo_Instructions_Loop.thisIndex,Practice_Encoding_Loop.thisRepN,Practice_Encoding_Loop.thisTrialN,Practice_Encoding_Loop.thisN,Practice_Encoding_Loop.thisIndex,Practice_Response_Fail_Loop.thisRepN,Practice_Response_Fail_Loop.thisTrialN,Practice_Response_Fail_Loop.thisN,Practice_Response_Fail_Loop.thisIndex,Practice_FB_Loop.thisRepN,Practice_FB_Loop.thisTrialN,Practice_FB_Loop.thisN,Practice_FB_Loop.thisIndex,Practice_Attention_Loop.thisRepN,Practice_Attention_Loop.thisTrialN,Practice_Attention_Loop.thisN,Practice_Attention_Loop.thisIndex,Practice_EncBrk_Loop.thisRepN,Practice_EncBrk_Loop.thisTrialN,Practice_EncBrk_Loop.thisN,Practice_EncBrk_Loop.thisIndex,Encoding_Loop.thisRepN,Encoding_Loop.thisTrialN,Encoding_Loop.thisN,Encoding_Loop.thisIndex,EncStim_Loop.thisRepN,EncStim_Loop.thisTrialN,EncStim_Loop.thisN,EncStim_Loop.thisIndex,Response_Fail_Loop.thisRepN,Response_Fail_Loop.thisTrialN,Response_Fail_Loop.thisN,Response_Fail_Loop.thisIndex,FB_Loop.thisRepN,FB_Loop.thisTrialN,FB_Loop.thisN,FB_Loop.thisIndex,Attention_Loop.thisRepN,Attention_Loop.thisTrialN,Attention_Loop.thisN,Attention_Loop.thisIndex,EncBrk_Loop.thisRepN,EncBrk_Loop.thisTrialN,EncBrk_Loop.thisN,EncBrk_Loop.thisIndex,Transition_Enc.keys,Transition_Enc.rt,Encoding_Resp.started,Encoding_Resp.keys,Encoding_Resp.rt,R_Point_FB_Stim.started,Attn_resp.keys,Attn_resp.rt,Progress_Tracker.started,EncBrk_Resp.keys,EncBrk_Resp.rt,participant,Group,date,expName,psychopyVersion,frameRate,
,,,,,,,,,,,,,,,,,,,,,,,,,,,,,,,,,,,,,,,,,,,,,,,,,,,,,,,,,,space,9.45579954108689,,,,,,,,,,271126,A,2024-06-27_15h41.57.699,EPIDM,2023.1.2,None,
A060.jpg,F041.jpg,5 Points,5 Points,5 Points,,,,,,,,,,0,0,0,0,,,,,,,,,,,,,,,,,,,,,,,,,,,,,,,,,,,,,,,,,,,1343.115006417036,p,2.3881189160747454,1345.6423441669904,,,,,,271126,A,2024-06-27_15h41.57.699,EPIDM,2023.1.2,None,
O161.jpg,1812.jpg,2 Points,2 Points,7 Points,,,,,,,,,,0,1,1,1,,,,,,,,,,,,,,,,,,,,,,,,,,,,,,,,,,,,,,,,,,,1349.8314822500106,p,1.430829624994658,1351.4010832080385,,,,,,271126,A,2024-06-27_15h41.57.699,EPIDM,2023.1.2,None,
O013.jpg,A001.jpg,3 Points,3 Points,10 Points,,,,,,,,,,0,2,2,2,,,,,,,,,,,,,,,,,,,,,,,,,,,,,,,,,,,,,,,,,,,1355.5814947920153,q,1.4961772500537336,1357.228019583039,,,,,,271126,A,2024-06-27_15h41.57.699,EPIDM,2023.1.2,None,
P036.jpg,F273.jpg,5 Points,5 Points,15 Points,,,,,,,,,,0,3,3,3,,,,,,,,,,,,,,,,,,,,,,,,,,,,,,,,,,,,,,,,,,,1361.395789292059,q,1.6830092089949176,1363.2463077920256,,,,,,271126,A,2024-06-27_15h41.57.699,EPIDM,2023.1.2,None,
L130.jpg,2393.jpg,0 Points,0 Points,15 Points,,,,,,,,,,0,4,4,4,,,,,,,,,,,,,,,,,,,,,,,,,,,,,,,,,,,,,,,,,,,1367.3981222080765,p,1.5601093750447035,1369.0979611250805,0,8.765125207952224,,,,271126,A,2024-06-27_15h41.57.699,EPIDM,2023.1.2,None,
F279.jpg,P033.jpg,3 Points,3 Points,18 Points,,,,,,,,,,0,5,5,5,,,,,,,,,,,,,,,,,,,,,,,,,,,,,,,,,,,,,,,,,,,1382.1603409170639,q,2.734119583037682,1385.031537999981,,,,,,271126,A,2024-06-27_15h41.57.699,EPIDM,2023.1.2,None,
A104.jpg,2593.jpg,2 Points,2 Points,20 Points,,,,,,,,,,0,6,6,6,,,,,,,,,,,,,,,,,,,,,,,,,,,,,,,,,,,,,,,,,,,1389.2160523330094,q,1.653493458055891,1391.0080603749957,,,,,,271126,A,2024-06-27_15h41.57.699,EPIDM,2023.1.2,None,
2598.jpg,2605.jpg,0 Points,0 Points,20 Points,,,,,,,,,,0,7,7,7,,,,,,,,,,,,,,,,,,,,,,,,,,,,,,,,,,,,,,,,,,,1395.188391958014,q,1.0654030840378255,1396.3147178749787,,,,,,271126,A,2024-06-27_15h41.57.699,EPIDM,2023.1.2,None,
L005.jpg,O011.jpg,1 Points,1 Points,21 Points,,,,,,,,,,0,8,8,8,,,,,,,,,,,,,,,,,,,,,,,,,,,,,,,,,,,,,,,,,,,1400.5635400000028,q,1.4343659169971943,1402.1380683750613,,,,,,271126,A,2024-06-27_15h41.57.699,EPIDM,2023.1.2,None,
8186.jpg,F078.jpg,2 Points,2 Points,23 Points,,,,,,,,,,0,9,9,9,,,,,,,,,,,,,,,,,,,,,,,,,,,,,,,,,,,,,,,,,,,1406.3226611249847,q,1.3886902909725904,1407.8500505830161,2,2.8401753751095384,1420.8959475420415,space,5.846159125096165,271126,A,2024-06-27_15h41.57.699,EPIDM,2023.1.2,None,
,,,,,,,,,,,,,,,,,,,,,,,,,,,,,,,,,,,,,,,,,,,,,,,,,,,,,,,,,,space,3.5857571250526235,,,,,,,,,,271126,A,2024-06-27_15h41.57.699,EPIDM,2023.1.2,None,
1019.jpg,2120.jpg,0 Points,0 Points,0 Points,PS1_L1.csv,,,,,,,,,,,,,,,,,,,,,,,,,,,,,0,0,0,0,0,0,0,0,,,,,,,,,,,,,,,,,,,1499.0019012920093,q,1.042186583043076,1500.1616070830496,,,,,,271126,A,2024-06-27_15h41.57.699,EPIDM,2023.1.2,None,
6900.jpg,8531.jpg,4 Points,4 Points,4 Points,PS1_L1.csv,,,,,,,,,,,,,,,,,,,,,,,,,,,,,0,0,0,0,0,1,1,1,,,,,,,,,,,,,,,,,,,1504.3738252080511,p,0.8371695830719545,1505.2886697080685,4,1.5888393750647083,,,,271126,A,2024-06-27_15h41.57.699,EPIDM,2023.1.2,None,
5594.jpg,5750.jpg,5 Points,5 Points,9 Points,PS1_L1.csv,,,,,,,,,,,,,,,,,,,,,,,,,,,,,0,0,0,0,0,2,2,2,,,,,,,,,,,,,,,,,,,1511.1818715420086,q,1.0856183329597116,1512.35252712504,,,,,,271126,A,2024-06-27_15h41.57.699,EPIDM,2023.1.2,None,
2205.jpg,3053.jpg,4 Points,4 Points,13 Points,PS1_L1.csv,,,,,,,,,,,,,,,,,,,,,,,,,,,,,0,0,0,0,0,3,3,3,,,,,,,,,,,,,,,,,,,1516.601664041984,q,1.137128832982853,1517.8095841670875,,,,,,271126,A,2024-06-27_15h41.57.699,EPIDM,2023.1.2,None,
3250.jpg,A053.jpg,3 Points,3 Points,16 Points,PS1_L1.csv,,,,,,,,,,,,,,,,,,,,,,,,,,,,,0,0,0,0,0,4,4,4,,,,,,,,,,,,,,,,,,,1522.0782785830088,p,0.9811832499690354,1523.166081125033,,,,,,271126,A,2024-06-27_15h41.57.699,EPIDM,2023.1.2,None,
7950.jpg,7187.jpg,1 Point,1 Point,17 Points,PS1_L1.csv,,,,,,,,,,,,,,,,,,,,,,,,,,,,,0,0,0,0,0,5,5,5,,,,,,,,,,,,,,,,,,,1527.3779070000164,q,0.914040083065629,1528.3998097500298,,,,,,271126,A,2024-06-27_15h41.57.699,EPIDM,2023.1.2,None,
5535.jpg,8210.jpg,3 Points,3 Points,20 Points,PS1_L1.csv,,,,,,,,,,,,,,,,,,,,,,,,,,,,,0,0,0,0,0,6,6,6,,,,,,,,,,,,,,,,,,,1532.617882792023,p,0.9691139170899987,1533.6478018750204,,,,,,271126,A,2024-06-27_15h41.57.699,EPIDM,2023.1.2,None,
9001.jpg,9620.jpg,1 Point,1 Point,21 Points,PS1_L1.csv,,,,,,,,,,,,,,,,,,,,,,,,,,,,,0,0,0,0,0,7,7,7,,,,,,,,,,,,,,,,,,,1537.9037042499986,p,1.0114855410065502,1538.9890445830533,,,,,,271126,A,2024-06-27_15h41.57.699,EPIDM,2023.1.2,None,
1110.jpg,9331.jpg,2 Points,2 Points,23 Points,PS1_L1.csv,,,,,,,,,,,,,,,,,,,,,,,,,,,,,0,0,0,0,0,8,8,8,,,,,,,,,,,,,,,,,,,1543.228346333024,q,0.9419537499779835,1544.243038375047,,,,,,271126,A,2024-06-27_15h41.57.699,EPIDM,2023.1.2,None,
7820.jpg,1121.jpg,0 Points,0 Points,23 Points,PS1_L1.csv,,,,,,,,,,,,,,,,,,,,,,,,,,,,,0,0,0,0,0,9,9,9,,,,,,,,,,,,,,,,,,,1548.4914185830858,q,1.0795839170459658,1549.63602658303,,,,,,271126,A,2024-06-27_15h41.57.699,EPIDM,2023.1.2,None,
7186.jpg,9182.jpg,2 Points,2 Points,25 Points,PS1_L1.csv,,,,,,,,,,,,,,,,,,,,,,,,,,,,,0,0,0,0,0,10,10,10,,,,,,,,,,,,,,,,,,,1553.8847049170872,q,0.8617883329279721,1554.8286400419893,,,,,,271126,A,2024-06-27_15h41.57.699,EPIDM,2023.1.2,None,
9280.jpg,9390.jpg,1 Point,1 Point,26 Points,PS1_L1.csv,,,,,,,,,,,,,,,,,,,,,,,,,,,,,0,0,0,0,0,11,11,11,,,,,,,,,,,,,,,,,,,1559.0714563330403,q,1.042848041979596,1560.2002503330586,,,,,,271126,A,2024-06-27_15h41.57.699,EPIDM,2023.1.2,None,
2440.jpg,7351.jpg,4 Points,4 Points,30 Points,PS1_L1.csv,,,,,,,,,,,,,,,,,,,,,,,,,,,,,0,0,0,0,0,12,12,12,,,,,,,,,,,,,,,,,,,1564.4341506250203,p,1.0078716670395806,1565.5193572919816,,,,,,271126,A,2024-06-27_15h41.57.699,EPIDM,2023.1.2,None,
6834.jpg,9120.jpg,5 Points,5 Points,35 Points,PS1_L1.csv,,,,,,,,,,,,,,,,,,,,,,,,,,,,,0,0,0,0,0,13,13,13,,,,,,,,,,,,,,,,,,,1569.7680340830702,q,1.0268830000422895,1570.8694166250061,5,1.664631542051211,,,,271126,A,2024-06-27_15h41.57.699,EPIDM,2023.1.2,None,
9230.jpg,9181.jpg,0 Points,0 Points,35 Points,PS1_L1.csv,,,,,,,,,,,,,,,,,,,,,,,,,,,,,0,0,0,0,0,14,14,14,,,,,,,,,,,,,,,,,,,1576.8414290420478,p,1.600083125056699,1578.5032898749923,,,,,,271126,A,2024-06-27_15h41.57.699,EPIDM,2023.1.2,None,
8260.jpg,8280.jpg,3 Points,3 Points,38 Points,PS1_L1.csv,,,,,,,,,,,,,,,,,,,,,,,,,,,,,0,0,0,0,0,15,15,15,,,,,,,,,,,,,,,,,,,1582.759625375038,q,0.7144373749615625,1583.5427856249735,,,,,,271126,A,2024-06-27_15h41.57.699,EPIDM,2023.1.2,None,
9470.jpg,9400.jpg,3 Points,3 Points,41 Points,PS1_L1.csv,,,,,,,,,,,,,,,,,,,,,,,,,,,,,0,0,0,0,0,16,16,16,,,,,,,,,,,,,,,,,,,1587.796050791978,q,1.1658416249556467,1589.0151535000186,,,,,,271126,A,2024-06-27_15h41.57.699,EPIDM,2023.1.2,None,
2616.jpg,7238.jpg,4 Points,4 Points,45 Points,PS1_L1.csv,,,,,,,,,,,,,,,,,,,,,,,,,,,,,0,0,0,0,0,17,17,17,,,,,,,,,,,,,,,,,,,1593.2770511669805,p,0.7803680410142988,1594.1290632920573,,,,,,271126,A,2024-06-27_15h41.57.699,EPIDM,2023.1.2,None,
9430.jpg,3010.jpg,5 Points,5 Points,50 Points,PS1_L1.csv,,,,,,,,,,,,,,,,,,,,,,,,,,,,,0,0,0,0,0,18,18,18,,,,,,,,,,,,,,,,,,,1598.3793315420626,q,0.8061576670734212,1599.2574381250888,,,,,,271126,A,2024-06-27_15h41.57.699,EPIDM,2023.1.2,None,
1661.jpg,1321.jpg,3 Points,3 Points,53 Points,PS1_L1.csv,,,,,,,,,,,,,,,,,,,,,,,,,,,,,0,0,0,0,0,19,19,19,,,,,,,,,,,,,,,,,,,1603.5031427079812,q,0.9222307919990271,1604.4804403750459,,,,,,271126,A,2024-06-27_15h41.57.699,EPIDM,2023.1.2,None,
8041.jpg,2271.jpg,2 Points,2 Points,55 Points,PS1_L1.csv,,,,,,,,,,,,,,,,,,,,,,,,,,,,,0,0,0,0,0,20,20,20,,,,,,,,,,,,,,,,,,,1608.7597515420057,q,1.0900878750253469,1609.9133080830798,,,,,,271126,A,2024-06-27_15h41.57.699,EPIDM,2023.1.2,None,
9180.jpg,9046.jpg,3 Points,3 Points,58 Points,PS1_L1.csv,,,,,,,,,,,,,,,,,,,,,,,,,,,,,0,0,0,0,0,21,21,21,,,,,,,,,,,,,,,,,,,1614.163069750066,p,1.0218170831212774,1615.2527029999765,,,,,,271126,A,2024-06-27_15h41.57.699,EPIDM,2023.1.2,None,
2691.jpg,7640.jpg,0 Points,0 Points,58 Points,PS1_L1.csv,,,,,,,,,,,,,,,,,,,,,,,,,,,,,0,0,0,0,0,22,22,22,,,,,,,,,,,,,,,,,,,1619.4999544579769,p,0.9019443340366706,1620.467443624977,,,,,,271126,A,2024-06-27_15h41.57.699,EPIDM,2023.1.2,None,
1660.jpg,2840.jpg,2 Points,2 Points,60 Points,PS1_L1.csv,,,,,,,,,,,,,,,,,,,,,,,,,,,,,0,0,0,0,0,23,23,23,,,,,,,,,,,,,,,,,,,1624.7258926250506,p,0.8434122080216184,1625.636208083015,,,1636.1121336669894,space,34.39345995907206,271126,A,2024-06-27_15h41.57.699,EPIDM,2023.1.2,None,
9480.jpg,9250.jpg,0 Points,0 Points,60 Points,PS1_L2.csv,,,,,,,,,,,,,,,,,,,,,,,,,,,,,0,1,1,1,0,0,0,0,,,,,,,,,,,,,,,,,,,1673.8318620830541,q,0.9926137500442564,1674.8806744579924,,,,,,271126,A,2024-06-27_15h41.57.699,EPIDM,2023.1.2,None,
9910.jpg,6940.jpg,2 Points,2 Points,62 Points,PS1_L2.csv,,,,,,,,,,,,,,,,,,,,,,,,,,,,,0,1,1,1,0,1,1,1,,,,,,,,,,,,,,,,,,,1679.1415929170325,p,1.5542487910715863,1680.7538740830496,2,1.5240395829314366,,,,271126,A,2024-06-27_15h41.57.699,EPIDM,2023.1.2,None,
4535.jpg,1811.jpg,1 Point,1 Point,63 Points,PS1_L2.csv,,,,,,,,,,,,,,,,,,,,,,,,,,,,,0,1,1,1,0,2,2,2,,,,,,,,,,,,,,,,,,,1686.6005202920642,q,1.8712232080288231,1688.5436705420725,,,,,,271126,A,2024-06-27_15h41.57.699,EPIDM,2023.1.2,None,
2020.jpg,1947.jpg,5 Points,5 Points,68 Points,PS1_L2.csv,,,,,,,,,,,,,,,,,,,,,,,,,,,,,0,1,1,1,0,3,3,3,,,,,,,,,,,,,,,,,,,1692.7866550420877,p,1.5482337500434369,1694.411310292082,,,,,,271126,A,2024-06-27_15h41.57.699,EPIDM,2023.1.2,None,
9160.jpg,1200.jpg,4 Points,4 Points,72 Points,PS1_L2.csv,,,,,,,,,,,,,,,,,,,,,,,,,,,,,0,1,1,1,0,4,4,4,,,,,,,,,,,,,,,,,,,1698.6568403750425,q,0.8635723330080509,1699.5941545000533,,,,,,271126,A,2024-06-27_15h41.57.699,EPIDM,2023.1.2,None,
9520.jpg,1931.jpg,3 Points,3 Points,75 Points,PS1_L2.csv,,,,,,,,,,,,,,,,,,,,,,,,,,,,,0,1,1,1,0,5,5,5,,,,,,,,,,,,,,,,,,,1703.838402625057,p,1.2175204580416903,1705.130322333076,,,,,,271126,A,2024-06-27_15h41.57.699,EPIDM,2023.1.2,None,
7830.jpg,2499.jpg,3 Points,3 Points,78 Points,PS1_L2.csv,,,,,,,,,,,,,,,,,,,,,,,,,,,,,0,1,1,1,0,6,6,6,,,,,,,,,,,,,,,,,,,1709.380828167079,q,1.4031477919779718,1710.8488535420038,,,,,,271126,A,2024-06-27_15h41.57.699,EPIDM,2023.1.2,None,
6830.jpg,6212.jpg,4 Points,4 Points,82 Points,PS1_L2.csv,,,,,,,,,,,,,,,,,,,,,,,,,,,,,0,1,1,1,0,7,7,7,,,,,,,,,,,,,,,,,,,1715.101531042019,q,1.2737784590572119,1716.440963583067,,,,,,271126,A,2024-06-27_15h41.57.699,EPIDM,2023.1.2,None,
7285.jpg,4233.jpg,5 Points,5 Points,87 Points,PS1_L2.csv,,,,,,,,,,,,,,,,,,,,,,,,,,,,,0,1,1,1,0,8,8,8,,,,,,,,,,,,,,,,,,,1720.6933051249944,q,0.8659132920438424,1721.6348162919749,,,,,,271126,A,2024-06-27_15h41.57.699,EPIDM,2023.1.2,None,
1740.jpg,7480.jpg,0 Points,0 Points,87 Points,PS1_L2.csv,,,,,,,,,,,,,,,,,,,,,,,,,,,,,0,1,1,1,0,9,9,9,,,,,,,,,,,,,,,,,,,1725.8805088750087,p,1.2935577920870855,1727.2479496670421,,,,,,271126,A,2024-06-27_15h41.57.699,EPIDM,2023.1.2,None,
7380.jpg,1220.jpg,1 Point,1 Point,88 Points,PS1_L2.csv,,,,,,,,,,,,,,,,,,,,,,,,,,,,,0,1,1,1,0,10,10,10,,,,,,,,,,,,,,,,,,,1731.506345917005,p,1.1975764579838142,1732.762147624977,,,,,,271126,A,2024-06-27_15h41.57.699,EPIDM,2023.1.2,None,
3061.jpg,2717.jpg,4 Points,4 Points,92 Points,PS1_L2.csv,,,,,,,,,,,,,,,,,,,,,,,,,,,,,0,1,1,1,0,11,11,11,,,,,,,,,,,,,,,,,,,1737.0170818329789,p,1.4934883340029046,1738.5748600830557,,,,,,271126,A,2024-06-27_15h41.57.699,EPIDM,2023.1.2,None,
5460.jpg,5800.jpg,0 Points,0 Points,92 Points,PS1_L2.csv,,,,,,,,,,,,,,,,,,,,,,,,,,,,,0,1,1,1,0,12,12,12,,,,,,,,,,,,,,,,,,,1742.8395386249758,p,0.7832589159952477,1743.6986474579899,,,,,,271126,A,2024-06-27_15h41.57.699,EPIDM,2023.1.2,None,
2215.jpg,2512.jpg,1 Point,1 Point,93 Points,PS1_L2.csv,,,,,,,,,,,,,,,,,,,,,,,,,,,,,0,1,1,1,0,13,13,13,,,,,,,,,,,,,,,,,,,1747.9360480420291,p,0.7512843339936808,1748.7590641670395,1,1.2867490829667076,,,,271126,A,2024-06-27_15h41.57.699,EPIDM,2023.1.2,None,
3000.jpg,6200.jpg,5 Points,5 Points,98 Points,PS1_L2.csv,,,,,,,,,,,,,,,,,,,,,,,,,,,,,0,1,1,1,0,14,14,14,,,,,,,,,,,,,,,,,,,1754.3662604580168,p,1.4157940830336884,1755.8563932500547,,,,,,271126,A,2024-06-27_15h41.57.699,EPIDM,2023.1.2,None,
1945.jpg,2800.jpg,4 Points,4 Points,102 Points,PS1_L2.csv,,,,,,,,,,,,,,,,,,,,,,,,,,,,,0,1,1,1,0,15,15,15,,,,,,,,,,,,,,,,,,,1760.1052469579736,q,0.8293683329829946,1761.0054492920171,,,,,,271126,A,2024-06-27_15h41.57.699,EPIDM,2023.1.2,None,
5660.jpg,5201.jpg,0 Points,0 Points,102 Points,PS1_L2.csv,,,,,,,,,,,,,,,,,,,,,,,,,,,,,0,1,1,1,0,16,16,16,,,,,,,,,,,,,,,,,,,1765.2531220000237,q,0.673035417101346,1765.9926265830873,,,,,,271126,A,2024-06-27_15h41.57.699,EPIDM,2023.1.2,None,
3266.jpg,7360.jpg,1 Point,1 Point,103 Points,PS1_L2.csv,,,,,,,,,,,,,,,,,,,,,,,,,,,,,0,1,1,1,0,17,17,17,,,,,,,,,,,,,,,,,,,1770.242536667036,p,0.6347737500909716,1770.9529012920102,,,,,,271126,A,2024-06-27_15h41.57.699,EPIDM,2023.1.2,None,
F149.jpg,3030.jpg,0 Points,0 Points,103 Points,PS1_L2.csv,,,,,,,,,,,,,,,,,,,,,,,,,,,,,0,1,1,1,0,18,18,18,,,,,,,,,,,,,,,,,,,1775.1971716249827,p,1.6175035410560668,1776.915955833043,,,,,,271126,A,2024-06-27_15h41.57.699,EPIDM,2023.1.2,None,
5410.jpg,1450.jpg,5 Points,5 Points,108 Points,PS1_L2.csv,,,,,,,,,,,,,,,,,,,,,,,,,,,,,0,1,1,1,0,19,19,19,,,,,,,,,,,,,,,,,,,1781.1289652499836,q,0.9493330830009654,1782.1378771250602,,,,,,271126,A,2024-06-27_15h41.57.699,EPIDM,2023.1.2,None,
9101.jpg,9571.jpg,2 Points,2 Points,110 Points,PS1_L2.csv,,,,,,,,,,,,,,,,,,,,,,,,,,,,,0,1,1,1,0,20,20,20,,,,,,,,,,,,,,,,,,,1786.3987290420337,q,0.8623097920790315,1787.3258315420244,,,,,,271126,A,2024-06-27_15h41.57.699,EPIDM,2023.1.2,None,
9110.jpg,3051.jpg,1 Point,1 Point,111 Points,PS1_L2.csv,,,,,,,,,,,,,,,,,,,,,,,,,,,,,0,1,1,1,0,21,21,21,,,,,,,,,,,,,,,,,,,1791.575283208047,q,0.621359791024588,1792.27556012501,,,,,,271126,A,2024-06-27_15h41.57.699,EPIDM,2023.1.2,None,
2100.jpg,7205.jpg,5 Points,5 Points,116 Points,PS1_L2.csv,,,,,,,,,,,,,,,,,,,,,,,,,,,,,0,1,1,1,0,22,22,22,,,,,,,,,,,,,,,,,,,1796.5251188330585,p,0.7284562910208479,1797.3289186670445,,,,,,271126,A,2024-06-27_15h41.57.699,EPIDM,2023.1.2,None,
3160.jpg,6210.jpg,1 Point,1 Point,117 Points,PS1_L2.csv,,,,,,,,,,,,,,,,,,,,,,,,,,,,,0,1,1,1,0,23,23,23,,,,,,,,,,,,,,,,,,,1801.567386000068,p,0.7326438330346718,1802.3900415829848,,,1812.8553451250773,space,3.998079084092751,271126,A,2024-06-27_15h41.57.699,EPIDM,2023.1.2,None,
7283.jpg,1720.jpg,4 Points,4 Points,121 Points,PS1_L3.csv,,,,,,,,,,,,,,,,,,,,,,,,,,,,,0,2,2,2,0,0,0,0,,,,,,,,,,,,,,,,,,,1820.1745355830062,p,1.4937463339883834,1821.742542083026,,,,,,271126,A,2024-06-27_15h41.57.699,EPIDM,2023.1.2,None,
6571.jpg,P237.jpg,2 Points,2 Points,123 Points,PS1_L3.csv,,,,,,,,,,,,,,,,,,,,,,,,,,,,,0,2,2,2,0,1,1,1,,,,,,,,,,,,,,,,,,,1825.98769441701,q,0.8406547920312732,1826.9418058330193,2,1.2134282500483096,,,,271126,A,2024-06-27_15h41.57.699,EPIDM,2023.1.2,None,
6260.jpg,3062.jpg,3 Points,3 Points,126 Points,PS1_L3.csv,,,,,,,,,,,,,,,,,,,,,,,,,,,,,0,2,2,2,0,2,2,2,,,,,,,,,,,,,,,,,,,1832.4640284170164,q,1.5244200420565903,1834.1091897920705,,,,,,271126,A,2024-06-27_15h41.57.699,EPIDM,2023.1.2,None,
6150.jpg,2206.jpg,0 Points,0 Points,126 Points,PS1_L3.csv,,,,,,,,,,,,,,,,,,,,,,,,,,,,,0,2,2,2,0,3,3,3,,,,,,,,,,,,,,,,,,,1838.3201191669796,p,0.9566191250924021,1839.347498291987,,,,,,271126,A,2024-06-27_15h41.57.699,EPIDM,2023.1.2,None,
9300.jpg,1050.jpg,4 Points,4 Points,130 Points,PS1_L3.csv,,,,,,,,,,,,,,,,,,,,,,,,,,,,,0,2,2,2,0,4,4,4,,,,,,,,,,,,,,,,,,,1843.5913404580206,p,0.8527846250217408,1844.5079871669877,,,,,,271126,A,2024-06-27_15h41.57.699,EPIDM,2023.1.2,None,
F365.jpg,3180.jpg,5 Points,5 Points,135 Points,PS1_L3.csv,,,,,,,,,,,,,,,,,,,,,,,,,,,,,0,2,2,2,0,5,5,5,,,,,,,,,,,,,,,,,,,1848.7536414170172,p,0.8595041669905186,1849.7091454999754,,,,,,271126,A,2024-06-27_15h41.57.699,EPIDM,2023.1.2,None,
2320.jpg,2791.jpg,4 Points,4 Points,139 Points,PS1_L3.csv,,,,,,,,,,,,,,,,,,,,,,,,,,,,,0,2,2,2,0,6,6,6,,,,,,,,,,,,,,,,,,,1853.9240453750826,q,1.0077811250230297,1854.9981136670103,,,,,,271126,A,2024-06-27_15h41.57.699,EPIDM,2023.1.2,None,
8311.jpg,4609.jpg,2 Points,2 Points,141 Points,PS1_L3.csv,,,,,,,,,,,,,,,,,,,,,,,,,,,,,0,2,2,2,0,7,7,7,,,,,,,,,,,,,,,,,,,1859.2540647500427,q,0.5327871250919998,1859.8574029579759,,,,,,271126,A,2024-06-27_15h41.57.699,EPIDM,2023.1.2,None,
9042.jpg,2753.jpg,0 Points,0 Points,141 Points,PS1_L3.csv,,,,,,,,,,,,,,,,,,,,,,,,,,,,,0,2,2,2,0,8,8,8,,,,,,,,,,,,,,,,,,,1864.1106872080127,p,0.9477851251140237,1865.1236770830583,,,,,,271126,A,2024-06-27_15h41.57.699,EPIDM,2023.1.2,None,
5471.jpg,7352.jpg,2 Points,2 Points,143 Points,PS1_L3.csv,,,,,,,,,,,,,,,,,,,,,,,,,,,,,0,2,2,2,0,9,9,9,,,,,,,,,,,,,,,,,,,1869.3845640830696,p,0.7705033330712467,1870.22119333304,,,,,,271126,A,2024-06-27_15h41.57.699,EPIDM,2023.1.2,None,
P222.jpg,9401.jpg,2 Points,2 Points,145 Points,PS1_L3.csv,,,,,,,,,,,,,,,,,,,,,,,,,,,,,0,2,2,2,0,10,10,10,,,,,,,,,,,,,,,,,,,1874.4738179580308,p,1.705566207994707,1876.2822099999757,,,,,,271126,A,2024-06-27_15h41.57.699,EPIDM,2023.1.2,None,
1610.jpg,F203.jpg,0 Points,0 Points,145 Points,PS1_L3.csv,,,,,,,,,,,,,,,,,,,,,,,,,,,,,0,2,2,2,0,11,11,11,,,,,,,,,,,,,,,,,,,1880.5002692920389,q,0.6631307500647381,1881.2839266670635,,,,,,271126,A,2024-06-27_15h41.57.699,EPIDM,2023.1.2,None,
9405.jpg,6250.2.jpg,3 Points,3 Points,148 Points,PS1_L3.csv,,,,,,,,,,,,,,,,,,,,,,,,,,,,,0,2,2,2,0,12,12,12,,,,,,,,,,,,,,,,,,,1885.4832583330572,p,0.6721028750762343,1886.231402000063,,,,,,271126,A,2024-06-27_15h41.57.699,EPIDM,2023.1.2,None,
1090.jpg,P217.jpg,5 Points,5 Points,153 Points,PS1_L3.csv,,,,,,,,,,,,,,,,,,,,,,,,,,,,,0,2,2,2,0,13,13,13,,,,,,,,,,,,,,,,,,,1890.4870050000027,q,0.7970458749914542,1891.394344875007,5,1.8349125001113862,,,,271126,A,2024-06-27_15h41.57.699,EPIDM,2023.1.2,None,
P233.jpg,3060.jpg,1 Point,1 Point,154 Points,PS1_L3.csv,,,,,,,,,,,,,,,,,,,,,,,,,,,,,0,2,2,2,0,14,14,14,,,,,,,,,,,,,,,,,,,1897.5446722500492,q,2.0584722080966458,1899.7523536250228,,,,,,271126,A,2024-06-27_15h41.57.699,EPIDM,2023.1.2,None,
8040.jpg,7185.jpg,1 Point,1 Point,155 Points,PS1_L3.csv,,,,,,,,,,,,,,,,,,,,,,,,,,,,,0,2,2,2,0,15,15,15,,,,,,,,,,,,,,,,,,,1903.9286131249974,p,1.369813667028211,1905.4089570420329,,,,,,271126,A,2024-06-27_15h41.57.699,EPIDM,2023.1.2,None,
6550.jpg,9582.jpg,5 Points,5 Points,160 Points,PS1_L3.csv,,,,,,,,,,,,,,,,,,,,,,,,,,,,,0,2,2,2,0,16,16,16,,,,,,,,,,,,,,,,,,,1909.6134650420863,p,1.2535799170145765,1910.937532208045,,,,,,271126,A,2024-06-27_15h41.57.699,EPIDM,2023.1.2,None,
P077.jpg,A041.jpg,1 Point,1 Point,161 Points,PS1_L3.csv,,,,,,,,,,,,,,,,,,,,,,,,,,,,,0,2,2,2,0,17,17,17,,,,,,,,,,,,,,,,,,,1915.1823938750895,q,1.0850148330209777,1916.4031833750196,,,,,,271126,A,2024-06-27_15h41.57.699,EPIDM,2023.1.2,None,
4770.jpg,4275.jpg,3 Points,3 Points,164 Points,PS1_L3.csv,,,,,,,,,,,,,,,,,,,,,,,,,,,,,0,2,2,2,0,18,18,18,,,,,,,,,,,,,,,,,,,1920.5799615000142,p,0.5989077079575509,1921.2989386250265,,,,,,271126,A,2024-06-27_15h41.57.699,EPIDM,2023.1.2,None,
9594.jpg,1080.jpg,4 Points,4 Points,168 Points,PS1_L3.csv,,,,,,,,,,,,,,,,,,,,,,,,,,,,,0,2,2,2,0,19,19,19,,,,,,,,,,,,,,,,,,,1925.4951200829819,p,0.843162834062241,1926.4147807920817,,,,,,271126,A,2024-06-27_15h41.57.699,EPIDM,2023.1.2,None,
2606.jpg,2480.jpg,1 Point,1 Point,169 Points,PS1_L3.csv,,,,,,,,,,,,,,,,,,,,,,,,,,,,,0,2,2,2,0,20,20,20,,,,,,,,,,,,,,,,,,,1930.6684820830123,p,1.0704931659856811,1931.807127167005,,,,,,271126,A,2024-06-27_15h41.57.699,EPIDM,2023.1.2,None,
1052.jpg,1201.jpg,3 Points,3 Points,172 Points,PS1_L3.csv,,,,,,,,,,,,,,,,,,,,,,,,,,,,,0,2,2,2,0,21,21,21,,,,,,,,,,,,,,,,,,,1936.0670779170468,q,0.5504309999523684,1936.6806881669909,,,,,,271126,A,2024-06-27_15h41.57.699,EPIDM,2023.1.2,None,
F369.jpg,3100.jpg,2 Points,2 Points,174 Points,PS1_L3.csv,,,,,,,,,,,,,,,,,,,,,,,,,,,,,0,2,2,2,0,22,22,22,,,,,,,,,,,,,,,,,,,1940.9260372500867,q,0.5074036660371348,1941.5476788750384,,,,,,271126,A,2024-06-27_15h41.57.699,EPIDM,2023.1.2,None,
2620.jpg,2594.jpg,0 Points,0 Points,174 Points,PS1_L3.csv,,,,,,,,,,,,,,,,,,,,,,,,,,,,,0,2,2,2,0,23,23,23,,,,,,,,,,,,,,,,,,,1945.7613152500708,q,0.6880086250603199,1946.5098301670514,,,1956.9885148750618,space,3.4858413750771433,271126,A,2024-06-27_15h41.57.699,EPIDM,2023.1.2,None,
P019.jpg,F158.jpg,3 Points,3 Points,177 Points,PS1_L4.csv,,,,,,,,,,,,,,,,,,,,,,,,,,,,,0,3,3,3,0,0,0,0,,,,,,,,,,,,,,,,,,,1963.7851559170522,p,0.9681034169625491,1964.884867375018,,,,,,271126,A,2024-06-27_15h41.57.699,EPIDM,2023.1.2,None,
7620.jpg,5395.jpg,1 Point,1 Point,178 Points,PS1_L4.csv,,,,,,,,,,,,,,,,,,,,,,,,,,,,,0,3,3,3,0,1,1,1,,,,,,,,,,,,,,,,,,,1969.0717656670604,q,0.5132989170961082,1969.6820129579864,1,1.4151745829731226,,,,271126,A,2024-06-27_15h41.57.699,EPIDM,2023.1.2,None,
5970.jpg,3300.jpg,0 Points,0 Points,178 Points,PS1_L4.csv,,,,,,,,,,,,,,,,,,,,,,,,,,,,,0,3,3,3,0,2,2,2,,,,,,,,,,,,,,,,,,,1975.367713500047,q,1.1369319170480594,1976.5756260000635,,,,,,271126,A,2024-06-27_15h41.57.699,EPIDM,2023.1.2,None,
5120.jpg,5520.jpg,2 Points,2 Points,180 Points,PS1_L4.csv,,,,,,,,,,,,,,,,,,,,,,,,,,,,,0,3,3,3,0,3,3,3,,,,,,,,,,,,,,,,,,,1980.8296488330234,p,0.603387042065151,1981.5013309579808,,,,,,271126,A,2024-06-27_15h41.57.699,EPIDM,2023.1.2,None,
9452.jpg,7184.jpg,4 Points,4 Points,184 Points,PS1_L4.csv,,,,,,,,,,,,,,,,,,,,,,,,,,,,,0,3,3,3,0,4,4,4,,,,,,,,,,,,,,,,,,,1985.7411912920652,p,0.7244985420256853,1986.5377091669943,,,,,,271126,A,2024-06-27_15h41.57.699,EPIDM,2023.1.2,None,
6570.1.jpg,9432.jpg,5 Points,5 Points,189 Points,PS1_L4.csv,,,,,,,,,,,,,,,,,,,,,,,,,,,,,0,3,3,3,0,5,5,5,,,,,,,,,,,,,,,,,,,1990.774429375073,p,0.7615613751113415,1991.6052333330736,,,,,,271126,A,2024-06-27_15h41.57.699,EPIDM,2023.1.2,None,
2389.jpg,7320.jpg,0 Points,0 Points,189 Points,PS1_L4.csv,,,,,,,,,,,,,,,,,,,,,,,,,,,,,0,3,3,3,0,6,6,6,,,,,,,,,,,,,,,,,,,1995.850961167016,p,0.8852398750605062,1996.8217297500232,,,,,,271126,A,2024-06-27_15h41.57.699,EPIDM,2023.1.2,None,
9330.jpg,3015.jpg,5 Points,5 Points,194 Points,PS1_L4.csv,,,,,,,,,,,,,,,,,,,,,,,,,,,,,0,3,3,3,0,7,7,7,,,,,,,,,,,,,,,,,,,2001.0674521250185,q,0.508831916959025,2001.642614457989,,,,,,271126,A,2024-06-27_15h41.57.699,EPIDM,2023.1.2,None,
9560.jpg,3071.jpg,1 Point,1 Point,195 Points,PS1_L4.csv,,,,,,,,,,,,,,,,,,,,,,,,,,,,,0,3,3,3,0,8,8,8,,,,,,,,,,,,,,,,,,,2005.8840046250261,q,0.4677761250641197,2006.4167948750546,,,,,,271126,A,2024-06-27_15h41.57.699,EPIDM,2023.1.2,None,
5994.jpg,5390.jpg,0 Points,0 Points,195 Points,PS1_L4.csv,,,,,,,,,,,,,,,,,,,,,,,,,,,,,0,3,3,3,0,9,9,9,,,,,,,,,,,,,,,,,,,2010.6597550000297,p,0.94889000011608,2011.668112333049,,,,,,271126,A,2024-06-27_15h41.57.699,EPIDM,2023.1.2,None,
2692.jpg,8231.jpg,4 Points,4 Points,199 Points,PS1_L4.csv,,,,,,,,,,,,,,,,,,,,,,,,,,,,,0,3,3,3,0,10,10,10,,,,,,,,,,,,,,,,,,,2015.9235879579792,q,0.8595995840150863,2016.8445073330076,,,,,,271126,A,2024-06-27_15h41.57.699,EPIDM,2023.1.2,None,
F174.jpg,9404.jpg,5 Points,5 Points,204 Points,PS1_L4.csv,,,,,,,,,,,,,,,,,,,,,,,,,,,,,0,3,3,3,0,11,11,11,,,,,,,,,,,,,,,,,,,2021.1078378329985,p,0.6764959170250222,2021.8928506670054,,,,,,271126,A,2024-06-27_15h41.57.699,EPIDM,2023.1.2,None,
8010.jpg,2630.jpg,0 Points,0 Points,204 Points,PS1_L4.csv,,,,,,,,,,,,,,,,,,,,,,,,,,,,,0,3,3,3,0,12,12,12,,,,,,,,,,,,,,,,,,,2026.1103872080566,p,0.7138834999641404,2026.931985167088,,,,,,271126,A,2024-06-27_15h41.57.699,EPIDM,2023.1.2,None,
7175.jpg,7490.jpg,2 Points,2 Points,206 Points,PS1_L4.csv,,,,,,,,,,,,,,,,,,,,,,,,,,,,,0,3,3,3,0,13,13,13,,,,,,,,,,,,,,,,,,,2031.1458402080461,q,0.4937288750661537,2031.7211235000286,2,1.1175320410402492,,,,271126,A,2024-06-27_15h41.57.699,EPIDM,2023.1.2,None,
6561.jpg,1525.jpg,2 Points,2 Points,208 Points,PS1_L4.csv,,,,,,,,,,,,,,,,,,,,,,,,,,,,,0,3,3,3,0,14,14,14,,,,,,,,,,,,,,,,,,,2037.1593021249864,q,0.9760506249731407,2038.199888167088,,,,,,271126,A,2024-06-27_15h41.57.699,EPIDM,2023.1.2,None,
9070.jpg,9420.jpg,2 Points,2 Points,210 Points,PS1_L4.csv,,,,,,,,,,,,,,,,,,,,,,,,,,,,,0,3,3,3,0,15,15,15,,,,,,,,,,,,,,,,,,,2042.4539257920114,q,0.6104392500128597,2043.1179582080804,,,,,,271126,A,2024-06-27_15h41.57.699,EPIDM,2023.1.2,None,
2516.jpg,8500.jpg,4 Points,4 Points,214 Points,PS1_L4.csv,,,,,,,,,,,,,,,,,,,,,,,,,,,,,0,3,3,3,0,16,16,16,,,,,,,,,,,,,,,,,,,2047.3820746670244,p,0.8492635420989245,2048.306529375026,,,,,,271126,A,2024-06-27_15h41.57.699,EPIDM,2023.1.2,None,
9140.jpg,2810.jpg,3 Points,3 Points,217 Points,PS1_L4.csv,,,,,,,,,,,,,,,,,,,,,,,,,,,,,0,3,3,3,0,17,17,17,,,,,,,,,,,,,,,,,,,2052.5449567079777,p,0.7429176659788936,2053.3559042920824,,,,,,271126,A,2024-06-27_15h41.57.699,EPIDM,2023.1.2,None,
7220.jpg,8090.jpg,2 Points,2 Points,219 Points,PS1_L4.csv,,,,,,,,,,,,,,,,,,,,,,,,,,,,,0,3,3,3,0,18,18,18,,,,,,,,,,,,,,,,,,,2057.611686958,q,0.5868544999975711,2058.262162375031,,,,,,271126,A,2024-06-27_15h41.57.699,EPIDM,2023.1.2,None,
2661.jpg,2870.jpg,5 Points,5 Points,224 Points,PS1_L4.csv,,,,,,,,,,,,,,,,,,,,,,,,,,,,,0,3,3,3,0,19,19,19,,,,,,,,,,,,,,,,,,,2062.516507333028,p,0.8665839999448508,2063.451603042078,,,,,,271126,A,2024-06-27_15h41.57.699,EPIDM,2023.1.2,None,
6010.jpg,7361.jpg,2 Points,2 Points,226 Points,PS1_L4.csv,,,,,,,,,,,,,,,,,,,,,,,,,,,,,0,3,3,3,0,20,20,20,,,,,,,,,,,,,,,,,,,2067.71685562504,q,1.450421666027978,2069.2320818750886,,,,,,271126,A,2024-06-27_15h41.57.699,EPIDM,2023.1.2,None,
7289.jpg,4534.jpg,0 Points,0 Points,226 Points,PS1_L4.csv,,,,,,,,,,,,,,,,,,,,,,,,,,,,,0,3,3,3,0,21,21,21,,,,,,,,,,,,,,,,,,,2073.482343917014,q,0.5639682920882478,2074.117700624978,,,,,,271126,A,2024-06-27_15h41.57.699,EPIDM,2023.1.2,None,
1310.jpg,3181.jpg,4 Points,4 Points,230 Points,PS1_L4.csv,,,,,,,,,,,,,,,,,,,,,,,,,,,,,0,3,3,3,0,22,22,22,,,,,,,,,,,,,,,,,,,2078.3654047920136,p,0.5933008330175653,2079.029503833037,,,,,,271126,A,2024-06-27_15h41.57.699,EPIDM,2023.1.2,None,
2383.jpg,1616.jpg,2 Points,2 Points,232 Points,PS1_L4.csv,,,,,,,,,,,,,,,,,,,,,,,,,,,,,0,3,3,3,0,23,23,23,,,,,,,,,,,,,,,,,,,2083.2783951670863,q,1.2804779161233455,2084.627137833042,,,2095.1185638330644,space,9.504217250039801,271126,A,2024-06-27_15h41.57.699,EPIDM,2023.1.2,None,
4510.jpg,2230.jpg,5 Points,5 Points,237 Points,PS1_L5.csv,,,,,,,,,,,,,,,,,,,,,,,,,,,,,0,4,4,4,0,0,0,0,,,,,,,,,,,,,,,,,,,2107.9512819170486,p,0.8543069160077721,2108.8747451250674,,,,,,271126,A,2024-06-27_15h41.57.699,EPIDM,2023.1.2,None,
A025.jpg,1051.jpg,0 Points,0 Points,237 Points,PS1_L5.csv,,,,,,,,,,,,,,,,,,,,,,,,,,,,,0,4,4,4,0,1,1,1,,,,,,,,,,,,,,,,,,,2113.1279888750287,p,1.3255594170186669,2114.569015291985,0,1.8876340420683846,,,,271126,A,2024-06-27_15h41.57.699,EPIDM,2023.1.2,None,
7002.jpg,4660.jpg,4 Points,4 Points,241 Points,PS1_L5.csv,,,,,,,,,,,,,,,,,,,,,,,,,,,,,0,4,4,4,0,2,2,2,,,,,,,,,,,,,,,,,,,2120.771177125047,q,1.3466019170591608,2122.201390042086,,,,,,271126,A,2024-06-27_15h41.57.699,EPIDM,2023.1.2,None,
2900.jpg,1101.jpg,3 Points,3 Points,244 Points,PS1_L5.csv,,,,,,,,,,,,,,,,,,,,,,,,,,,,,0,4,4,4,0,3,3,3,,,,,,,,,,,,,,,,,,,2126.439948250074,p,1.2289967921096832,2127.7487459999975,,,,,,271126,A,2024-06-27_15h41.57.699,EPIDM,2023.1.2,None,
2485.jpg,7350.jpg,0 Points,0 Points,244 Points,PS1_L5.csv,,,,,,,,,,,,,,,,,,,,,,,,,,,,,0,4,4,4,0,4,4,4,,,,,,,,,,,,,,,,,,,2131.987349458039,p,0.6733171660453081,2132.7395330000436,,,,,,271126,A,2024-06-27_15h41.57.699,EPIDM,2023.1.2,None,
6242.jpg,F034.jpg,4 Points,4 Points,248 Points,PS1_L5.csv,,,,,,,,,,,,,,,,,,,,,,,,,,,,,0,4,4,4,0,5,5,5,,,,,,,,,,,,,,,,,,,2136.9976377080893,q,1.159466000040993,2138.266391208046,,,,,,271126,A,2024-06-27_15h41.57.699,EPIDM,2023.1.2,None,
3170.jpg,6560.jpg,2 Points,2 Points,250 Points,PS1_L5.csv,,,,,,,,,,,,,,,,,,,,,,,,,,,,,0,4,4,4,0,6,6,6,,,,,,,,,,,,,,,,,,,2142.467740333057,p,0.697038417099975,2143.235586417024,,,,,,271126,A,2024-06-27_15h41.57.699,EPIDM,2023.1.2,None,
8033.jpg,7270.jpg,3 Points,3 Points,253 Points,PS1_L5.csv,,,,,,,,,,,,,,,,,,,,,,,,,,,,,0,4,4,4,0,7,7,7,,,,,,,,,,,,,,,,,,,2147.4805595420767,p,0.9158386250492185,2148.464817458065,,,,,,271126,A,2024-06-27_15h41.57.699,EPIDM,2023.1.2,None,
2597.jpg,5870.jpg,5 Points,5 Points,258 Points,PS1_L5.csv,,,,,,,,,,,,,,,,,,,,,,,,,,,,,0,4,4,4,0,8,8,8,,,,,,,,,,,,,,,,,,,2152.713712875033,p,0.7640237089945003,2153.5403530000476,,,,,,271126,A,2024-06-27_15h41.57.699,EPIDM,2023.1.2,None,
6312.jpg,3230.jpg,2 Points,2 Points,260 Points,PS1_L5.csv,,,,,,,,,,,,,,,,,,,,,,,,,,,,,0,4,4,4,0,9,9,9,,,,,,,,,,,,,,,,,,,2157.792895667022,q,1.4432027080329135,2159.3171266670106,,,,,,271126,A,2024-06-27_15h41.57.699,EPIDM,2023.1.2,None,
3130.jpg,3500.jpg,4 Points,4 Points,264 Points,PS1_L5.csv,,,,,,,,,,,,,,,,,,,,,,,,,,,,,0,4,4,4,0,10,10,10,,,,,,,,,,,,,,,,,,,2163.5531873330474,p,0.9245622500311583,2164.5455359170446,,,,,,271126,A,2024-06-27_15h41.57.699,EPIDM,2023.1.2,None,
2749.jpg,7282.jpg,3 Points,3 Points,267 Points,PS1_L5.csv,,,,,,,,,,,,,,,,,,,,,,,,,,,,,0,4,4,4,0,11,11,11,,,,,,,,,,,,,,,,,,,2168.788929417031,p,0.950959625071846,2169.815432708012,,,,,,271126,A,2024-06-27_15h41.57.699,EPIDM,2023.1.2,None,
5300.jpg,2372.jpg,1 Point,1 Point,268 Points,PS1_L5.csv,,,,,,,,,,,,,,,,,,,,,,,,,,,,,0,4,4,4,0,12,12,12,,,,,,,,,,,,,,,,,,,2174.0563657500315,q,0.7318956670351326,2174.867497332976,,,,,,271126,A,2024-06-27_15h41.57.699,EPIDM,2023.1.2,None,
6510.jpg,A074.jpg,2 Points,2 Points,270 Points,PS1_L5.csv,,,,,,,,,,,,,,,,,,,,,,,,,,,,,0,4,4,4,0,13,13,13,,,,,,,,,,,,,,,,,,,2179.1298867500154,q,1.0493501669261605,2180.291197624989,2,3.449518125038594,,,,271126,A,2024-06-27_15h41.57.699,EPIDM,2023.1.2,None,
2260.jpg,2830.jpg,5 Points,5 Points,275 Points,PS1_L5.csv,,,,,,,,,,,,,,,,,,,,,,,,,,,,,0,4,4,4,0,14,14,14,,,,,,,,,,,,,,,,,,,2188.0527695420897,q,1.2704972909996286,2189.4341844579903,,,,,,271126,A,2024-06-27_15h41.57.699,EPIDM,2023.1.2,None,
2710.jpg,9252.jpg,1 Point,1 Point,276 Points,PS1_L5.csv,,,,,,,,,,,,,,,,,,,,,,,,,,,,,0,4,4,4,0,15,15,15,,,,,,,,,,,,,,,,,,,2193.648985250038,q,1.2914040420437232,2195.0150027499767,,,,,,271126,A,2024-06-27_15h41.57.699,EPIDM,2023.1.2,None,
3064.jpg,3168.jpg,4 Points,4 Points,280 Points,PS1_L5.csv,,,,,,,,,,,,,,,,,,,,,,,,,,,,,0,4,4,4,0,16,16,16,,,,,,,,,,,,,,,,,,,2199.2556740830187,p,1.1722035830607638,2200.4947242080234,,,,,,271126,A,2024-06-27_15h41.57.699,EPIDM,2023.1.2,None,
1640.jpg,5531.jpg,3 Points,3 Points,283 Points,PS1_L5.csv,,,,,,,,,,,,,,,,,,,,,,,,,,,,,0,4,4,4,0,17,17,17,,,,,,,,,,,,,,,,,,,2204.7416360829957,q,0.49444191704969853,2205.306437249994,,,,,,271126,A,2024-06-27_15h41.57.699,EPIDM,2023.1.2,None,
3530.jpg,6213.jpg,1 Point,1 Point,284 Points,PS1_L5.csv,,,,,,,,,,,,,,,,,,,,,,,,,,,,,0,4,4,4,0,18,18,18,,,,,,,,,,,,,,,,,,,2209.556296875002,p,0.9118094169534743,2210.538759957999,,,,,,271126,A,2024-06-27_15h41.57.699,EPIDM,2023.1.2,None,
9090.jpg,7580.jpg,3 Points,3 Points,287 Points,PS1_L5.csv,,,,,,,,,,,,,,,,,,,,,,,,,,,,,0,4,4,4,0,19,19,19,,,,,,,,,,,,,,,,,,,2214.785241500009,p,1.386225500027649,2216.246358875069,,,,,,271126,A,2024-06-27_15h41.57.699,EPIDM,2023.1.2,None,
8230.jpg,2682.jpg,5 Points,5 Points,292 Points,PS1_L5.csv,,,,,,,,,,,,,,,,,,,,,,,,,,,,,0,4,4,4,0,20,20,20,,,,,,,,,,,,,,,,,,,2220.4914678330533,p,0.5198481670813635,2221.0841772080166,,,,,,271126,A,2024-06-27_15h41.57.699,EPIDM,2023.1.2,None,
9592.jpg,1300.jpg,2 Points,2 Points,294 Points,PS1_L5.csv,,,,,,,,,,,,,,,,,,,,,,,,,,,,,0,4,4,4,0,21,21,21,,,,,,,,,,,,,,,,,,,2225.3252006670227,q,0.6132405829848722,2226.0086666670395,,,,,,271126,A,2024-06-27_15h41.57.699,EPIDM,2023.1.2,None,
2490.jpg,2590.jpg,4 Points,4 Points,298 Points,PS1_L5.csv,,,,,,,,,,,,,,,,,,,,,,,,,,,,,0,4,4,4,0,22,22,22,,,,,,,,,,,,,,,,,,,2230.26174908306,q,0.6212374999886379,2230.9458152920706,,,,,,271126,A,2024-06-27_15h41.57.699,EPIDM,2023.1.2,None,
2190.jpg,7503.jpg,2 Points,2 Points,300 Points,PS1_L5.csv,,,,,,,,,,,,,,,,,,,,,,,,,,,,,0,4,4,4,0,23,23,23,,,,,,,,,,,,,,,,,,,2235.198132166988,q,0.8608114999951795,2236.1293948750244,,,2246.608520708047,space,1.0261767499614507,271126,A,2024-06-27_15h41.57.699,EPIDM,2023.1.2,None,
1930.jpg,9008.jpg,1 Point,1 Point,301 Points,PS1_L6.csv,,,,,,,,,,,,,,,,,,,,,,,,,,,,,0,5,5,5,0,0,0,0,,,,,,,,,,,,,,,,,,,2250.9542030830635,q,0.9122519999509677,2251.946921291994,,,,,,271126,A,2024-06-27_15h41.57.699,EPIDM,2023.1.2,None,
4613.jpg,2720.jpg,4 Points,4 Points,305 Points,PS1_L6.csv,,,,,,,,,,,,,,,,,,,,,,,,,,,,,0,5,5,5,0,1,1,1,,,,,,,,,,,,,,,,,,,2256.1877347080735,q,1.1342847499763593,2257.4022352499887,4,1.7173679999541491,,,,271126,A,2024-06-27_15h41.57.699,EPIDM,2023.1.2,None,
3280.jpg,9270.jpg,0 Points,0 Points,305 Points,PS1_L6.csv,,,,,,,,,,,,,,,,,,,,,,,,,,,,,0,5,5,5,0,2,2,2,,,,,,,,,,,,,,,,,,,2263.4312491250457,q,0.9869250829797238,2264.48416720808,,,,,,271126,A,2024-06-27_15h41.57.699,EPIDM,2023.1.2,None,
6800.jpg,9190.jpg,0 Points,0 Points,305 Points,PS1_L6.csv,,,,,,,,,,,,,,,,,,,,,,,,,,,,,0,5,5,5,0,3,3,3,,,,,,,,,,,,,,,,,,,2268.7343085000757,q,1.1955856250133365,2269.996256457991,,,,,,271126,A,2024-06-27_15h41.57.699,EPIDM,2023.1.2,None,
5600.jpg,9080.jpg,5 Points,5 Points,310 Points,PS1_L6.csv,,,,,,,,,,,,,,,,,,,,,,,,,,,,,0,5,5,5,0,4,4,4,,,,,,,,,,,,,,,,,,,2274.247382625006,q,0.8742628330364823,2275.2003035420785,,,,,,271126,A,2024-06-27_15h41.57.699,EPIDM,2023.1.2,None,
P211.jpg,9041.jpg,4 Points,4 Points,314 Points,PS1_L6.csv,,,,,,,,,,,,,,,,,,,,,,,,,,,,,0,5,5,5,0,5,5,5,,,,,,,,,,,,,,,,,,,2279.4477360830642,p,0.8437081250594929,2280.407213917002,,,,,,271126,A,2024-06-27_15h41.57.699,EPIDM,2023.1.2,None,
5200.jpg,5020.jpg,0 Points,0 Points,314 Points,PS1_L6.csv,,,,,,,,,,,,,,,,,,,,,,,,,,,,,0,5,5,5,0,6,6,6,,,,,,,,,,,,,,,,,,,2284.614287332981,q,0.9001564580248669,2285.5923750420334,,,,,,271126,A,2024-06-27_15h41.57.699,EPIDM,2023.1.2,None,
1850.jpg,5623.jpg,5 Points,5 Points,319 Points,PS1_L6.csv,,,,,,,,,,,,,,,,,,,,,,,,,,,,,0,5,5,5,0,7,7,7,,,,,,,,,,,,,,,,,,,2289.8604573330376,q,0.8307736250571907,2290.7528172919992,,,,,,271126,A,2024-06-27_15h41.57.699,EPIDM,2023.1.2,None,
9440.jpg,6350.jpg,4 Points,4 Points,323 Points,PS1_L6.csv,,,,,,,,,,,,,,,,,,,,,,,,,,,,,0,5,5,5,0,8,8,8,,,,,,,,,,,,,,,,,,,2295.0013909580885,p,1.464621709077619,2296.5234753750265,,,,,,271126,A,2024-06-27_15h41.57.699,EPIDM,2023.1.2,None,
5990.jpg,5780.jpg,3 Points,3 Points,326 Points,PS1_L6.csv,,,,,,,,,,,,,,,,,,,,,,,,,,,,,0,5,5,5,0,9,9,9,,,,,,,,,,,,,,,,,,,2300.7833570829825,q,1.0902723331237212,2301.9447902920656,,,,,,271126,A,2024-06-27_15h41.57.699,EPIDM,2023.1.2,None,
6244.jpg,9265.jpg,0 Points,0 Points,326 Points,PS1_L6.csv,,,,,,,,,,,,,,,,,,,,,,,,,,,,,0,5,5,5,0,10,10,10,,,,,,,,,,,,,,,,,,,2306.1996083330596,q,1.01761120907031,2307.283527957974,,,,,,271126,A,2024-06-27_15h41.57.699,EPIDM,2023.1.2,None,
5000.jpg,8180.jpg,4 Points,4 Points,330 Points,PS1_L6.csv,,,,,,,,,,,,,,,,,,,,,,,,,,,,,0,5,5,5,0,11,11,11,,,,,,,,,,,,,,,,,,,2311.5426417080453,q,1.0579857080010697,2312.6790064580273,,,,,,271126,A,2024-06-27_15h41.57.699,EPIDM,2023.1.2,None,
5982.jpg,5260.jpg,5 Points,5 Points,335 Points,PS1_L6.csv,,,,,,,,,,,,,,,,,,,,,,,,,,,,,0,5,5,5,0,12,12,12,,,,,,,,,,,,,,,,,,,2316.916459292057,p,0.8761433750623837,2317.87305670802,,,,,,271126,A,2024-06-27_15h41.57.699,EPIDM,2023.1.2,None,
1301.jpg,1070.jpg,2 Points,2 Points,337 Points,PS1_L6.csv,,,,,,,,,,,,,,,,,,,,,,,,,,,,,0,5,5,5,0,13,13,13,,,,,,,,,,,,,,,,,,,2322.1134104169905,p,0.7194817500421777,2322.9042067080736,2,2.306607792037539,,,,271126,A,2024-06-27_15h41.57.699,EPIDM,2023.1.2,None,
7920.jpg,9102.jpg,3 Points,3 Points,340 Points,PS1_L6.csv,,,,,,,,,,,,,,,,,,,,,,,,,,,,,0,5,5,5,0,14,14,14,,,,,,,,,,,,,,,,,,,2329.517779958085,p,1.091283084009774,2330.697982750018,,,,,,271126,A,2024-06-27_15h41.57.699,EPIDM,2023.1.2,None,
5455.jpg,5220.jpg,0 Points,0 Points,340 Points,PS1_L6.csv,,,,,,,,,,,,,,,,,,,,,,,,,,,,,0,5,5,5,0,15,15,15,,,,,,,,,,,,,,,,,,,2334.939041125006,p,1.3169355830177665,2336.330652625067,,,,,,271126,A,2024-06-27_15h41.57.699,EPIDM,2023.1.2,None,
3350.jpg,3210.jpg,1 Point,1 Point,341 Points,PS1_L6.csv,,,,,,,,,,,,,,,,,,,,,,,,,,,,,0,5,5,5,0,16,16,16,,,,,,,,,,,,,,,,,,,2340.5739964999957,p,0.9222566660027951,2341.548779833014,,,,,,271126,A,2024-06-27_15h41.57.699,EPIDM,2023.1.2,None,
2560.jpg,5270.jpg,4 Points,4 Points,345 Points,PS1_L6.csv,,,,,,,,,,,,,,,,,,,,,,,,,,,,,0,5,5,5,0,17,17,17,,,,,,,,,,,,,,,,,,,2345.8124567919876,p,0.6936058329883963,2346.5795776250307,,,,,,271126,A,2024-06-27_15h41.57.699,EPIDM,2023.1.2,None,
9584.jpg,3400.jpg,2 Points,2 Points,347 Points,PS1_L6.csv,,,,,,,,,,,,,,,,,,,,,,,,,,,,,0,5,5,5,0,18,18,18,,,,,,,,,,,,,,,,,,,2350.8249789580004,q,0.5905440830392763,2351.487351458054,,,,,,271126,A,2024-06-27_15h41.57.699,EPIDM,2023.1.2,None,
5760.jpg,1602.jpg,1 Point,1 Point,348 Points,PS1_L6.csv,,,,,,,,,,,,,,,,,,,,,,,,,,,,,0,5,5,5,0,19,19,19,,,,,,,,,,,,,,,,,,,2355.7414546250366,q,0.4430548750096932,2356.241796792019,,,,,,271126,A,2024-06-27_15h41.57.699,EPIDM,2023.1.2,None,
7230.jpg,7570.jpg,5 Points,5 Points,353 Points,PS1_L6.csv,,,,,,,,,,,,,,,,,,,,,,,,,,,,,0,5,5,5,0,20,20,20,,,,,,,,,,,,,,,,,,,2360.505799042061,p,0.9835872079711407,2361.563340957975,,,,,,271126,A,2024-06-27_15h41.57.699,EPIDM,2023.1.2,None,
1022.jpg,6930.jpg,1 Point,1 Point,354 Points,PS1_L6.csv,,,,,,,,,,,,,,,,,,,,,,,,,,,,,0,5,5,5,0,21,21,21,,,,,,,,,,,,,,,,,,,2365.8083914170275,p,1.1189759580884129,2367.004114874988,,,,,,271126,A,2024-06-27_15h41.57.699,EPIDM,2023.1.2,None,
8340.jpg,7546.jpg,2 Points,2 Points,356 Points,PS1_L6.csv,,,,,,,,,,,,,,,,,,,,,,,,,,,,,0,5,5,5,0,22,22,22,,,,,,,,,,,,,,,,,,,2371.249503750005,p,0.5497243329882622,2371.868127249996,,,,,,271126,A,2024-06-27_15h41.57.699,EPIDM,2023.1.2,None,
6243.jpg,2752.jpg,2 Points,2 Points,358 Points,PS1_L6.csv,,,,,,,,,,,,,,,,,,,,,,,,,,,,,0,5,5,5,0,23,23,23,,,,,,,,,,,,,,,,,,,2376.116686250083,p,1.2108949579996988,2377.400444000028,,,2387.876688292017,space,2.1619290420785546,271126,A,2024-06-27_15h41.57.699,EPIDM,2023.1.2,None,
7280.jpg,7160.jpg,0 Points,0 Points,358 Points,PS1_L7.csv,,,,,,,,,,,,,,,,,,,,,,,,,,,,,0,6,6,6,0,0,0,0,,,,,,,,,,,,,,,,,,,2393.3570749170613,q,1.2339696250855923,2394.675324083073,,,,,,271126,A,2024-06-27_15h41.57.699,EPIDM,2023.1.2,None,
2580.jpg,8300.jpg,3 Points,3 Points,361 Points,PS1_L7.csv,,,,,,,,,,,,,,,,,,,,,,,,,,,,,0,6,6,6,0,1,1,1,,,,,,,,,,,,,,,,,,,2398.910912292078,p,0.8317777090705931,2399.8237425420666,3,1.4273601250024512,,,,271126,A,2024-06-27_15h41.57.699,EPIDM,2023.1.2,None,
5972.jpg,6838.jpg,5 Points,5 Points,366 Points,PS1_L7.csv,,,,,,,,,,,,,,,,,,,,,,,,,,,,,0,6,6,6,0,2,2,2,,,,,,,,,,,,,,,,,,,2405.5640808329917,p,1.113901042030193,2406.7483556669904,,,,,,271126,A,2024-06-27_15h41.57.699,EPIDM,2023.1.2,None,
5621.jpg,5534.jpg,3 Points,3 Points,369 Points,PS1_L7.csv,,,,,,,,,,,,,,,,,,,,,,,,,,,,,0,6,6,6,0,3,3,3,,,,,,,,,,,,,,,,,,,2411.0007009999827,q,0.637555833091028,2411.716101124999,,,,,,271126,A,2024-06-27_15h41.57.699,EPIDM,2023.1.2,None,
8480.jpg,6410.jpg,1 Point,1 Point,370 Points,PS1_L7.csv,,,,,,,,,,,,,,,,,,,,,,,,,,,,,0,6,6,6,0,4,4,4,,,,,,,,,,,,,,,,,,,2415.9640109579777,p,0.7698758330661803,2416.799399874988,,,,,,271126,A,2024-06-27_15h41.57.699,EPIDM,2023.1.2,None,
2702.jpg,1590.jpg,5 Points,5 Points,375 Points,PS1_L7.csv,,,,,,,,,,,,,,,,,,,,,,,,,,,,,0,6,6,6,0,5,5,5,,,,,,,,,,,,,,,,,,,2421.0539542920887,p,1.1844636669848114,2422.3131899579894,,,,,,271126,A,2024-06-27_15h41.57.699,EPIDM,2023.1.2,None,
1275.jpg,3150.jpg,1 Point,1 Point,376 Points,PS1_L7.csv,,,,,,,,,,,,,,,,,,,,,,,,,,,,,0,6,6,6,0,6,6,6,,,,,,,,,,,,,,,,,,,2426.5567271250766,q,1.03324470797088,2427.669682124979,,,,,,271126,A,2024-06-27_15h41.57.699,EPIDM,2023.1.2,None,
1910.jpg,2575.jpg,2 Points,2 Points,378 Points,PS1_L7.csv,,,,,,,,,,,,,,,,,,,,,,,,,,,,,0,6,6,6,0,7,7,7,,,,,,,,,,,,,,,,,,,2431.9192913330626,q,0.9580499170115218,2432.9408698750194,,,,,,271126,A,2024-06-27_15h41.57.699,EPIDM,2023.1.2,None,
2518.jpg,2381.jpg,1 Point,1 Point,382 Points,PS1_L7.csv,,,,,,,,,,,,,,,,,,,,,,,,,,,,,0,6,6,6,0,8,8,8,,,,,,,,,,,,,,,,,,,2437.1987237080466,p,0.8790538749890402,2438.141369958059,,,,,,271126,A,2024-06-27_15h41.57.699,EPIDM,2023.1.2,None,
6250.1.jpg,3301.jpg,0 Points,0 Points,382 Points,PS1_L7.csv,,,,,,,,,,,,,,,,,,,,,,,,,,,,,0,6,6,6,0,9,9,9,,,,,,,,,,,,,,,,,,,2442.406638125074,q,0.9664289170177653,2443.434577167034,,,,,,271126,A,2024-06-27_15h41.57.699,EPIDM,2023.1.2,None,
7234.jpg,5533.jpg,3 Points,3 Points,385 Points,PS1_L7.csv,,,,,,,,,,,,,,,,,,,,,,,,,,,,,0,6,6,6,0,10,10,10,,,,,,,,,,,,,,,,,,,2447.6821946670534,p,0.7956577920122072,2448.558769916999,,,,,,271126,A,2024-06-27_15h41.57.699,EPIDM,2023.1.2,None,
9920.jpg,3068.jpg,5 Points,5 Points,390 Points,PS1_L7.csv,,,,,,,,,,,,,,,,,,,,,,,,,,,,,0,6,6,6,0,11,11,11,,,,,,,,,,,,,,,,,,,2452.805959874997,q,0.6802754170494154,2453.558146167081,,,,,,271126,A,2024-06-27_15h41.57.699,EPIDM,2023.1.2,None,
3022.jpg,2352.2.jpg,0 Points,0 Points,390 Points,PS1_L7.csv,,,,,,,,,,,,,,,,,,,,,,,,,,,,,0,6,6,6,0,12,12,12,,,,,,,,,,,,,,,,,,,2457.802294125082,q,0.7306905831210315,2458.6028439580696,,,,,,271126,A,2024-06-27_15h41.57.699,EPIDM,2023.1.2,None,
8250.jpg,1313.jpg,4 Points,4 Points,394 Points,PS1_L7.csv,,,,,,,,,,,,,,,,,,,,,,,,,,,,,0,6,6,6,0,13,13,13,,,,,,,,,,,,,,,,,,,2462.848529375042,q,0.6130989169469103,2463.54838237504,4,1.519529875018634,,,,271126,A,2024-06-27_15h41.57.699,EPIDM,2023.1.2,None,
2690.jpg,9360.jpg,1 Point,1 Point,395 Points,PS1_L7.csv,,,,,,,,,,,,,,,,,,,,,,,,,,,,,0,6,6,6,0,14,14,14,,,,,,,,,,,,,,,,,,,2469.406109958072,p,1.0871094590984285,2470.56602329202,,,,,,271126,A,2024-06-27_15h41.57.699,EPIDM,2023.1.2,None,
9570.jpg,6610.jpg,0 Points,0 Points,395 Points,PS1_L7.csv,,,,,,,,,,,,,,,,,,,,,,,,,,,,,0,6,6,6,0,15,15,15,,,,,,,,,,,,,,,,,,,2474.81714262499,p,1.0600042500300333,2475.9479813750368,,,,,,271126,A,2024-06-27_15h41.57.699,EPIDM,2023.1.2,None,
3110.jpg,9000.jpg,4 Points,4 Points,399 Points,PS1_L7.csv,,,,,,,,,,,,,,,,,,,,,,,,,,,,,0,6,6,6,0,16,16,16,,,,,,,,,,,,,,,,,,,2480.197069542017,p,0.8631164580583572,2481.1235354170203,,,,,,271126,A,2024-06-27_15h41.57.699,EPIDM,2023.1.2,None,
8465.jpg,8400.jpg,1 Point,1 Point,400 Points,PS1_L7.csv,,,,,,,,,,,,,,,,,,,,,,,,,,,,,0,6,6,6,0,17,17,17,,,,,,,,,,,,,,,,,,,2485.382715250016,p,1.2948736669495702,2486.7482613750035,,,,,,271126,A,2024-06-27_15h41.57.699,EPIDM,2023.1.2,None,
1540.jpg,2600.jpg,1 Point,1 Point,401 Points,PS1_L7.csv,,,,,,,,,,,,,,,,,,,,,,,,,,,,,0,6,6,6,0,18,18,18,,,,,,,,,,,,,,,,,,,2490.9971517079975,q,0.47912641696166247,2491.5423811670626,,,,,,271126,A,2024-06-27_15h41.57.699,EPIDM,2023.1.2,None,
2276.jpg,6540.jpg,3 Points,3 Points,404 Points,PS1_L7.csv,,,,,,,,,,,,,,,,,,,,,,,,,,,,,0,6,6,6,0,19,19,19,,,,,,,,,,,,,,,,,,,2495.796599082998,q,1.6396889170864597,2497.5028509170515,,,,,,271126,A,2024-06-27_15h41.57.699,EPIDM,2023.1.2,None,
5030.jpg,1670.jpg,3 Points,3 Points,407 Points,PS1_L7.csv,,,,,,,,,,,,,,,,,,,,,,,,,,,,,0,6,6,6,0,20,20,20,,,,,,,,,,,,,,,,,,,2501.751676792046,p,0.7091768749523908,2502.5281282500364,,,,,,271126,A,2024-06-27_15h41.57.699,EPIDM,2023.1.2,None,
9040.jpg,1120.jpg,3 Points,3 Points,410 Points,PS1_L7.csv,,,,,,,,,,,,,,,,,,,,,,,,,,,,,0,6,6,6,0,21,21,21,,,,,,,,,,,,,,,,,,,2506.7818762500538,p,0.9663823749870062,2507.819765500026,,,,,,271126,A,2024-06-27_15h41.57.699,EPIDM,2023.1.2,None,
3220.jpg,3063.jpg,5 Points,5 Points,415 Points,PS1_L7.csv,,,,,,,,,,,,,,,,,,,,,,,,,,,,,0,6,6,6,0,22,22,22,,,,,,,,,,,,,,,,,,,2512.067693124991,q,0.4491630410775542,2512.5778868750203,,,,,,271126,A,2024-06-27_15h41.57.699,EPIDM,2023.1.2,None,
8117.jpg,2880.jpg,5 Points,5 Points,420 Points,PS1_L7.csv,,,,,,,,,,,,,,,,,,,,,,,,,,,,,0,6,6,6,0,23,23,23,,,,,,,,,,,,,,,,,,,2516.833790375036,q,0.4173587500117719,2517.3269080000464,,,2527.789181082975,space,6.086246915976517,271126,A,2024-06-27_15h41.57.699,EPIDM,2023.1.2,None,
4274.jpg,8160.jpg,2 Points,2 Points,422 Points,PS1_L8.csv,,,,,,,,,,,,,,,,,,,,,,,,,,,,,0,7,7,7,0,0,0,0,,,,,,,,,,,,,,,,,,,2537.1939355829963,p,2.0175042500486597,2539.2814717500005,,,,,,271126,A,2024-06-27_15h41.57.699,EPIDM,2023.1.2,None,
6314.jpg,O022.jpg,2 Points,2 Points,424 Points,PS1_L8.csv,,,,,,,,,,,,,,,,,,,,,,,,,,,,,0,7,7,7,0,1,1,1,,,,,,,,,,,,,,,,,,,2543.5288307500305,q,0.3621167920064181,2543.996276458027,2,0.9921439581084996,,,,271126,A,2024-06-27_15h41.57.699,EPIDM,2023.1.2,None,
1560.jpg,8185.jpg,0 Points,0 Points,424 Points,PS1_L8.csv,,,,,,,,,,,,,,,,,,,,,,,,,,,,,0,7,7,7,0,2,2,2,,,,,,,,,,,,,,,,,,,2549.31355720805,q,0.7713800830533728,2550.1918192920275,,,,,,271126,A,2024-06-27_15h41.57.699,EPIDM,2023.1.2,None,
2850.jpg,4532.jpg,3 Points,3 Points,427 Points,PS1_L8.csv,,,,,,,,,,,,,,,,,,,,,,,,,,,,,0,7,7,7,0,3,3,3,,,,,,,,,,,,,,,,,,,2554.4033928330755,q,0.8230617920635268,2555.2946300420444,,,,,,271126,A,2024-06-27_15h41.57.699,EPIDM,2023.1.2,None,
1390.jpg,9421.jpg,2 Points,2 Points,429 Points,PS1_L8.csv,,,,,,,,,,,,,,,,,,,,,,,,,,,,,0,7,7,7,0,4,4,4,,,,,,,,,,,,,,,,,,,2559.5494971250882,q,0.6213378329994157,2560.238256542012,,,,,,271126,A,2024-06-27_15h41.57.699,EPIDM,2023.1.2,None,
9800.jpg,9433.jpg,1 Point,1 Point,430 Points,PS1_L8.csv,,,,,,,,,,,,,,,,,,,,,,,,,,,,,0,7,7,7,0,5,5,5,,,,,,,,,,,,,,,,,,,2564.4816798330285,q,0.49742970801889896,2565.0460556250764,,,,,,271126,A,2024-06-27_15h41.57.699,EPIDM,2023.1.2,None,
8161.jpg,1900.jpg,4 Points,4 Points,434 Points,PS1_L8.csv,,,,,,,,,,,,,,,,,,,,,,,,,,,,,0,7,7,7,0,6,6,6,,,,,,,,,,,,,,,,,,,2569.300788875087,p,0.8380422500194982,2570.2142389169894,,,,,,271126,A,2024-06-27_15h41.57.699,EPIDM,2023.1.2,None,
1112.jpg,6230.jpg,3 Points,3 Points,437 Points,PS1_L8.csv,,,,,,,,,,,,,,,,,,,,,,,,,,,,,0,7,7,7,0,7,7,7,,,,,,,,,,,,,,,,,,,2574.4635813330533,q,0.41059937502723187,2574.940471125068,,,,,,271126,A,2024-06-27_15h41.57.699,EPIDM,2023.1.2,None,
1111.jpg,1040.jpg,0 Points,0 Points,437 Points,PS1_L8.csv,,,,,,,,,,,,,,,,,,,,,,,,,,,,,0,7,7,7,0,8,8,8,,,,,,,,,,,,,,,,,,,2579.195516832988,p,1.0474173750262707,2580.3179984580493,,,,,,271126,A,2024-06-27_15h41.57.699,EPIDM,2023.1.2,None,
5622.jpg,9156.jpg,4 Points,4 Points,441 Points,PS1_L8.csv,,,,,,,,,,,,,,,,,,,,,,,,,,,,,0,7,7,7,0,9,9,9,,,,,,,,,,,,,,,,,,,2584.5593296249863,q,0.5550514169735834,2585.1897619169904,,,,,,271126,A,2024-06-27_15h41.57.699,EPIDM,2023.1.2,None,
2681.jpg,7100.jpg,3 Points,3 Points,444 Points,PS1_L8.csv,,,,,,,,,,,,,,,,,,,,,,,,,,,,,0,7,7,7,0,10,10,10,,,,,,,,,,,,,,,,,,,2589.429900750052,q,0.6999664170434698,2590.2017529580044,,,,,,271126,A,2024-06-27_15h41.57.699,EPIDM,2023.1.2,None,
6821.jpg,9622.jpg,2 Points,2 Points,446 Points,PS1_L8.csv,,,,,,,,,,,,,,,,,,,,,,,,,,,,,0,7,7,7,0,11,11,11,,,,,,,,,,,,,,,,,,,2594.452248833026,q,0.7984082080656663,2595.30701854208,,,,,,271126,A,2024-06-27_15h41.57.699,EPIDM,2023.1.2,None,
9490.jpg,9210.jpg,1 Point,1 Point,447 Points,PS1_L8.csv,,,,,,,,,,,,,,,,,,,,,,,,,,,,,0,7,7,7,0,12,12,12,,,,,,,,,,,,,,,,,,,2599.5647233750205,p,0.5325458750594407,2600.157476458,,,,,,271126,A,2024-06-27_15h41.57.699,EPIDM,2023.1.2,None,
4605.jpg,1510.jpg,4 Points,4 Points,451 Points,PS1_L8.csv,,,,,,,,,,,,,,,,,,,,,,,,,,,,,0,7,7,7,0,13,13,13,,,,,,,,,,,,,,,,,,,2604.422806458082,q,0.539570250082761,2605.025507958024,4,1.3852420420153067,,,,271126,A,2024-06-27_15h41.57.699,EPIDM,2023.1.2,None,
2240.jpg,5010.jpg,5 Points,5 Points,456 Points,PS1_L8.csv,,,,,,,,,,,,,,,,,,,,,,,,,,,,,0,7,7,7,0,14,14,14,,,,,,,,,,,,,,,,,,,2610.7348847499816,p,0.8900616250466555,2611.701028625015,,,,,,271126,A,2024-06-27_15h41.57.699,EPIDM,2023.1.2,None,
3102.jpg,F032.jpg,1 Point,1 Point,457 Points,PS1_L8.csv,,,,,,,,,,,,,,,,,,,,,,,,,,,,,0,7,7,7,0,15,15,15,,,,,,,,,,,,,,,,,,,2615.9515542080626,p,0.6340639590052888,2616.6917838330846,,,,,,271126,A,2024-06-27_15h41.57.699,EPIDM,2023.1.2,None,
4100.jpg,6570.2.jpg,3 Points,3 Points,460 Points,PS1_L8.csv,,,,,,,,,,,,,,,,,,,,,,,,,,,,,0,7,7,7,0,16,16,16,,,,,,,,,,,,,,,,,,,2620.90160333307,q,0.8433849590364844,2621.8536726670573,,,,,,271126,A,2024-06-27_15h41.57.699,EPIDM,2023.1.2,None,
2650.jpg,4531.jpg,5 Points,5 Points,465 Points,PS1_L8.csv,,,,,,,,,,,,,,,,,,,,,,,,,,,,,0,7,7,7,0,17,17,17,,,,,,,,,,,,,,,,,,,2626.064668625011,p,0.8239330000942573,2626.9635929580545,,,,,,271126,A,2024-06-27_15h41.57.699,EPIDM,2023.1.2,None,
9320.jpg,9007.jpg,0 Points,0 Points,465 Points,PS1_L8.csv,,,,,,,,,,,,,,,,,,,,,,,,,,,,,0,7,7,7,0,18,18,18,,,,,,,,,,,,,,,,,,,2631.2014917080523,p,0.6555414580507204,2631.9321329169907,,,,,,271126,A,2024-06-27_15h41.57.699,EPIDM,2023.1.2,None,
8460.jpg,8330.jpg,0 Points,0 Points,465 Points,PS1_L8.csv,,,,,,,,,,,,,,,,,,,,,,,,,,,,,0,7,7,7,0,19,19,19,,,,,,,,,,,,,,,,,,,2636.1713916250737,p,0.8617790410062298,2637.1005365420133,,,,,,271126,A,2024-06-27_15h41.57.699,EPIDM,2023.1.2,None,
2570.jpg,5500.jpg,3 Points,3 Points,468 Points,PS1_L8.csv,,,,,,,,,,,,,,,,,,,,,,,,,,,,,0,7,7,7,0,20,20,20,,,,,,,,,,,,,,,,,,,2641.355085417046,q,0.8142235419945791,2642.231202666997,,,,,,271126,A,2024-06-27_15h41.57.699,EPIDM,2023.1.2,None,
6190.jpg,3120.jpg,5 Points,5 Points,473 Points,PS1_L8.csv,,,,,,,,,,,,,,,,,,,,,,,,,,,,,0,7,7,7,0,21,21,21,,,,,,,,,,,,,,,,,,,2646.47826404206,q,0.5544882910326123,2647.117745417054,,,,,,271126,A,2024-06-27_15h41.57.699,EPIDM,2023.1.2,None,
2200.jpg,4598.jpg,1 Point,1 Point,474 Points,PS1_L8.csv,,,,,,,,,,,,,,,,,,,,,,,,,,,,,0,7,7,7,0,22,22,22,,,,,,,,,,,,,,,,,,,2651.3575079169823,q,0.8199718330288306,2652.257681958028,,,,,,271126,A,2024-06-27_15h41.57.699,EPIDM,2023.1.2,None,
1303.jpg,2000.jpg,0 Points,0 Points,474 Points,PS1_L8.csv,,,,,,,,,,,,,,,,,,,,,,,,,,,,,0,7,7,7,0,23,23,23,,,,,,,,,,,,,,,,,,,2656.50021437509,q,0.6675499579869211,2657.2421219580574,,,2667.69367399998,space,0.7943290419643745,271126,A,2024-06-27_15h41.57.699,EPIDM,2023.1.2,None,
9010.jpg,9253.jpg,0 Points,0 Points,474 Points,PS1_L9.csv,,,,,,,,,,,,,,,,,,,,,,,,,,,,,0,8,8,8,0,0,0,0,,,,,,,,,,,,,,,,,,,2671.793930832995,q,0.5502073330571875,2672.413776792004,,,,,,271126,A,2024-06-27_15h41.57.699,EPIDM,2023.1.2,None,
1302.jpg,2700.jpg,3 Points,3 Points,477 Points,PS1_L9.csv,,,,,,,,,,,,,,,,,,,,,,,,,,,,,0,8,8,8,0,1,1,1,,,,,,,,,,,,,,,,,,,2676.660787000088,q,0.7234568750718608,2677.4589412080823,3,1.3630660839844495,,,,271126,A,2024-06-27_15h41.57.699,EPIDM,2023.1.2,None,
2030.jpg,2495.jpg,0 Points,0 Points,477 Points,PS1_L9.csv,,,,,,,,,,,,,,,,,,,,,,,,,,,,,0,8,8,8,0,2,2,2,,,,,,,,,,,,,,,,,,,2683.140509542078,q,0.7475518330466002,2683.9607574580004,,,,,,271126,A,2024-06-27_15h41.57.699,EPIDM,2023.1.2,None,
2110.jpg,7260.jpg,5 Points,5 Points,482 Points,PS1_L9.csv,,,,,,,,,,,,,,,,,,,,,,,,,,,,,0,8,8,8,0,3,3,3,,,,,,,,,,,,,,,,,,,2688.2034722920507,p,0.6041665830416605,2688.885231500026,,,,,,271126,A,2024-06-27_15h41.57.699,EPIDM,2023.1.2,None,
2053.jpg,9415.jpg,4 Points,4 Points,486 Points,PS1_L9.csv,,,,,,,,,,,,,,,,,,,,,,,,,,,,,0,8,8,8,0,4,4,4,,,,,,,,,,,,,,,,,,,2693.1328652080847,p,0.9216015000129119,2694.1275871670805,,,,,,271126,A,2024-06-27_15h41.57.699,EPIDM,2023.1.2,None,
6211.jpg,9611.jpg,3 Points,3 Points,489 Points,PS1_L9.csv,,,,,,,,,,,,,,,,,,,,,,,,,,,,,0,8,8,8,0,5,5,5,,,,,,,,,,,,,,,,,,,2698.3791462080553,p,0.908568250015378,2699.344063000055,,,,,,271126,A,2024-06-27_15h41.57.699,EPIDM,2023.1.2,None,
8350.jpg,7190.jpg,5 Points,5 Points,494 Points,PS1_L9.csv,,,,,,,,,,,,,,,,,,,,,,,,,,,,,0,8,8,8,0,6,6,6,,,,,,,,,,,,,,,,,,,2703.5966055419995,p,0.7707491669571027,2704.43823704205,,,,,,271126,A,2024-06-27_15h41.57.699,EPIDM,2023.1.2,None,
9340.jpg,6910.jpg,0 Points,0 Points,494 Points,PS1_L9.csv,,,,,,,,,,,,,,,,,,,,,,,,,,,,,0,8,8,8,0,7,7,7,,,,,,,,,,,,,,,,,,,2708.679554000031,p,0.9519161659991369,2709.7026084579993,,,,,,271126,A,2024-06-27_15h41.57.699,EPIDM,2023.1.2,None,
4533.jpg,2385.jpg,3 Points,3 Points,497 Points,PS1_L9.csv,,,,,,,,,,,,,,,,,,,,,,,,,,,,,0,8,8,8,0,8,8,8,,,,,,,,,,,,,,,,,,,2713.9463222080376,q,0.8198052080115303,2714.848766583018,,,,,,271126,A,2024-06-27_15h41.57.699,EPIDM,2023.1.2,None,
5940.jpg,9411.jpg,0 Points,0 Points,497 Points,PS1_L9.csv,,,,,,,,,,,,,,,,,,,,,,,,,,,,,0,8,8,8,0,9,9,9,,,,,,,,,,,,,,,,,,,2719.090613542008,p,1.029003458097577,2720.1910580419935,,,,,,271126,A,2024-06-27_15h41.57.699,EPIDM,2023.1.2,None,
2220.jpg,2010.jpg,5 Points,5 Points,502 Points,PS1_L9.csv,,,,,,,,,,,,,,,,,,,,,,,,,,,,,0,8,8,8,0,10,10,10,,,,,,,,,,,,,,,,,,,2724.439548458089,p,1.9108564170310274,2726.4249149999814,,,,,,271126,A,2024-06-27_15h41.57.699,EPIDM,2023.1.2,None,
9500.jpg,6360.jpg,1 Point,1 Point,503 Points,PS1_L9.csv,,,,,,,,,,,,,,,,,,,,,,,,,,,,,0,8,8,8,0,11,11,11,,,,,,,,,,,,,,,,,,,2730.670277792029,q,0.5430954589974135,2731.2896515830653,,,,,,271126,A,2024-06-27_15h41.57.699,EPIDM,2023.1.2,None,
2092.jpg,2210.jpg,0 Points,0 Points,503 Points,PS1_L9.csv,,,,,,,,,,,,,,,,,,,,,,,,,,,,,0,8,8,8,0,12,12,12,,,,,,,,,,,,,,,,,,,2735.5492853750475,p,0.6895541249541566,2736.301787375007,,,,,,271126,A,2024-06-27_15h41.57.699,EPIDM,2023.1.2,None,
9530.jpg,9220.jpg,1 Point,1 Point,504 Points,PS1_L9.csv,,,,,,,,,,,,,,,,,,,,,,,,,,,,,0,8,8,8,0,13,13,13,,,,,,,,,,,,,,,,,,,2740.557295333012,p,0.841122042038478,2741.4648215830093,1,1.1873988750157878,,,,271126,A,2024-06-27_15h41.57.699,EPIDM,2023.1.2,None,
9254.jpg,9290.jpg,2 Points,2 Points,506 Points,PS1_L9.csv,,,,,,,,,,,,,,,,,,,,,,,,,,,,,0,8,8,8,0,14,14,14,,,,,,,,,,,,,,,,,,,2746.9777364999754,q,1.027667917078361,2748.065832792083,,,,,,271126,A,2024-06-27_15h41.57.699,EPIDM,2023.1.2,None,
4608.jpg,8320.jpg,1 Point,1 Point,507 Points,PS1_L9.csv,,,,,,,,,,,,,,,,,,,,,,,,,,,,,0,8,8,8,0,15,15,15,,,,,,,,,,,,,,,,,,,2752.3296495419927,q,0.7081770000513643,2753.0996282080887,,,,,,271126,A,2024-06-27_15h41.57.699,EPIDM,2023.1.2,None,
7237.jpg,8510.jpg,4 Points,4 Points,511 Points,PS1_L9.csv,,,,,,,,,,,,,,,,,,,,,,,,,,,,,0,8,8,8,0,16,16,16,,,,,,,,,,,,,,,,,,,2757.355315666995,p,0.6825703330105171,2758.1122535830364,,,,,,271126,A,2024-06-27_15h41.57.699,EPIDM,2023.1.2,None,
9417.jpg,6530.jpg,1 Point,1 Point,512 Points,PS1_L9.csv,,,,,,,,,,,,,,,,,,,,,,,,,,,,,0,8,8,8,0,17,17,17,,,,,,,,,,,,,,,,,,,2762.3521304579917,q,0.9501297499518842,2763.375577958068,,,,,,271126,A,2024-06-27_15h41.57.699,EPIDM,2023.1.2,None,
6831.jpg,2141.jpg,5 Points,5 Points,517 Points,PS1_L9.csv,,,,,,,,,,,,,,,,,,,,,,,,,,,,,0,8,8,8,0,18,18,18,,,,,,,,,,,,,,,,,,,2767.6216077919817,p,0.6875770840561017,2768.378303333069,,,,,,271126,A,2024-06-27_15h41.57.699,EPIDM,2023.1.2,None,
4689.jpg,7009.jpg,5 Points,5 Points,522 Points,PS1_L9.csv,,,,,,,,,,,,,,,,,,,,,,,,,,,,,0,8,8,8,0,19,19,19,,,,,,,,,,,,,,,,,,,2772.627617500024,p,0.4974845830583945,2773.192997624981,,,,,,271126,A,2024-06-27_15h41.57.699,EPIDM,2023.1.2,None,
2751.jpg,6313.jpg,3 Points,3 Points,525 Points,PS1_L9.csv,,,,,,,,,,,,,,,,,,,,,,,,,,,,,0,8,8,8,0,20,20,20,,,,,,,,,,,,,,,,,,,2777.437982750009,q,0.9351532501168549,2778.4483918750193,,,,,,271126,A,2024-06-27_15h41.57.699,EPIDM,2023.1.2,None,
4621.jpg,3550.jpg,2 Points,2 Points,527 Points,PS1_L9.csv,,,,,,,,,,,,,,,,,,,,,,,,,,,,,0,8,8,8,0,21,21,21,,,,,,,,,,,,,,,,,,,2782.6902489999775,q,0.49118162505328655,2783.2466158330208,,,,,,271126,A,2024-06-27_15h41.57.699,EPIDM,2023.1.2,None,
8220.jpg,2410.jpg,4 Points,4 Points,531 Points,PS1_L9.csv,,,,,,,,,,,,,,,,,,,,,,,,,,,,,0,8,8,8,0,22,22,22,,,,,,,,,,,,,,,,,,,2787.4936769170454,p,0.6715143751353025,2788.229820250068,,,,,,271126,A,2024-06-27_15h41.57.699,EPIDM,2023.1.2,None,
1113.jpg,1240.jpg,3 Points,3 Points,534 Points,PS1_L9.csv,,,,,,,,,,,,,,,,,,,,,,,,,,,,,0,8,8,8,0,23,23,23,,,,,,,,,,,,,,,,,,,2792.4781650420045,q,0.5510670830262825,2793.0976531670894,,,2803.5725549170747,space,2.1221677920548245,271126,A,2024-06-27_15h41.57.699,EPIDM,2023.1.2,None,
2750.jpg,9050.jpg,4 Points,4 Points,538 Points,PS1_L10.csv,,,,,,,,,,,,,,,,,,,,,,,,,,,,,0,9,9,9,0,0,0,0,,,,,,,,,,,,,,,,,,,2809.0226254580775,p,0.7427338750567287,2809.83170691703,,,,,,271126,A,2024-06-27_15h41.57.699,EPIDM,2023.1.2,None,
2312.jpg,2722.jpg,1 Points,1 Points,539 Points,PS1_L10.csv,,,,,,,,,,,,,,,,,,,,,,,,,,,,,0,9,9,9,0,1,1,1,,,,,,,,,,,,,,,,,,,2814.0898187920684,q,0.8982922080904245,2815.0532660000026,1,1.0738499999279156,,,,271126,A,2024-06-27_15h41.57.699,EPIDM,2023.1.2,None,
8232.jpg,4279.jpg,5 Points,5 Points,544 Points,PS1_L10.csv,,,,,,,,,,,,,,,,,,,,,,,,,,,,,0,9,9,9,0,2,2,2,,,,,,,,,,,,,,,,,,,2820.459646583069,p,2.0343519169837236,2822.578099125065,,,,,,271126,A,2024-06-27_15h41.57.699,EPIDM,2023.1.2,None,
6000.jpg,6836.jpg,4 Points,4 Points,548 Points,PS1_L10.csv,,,,,,,,,,,,,,,,,,,,,,,,,,,,,0,9,9,9,0,3,3,3,,,,,,,,,,,,,,,,,,,2826.817464667023,q,1.4831979590235278,2828.3746887920424,,,,,,271126,A,2024-06-27_15h41.57.699,EPIDM,2023.1.2,None,
4536.jpg,2280.jpg,4 Points,4 Points,552 Points,PS1_L10.csv,,,,,,,,,,,,,,,,,,,,,,,,,,,,,0,9,9,9,0,4,4,4,,,,,,,,,,,,,,,,,,,2832.612690582988,q,1.33589591702912,2834.0112425420666,,,,,,271126,A,2024-06-27_15h41.57.699,EPIDM,2023.1.2,None,
6241.jpg,9561.jpg,3 Points,3 Points,555 Points,PS1_L10.csv,,,,,,,,,,,,,,,,,,,,,,,,,,,,,0,9,9,9,0,5,5,5,,,,,,,,,,,,,,,,,,,2838.2595396250254,q,1.4640844591194764,2839.7925322080264,,,,,,271126,A,2024-06-27_15h41.57.699,EPIDM,2023.1.2,None,
1942.jpg,2890.jpg,1 Points,1 Points,556 Points,PS1_L10.csv,,,,,,,,,,,,,,,,,,,,,,,,,,,,,0,9,9,9,0,6,6,6,,,,,,,,,,,,,,,,,,,2844.0339236670407,q,1.2658845831174403,2845.35924804199,,,,,,271126,A,2024-06-27_15h41.57.699,EPIDM,2023.1.2,None,
6020.jpg,6300.jpg,2 Points,2 Points,558 Points,PS1_L10.csv,,,,,,,,,,,,,,,,,,,,,,,,,,,,,0,9,9,9,0,7,7,7,,,,,,,,,,,,,,,,,,,2849.623079083045,p,1.6202588750747964,2851.3147067080718,,,,,,271126,A,2024-06-27_15h41.57.699,EPIDM,2023.1.2,None,
7170.jpg,2170.jpg,2 Points,2 Points,560 Points,PS1_L10.csv,,,,,,,,,,,,,,,,,,,,,,,,,,,,,0,9,9,9,0,8,8,8,,,,,,,,,,,,,,,,,,,2855.5641002920456,p,1.3192489161156118,2856.9454734170577,,,,,,271126,A,2024-06-27_15h41.57.699,EPIDM,2023.1.2,None,
5510.jpg,2514.jpg,5 Points,5 Points,565 Points,PS1_L10.csv,,,,,,,,,,,,,,,,,,,,,,,,,,,,,0,9,9,9,0,9,9,9,,,,,,,,,,,,,,,,,,,2861.1952789580682,p,1.064814665936865,2862.3290589170065,,,,,,271126,A,2024-06-27_15h41.57.699,EPIDM,2023.1.2,None,
6840.jpg,3080.jpg,1 Points,1 Points,566 Points,PS1_L10.csv,,,,,,,,,,,,,,,,,,,,,,,,,,,,,0,9,9,9,0,10,10,10,,,,,,,,,,,,,,,,,,,2866.5826579580316,q,1.1560221660183743,2867.799809875083,,,,,,271126,A,2024-06-27_15h41.57.699,EPIDM,2023.1.2,None,
7195.jpg,2487.jpg,2 Points,2 Points,568 Points,PS1_L10.csv,,,,,,,,,,,,,,,,,,,,,,,,,,,,,0,9,9,9,0,11,11,11,,,,,,,,,,,,,,,,,,,2872.05233700003,p,0.615071541047655,2872.740190832992,,,,,,271126,A,2024-06-27_15h41.57.699,EPIDM,2023.1.2,None,
5971.jpg,9912.jpg,5 Points,5 Points,573 Points,PS1_L10.csv,,,,,,,,,,,,,,,,,,,,,,,,,,,,,0,9,9,9,0,12,12,12,,,,,,,,,,,,,,,,,,,2876.9854422080098,q,1.4021865830291063,2878.4529011250706,,,,,,271126,A,2024-06-27_15h41.57.699,EPIDM,2023.1.2,None,
2520.jpg,8503.jpg,2 Points,2 Points,575 Points,PS1_L10.csv,,,,,,,,,,,,,,,,,,,,,,,,,,,,,0,9,9,9,0,13,13,13,,,,,,,,,,,,,,,,,,,2882.711664750008,p,1.2181491249939427,2884.014646667056,2,1.73230000003241,,,,271126,A,2024-06-27_15h41.57.699,EPIDM,2023.1.2,None,
5480.jpg,8200.jpg,4 Points,4 Points,579 Points,PS1_L10.csv,,,,,,,,,,,,,,,,,,,,,,,,,,,,,0,9,9,9,0,14,14,14,,,,,,,,,,,,,,,,,,,2890.0588324579876,q,1.5204985830932856,2891.651239708066,,,,,,271126,A,2024-06-27_15h41.57.699,EPIDM,2023.1.2,None,
6370.jpg,1270.jpg,4 Points,4 Points,583 Points,PS1_L10.csv,,,,,,,,,,,,,,,,,,,,,,,,,,,,,0,9,9,9,0,15,15,15,,,,,,,,,,,,,,,,,,,2895.8924465000164,q,1.1499397500883788,2897.112864875002,,,,,,271126,A,2024-06-27_15h41.57.699,EPIDM,2023.1.2,None,
5130.jpg,1810.jpg,3 Points,3 Points,586 Points,PS1_L10.csv,,,,,,,,,,,,,,,,,,,,,,,,,,,,,0,9,9,9,0,16,16,16,,,,,,,,,,,,,,,,,,,2901.361522249994,p,1.465598874958232,2902.916216542013,,,,,,271126,A,2024-06-27_15h41.57.699,EPIDM,2023.1.2,None,
4250.jpg,7060.jpg,5 Points,5 Points,591 Points,PS1_L10.csv,,,,,,,,,,,,,,,,,,,,,,,,,,,,,0,9,9,9,0,17,17,17,,,,,,,,,,,,,,,,,,,2907.1547935000854,q,1.2706528750713915,2908.500576124992,,,,,,271126,A,2024-06-27_15h41.57.699,EPIDM,2023.1.2,None,
9373.jpg,9410.jpg,0 Points,0 Points,591 Points,PS1_L10.csv,,,,,,,,,,,,,,,,,,,,,,,,,,,,,0,9,9,9,0,18,18,18,,,,,,,,,,,,,,,,,,,2912.7448791670613,q,1.5857890410115942,2914.405145582976,,,,,,271126,A,2024-06-27_15h41.57.699,EPIDM,2023.1.2,None,
2221.jpg,2270.jpg,2 Points,2 Points,593 Points,PS1_L10.csv,,,,,,,,,,,,,,,,,,,,,,,,,,,,,0,9,9,9,0,19,19,19,,,,,,,,,,,,,,,,,,,2918.6442805420374,p,1.6312379171140492,2920.3480154169956,,,,,,271126,A,2024-06-27_15h41.57.699,EPIDM,2023.1.2,None,
1650.jpg,2130.jpg,1 Points,1 Points,594 Points,PS1_L10.csv,,,,,,,,,,,,,,,,,,,,,,,,,,,,,0,9,9,9,0,20,20,20,,,,,,,,,,,,,,,,,,,2924.6037951670587,q,1.1410452499985695,2925.818846457987,,,,,,271126,A,2024-06-27_15h41.57.699,EPIDM,2023.1.2,None,
1280.jpg,9402.jpg,2 Points,2 Points,596 Points,PS1_L10.csv,,,,,,,,,,,,,,,,,,,,,,,,,,,,,0,9,9,9,0,21,21,21,,,,,,,,,,,,,,,,,,,2930.060728374985,q,2.0616520000621676,2932.190359417,,,,,,271126,A,2024-06-27_15h41.57.699,EPIDM,2023.1.2,None,
2214.jpg,4500.jpg,3 Points,3 Points,599 Points,PS1_L10.csv,,,,,,,,,,,,,,,,,,,,,,,,,,,,,0,9,9,9,0,22,22,22,,,,,,,,,,,,,,,,,,,2936.4511256250553,q,1.181840542005375,2937.7063037500484,,,,,,271126,A,2024-06-27_15h41.57.699,EPIDM,2023.1.2,None,
7284.jpg,8021.jpg,4 Points,4 Points,603 Points,PS1_L10.csv,,,,,,,,,,,,,,,,,,,,,,,,,,,,,0,9,9,9,0,23,23,23,,,,,,,,,,,,,,,,,,,2941.9467797500547,p,1.4700850839726627,2943.493094458012,,,2953.9541783330496,space,1.1591950840083882,271126,A,2024-06-27_15h41.57.699,EPIDM,2023.1.2,None,
