L_Scene,R_Scene,Points_L,Points_R,PtTotal,blockFile,Instructions_Loop.thisRepN,Instructions_Loop.thisTrialN,Instructions_Loop.thisN,Instructions_Loop.thisIndex,Redo_Instructions_Loop.thisRepN,Redo_Instructions_Loop.thisTrialN,Redo_Instructions_Loop.thisN,Redo_Instructions_Loop.thisIndex,Practice_Encoding_Loop.thisRepN,Practice_Encoding_Loop.thisTrialN,Practice_Encoding_Loop.thisN,Practice_Encoding_Loop.thisIndex,Practice_Response_Fail_Loop.thisRepN,Practice_Response_Fail_Loop.thisTrialN,Practice_Response_Fail_Loop.thisN,Practice_Response_Fail_Loop.thisIndex,Practice_FB_Loop.thisRepN,Practice_FB_Loop.thisTrialN,Practice_FB_Loop.thisN,Practice_FB_Loop.thisIndex,Practice_Attention_Loop.thisRepN,Practice_Attention_Loop.thisTrialN,Practice_Attention_Loop.thisN,Practice_Attention_Loop.thisIndex,Practice_EncBrk_Loop.thisRepN,Practice_EncBrk_Loop.thisTrialN,Practice_EncBrk_Loop.thisN,Practice_EncBrk_Loop.thisIndex,Encoding_Loop.thisRepN,Encoding_Loop.thisTrialN,Encoding_Loop.thisN,Encoding_Loop.thisIndex,EncStim_Loop.thisRepN,EncStim_Loop.thisTrialN,EncStim_Loop.thisN,EncStim_Loop.thisIndex,Response_Fail_Loop.thisRepN,Response_Fail_Loop.thisTrialN,Response_Fail_Loop.thisN,Response_Fail_Loop.thisIndex,FB_Loop.thisRepN,FB_Loop.thisTrialN,FB_Loop.thisN,FB_Loop.thisIndex,Attention_Loop.thisRepN,Attention_Loop.thisTrialN,Attention_Loop.thisN,Attention_Loop.thisIndex,EncBrk_Loop.thisRepN,EncBrk_Loop.thisTrialN,EncBrk_Loop.thisN,EncBrk_Loop.thisIndex,Transition_Enc.keys,Transition_Enc.rt,Encoding_Resp.started,Encoding_Resp.keys,Encoding_Resp.rt,R_Point_FB_Stim.started,Attn_resp.keys,Attn_resp.rt,Progress_Tracker.started,EncBrk_Resp.keys,EncBrk_Resp.rt,participant,Group,date,expName,psychopyVersion,frameRate,
,,,,,,,,,,,,,,,,,,,,,,,,,,,,,,,,,,,,,,,,,,,,,,,,,,,,,,,,,,space,15.628794791991822,,,,,,,,,,272737,B,2024-12-09_11h05.17.360,EPIDM,2023.1.2,None,
A060.jpg,F041.jpg,5 Points,5 Points,5 Points,,,,,,,,,,0,0,0,0,,,,,,,,,,,,,,,,,,,,,,,,,,,,,,,,,,,,,,,,,,,408.07797620800557,q,3.0205677920021117,411.24335016598343,,,,,,272737,B,2024-12-09_11h05.17.360,EPIDM,2023.1.2,None,
O161.jpg,1812.jpg,2 Points,2 Points,7 Points,,,,,,,,,,0,1,1,1,,,,,,,,,,,,,,,,,,,,,,,,,,,,,,,,,,,,,,,,,,,415.4139277909999,p,2.109090333979111,417.6611473329831,,,,,,272737,B,2024-12-09_11h05.17.360,EPIDM,2023.1.2,None,
O013.jpg,A001.jpg,3 Points,3 Points,10 Points,,,,,,,,,,0,2,2,2,,,,,,,,,,,,,,,,,,,,,,,,,,,,,,,,,,,,,,,,,,,421.836623915995,q,2.101677958969958,424.094101708004,,,,,,272737,B,2024-12-09_11h05.17.360,EPIDM,2023.1.2,None,
P036.jpg,F273.jpg,5 Points,5 Points,15 Points,,,,,,,,,,0,3,3,3,,,,,,,,,,,,,,,,,,,,,,,,,,,,,,,,,,,,,,,,,,,428.26028762498754,q,3.4382529169961344,431.85863995799446,,,,,,272737,B,2024-12-09_11h05.17.360,EPIDM,2023.1.2,None,
L130.jpg,2393.jpg,0 Points,0 Points,15 Points,,,,,,,,,,0,4,4,4,,,,,,,,,,,,,,,,,,,,,,,,,,,,,,,,,,,,,,,,,,,436.0079407909943,q,3.338951499987161,439.4992333749833,0,9.73043433399289,,,,272737,B,2024-12-09_11h05.17.360,EPIDM,2023.1.2,None,
F279.jpg,P033.jpg,3 Points,3 Points,18 Points,,,,,,,,,,0,5,5,5,,,,,,,,,,,,,,,,,,,,,,,,,,,,,,,,,,,,,,,,,,,453.50563245799276,p,2.592197499994654,456.26376733300276,,,,,,272737,B,2024-12-09_11h05.17.360,EPIDM,2023.1.2,None,
A104.jpg,2593.jpg,2 Points,2 Points,20 Points,,,,,,,,,,0,6,6,6,,,,,,,,,,,,,,,,,,,,,,,,,,,,,,,,,,,,,,,,,,,460.40984437498264,p,2.6878021669690497,463.2255073330016,,,,,,272737,B,2024-12-09_11h05.17.360,EPIDM,2023.1.2,None,
2598.jpg,2605.jpg,0 Points,0 Points,20 Points,,,,,,,,,,0,7,7,7,,,,,,,,,,,,,,,,,,,,,,,,,,,,,,,,,,,,,,,,,,,467.4103530829889,q,2.6876660419802647,470.1680447910039,,,,,,272737,B,2024-12-09_11h05.17.360,EPIDM,2023.1.2,None,
L005.jpg,O011.jpg,1 Points,1 Points,21 Points,,,,,,,,,,0,8,8,8,,,,,,,,,,,,,,,,,,,,,,,,,,,,,,,,,,,,,,,,,,,474.42227666600957,q,2.9624152919859625,477.5219876249903,,,,,,272737,B,2024-12-09_11h05.17.360,EPIDM,2023.1.2,None,
8186.jpg,F078.jpg,2 Points,2 Points,23 Points,,,,,,,,,,0,9,9,9,,,,,,,,,,,,,,,,,,,,,,,,,,,,,,,,,,,,,,,,,,,481.69956908299355,p,3.0860902499989606,484.91606458299793,2,2.5455836670007557,497.71049333299743,space,85.43279795898707,272737,B,2024-12-09_11h05.17.360,EPIDM,2023.1.2,None,
,,,,,,,,,,,,,,,,,,,,,,,,,,,,,,,,,,,,,,,,,,,,,,,,,,,,,,,,,,space,3.9779089169751387,,,,,,,,,,272737,B,2024-12-09_11h05.17.360,EPIDM,2023.1.2,None,
7284.jpg,8021.jpg,4 Points,4 Points,4 Points,PS2_L1.csv,,,,,,,,,,,,,,,,,,,,,,,,,,,,,0,0,0,0,0,0,0,0,,,,,,,,,,,,,,,,,,,600.9502150409971,p,2.9848527919966727,604.0208559579914,,,,,,272737,B,2024-12-09_11h05.17.360,EPIDM,2023.1.2,None,
2214.jpg,4500.jpg,3 Points,3 Points,7 points,PS2_L1.csv,,,,,,,,,,,,,,,,,,,,,,,,,,,,,0,0,0,0,0,1,1,1,,,,,,,,,,,,,,,,,,,608.2667597499967,p,2.6997600010072347,611.0393296249968,3,2.8145028759900015,,,,272737,B,2024-12-09_11h05.17.360,EPIDM,2023.1.2,None,
1280.jpg,9402.jpg,2 Points,2 Points,9 points,PS2_L1.csv,,,,,,,,,,,,,,,,,,,,,,,,,,,,,0,0,0,0,0,2,2,2,,,,,,,,,,,,,,,,,,,618.1731304159912,q,3.6646459169860464,621.9139259159856,,,,,,272737,B,2024-12-09_11h05.17.360,EPIDM,2023.1.2,None,
1650.jpg,2130.jpg,1 Points,1 Points,10 points,PS2_L1.csv,,,,,,,,,,,,,,,,,,,,,,,,,,,,,0,0,0,0,0,3,3,3,,,,,,,,,,,,,,,,,,,626.1627892910037,q,1.8037548330030404,628.0303949159861,,,,,,272737,B,2024-12-09_11h05.17.360,EPIDM,2023.1.2,None,
2221.jpg,2270.jpg,2 Points,2 Points,12 points,PS2_L1.csv,,,,,,,,,,,,,,,,,,,,,,,,,,,,,0,0,0,0,0,4,4,4,,,,,,,,,,,,,,,,,,,632.2732458749961,p,1.932638666999992,634.2790185409831,,,,,,272737,B,2024-12-09_11h05.17.360,EPIDM,2023.1.2,None,
9373.jpg,9410.jpg,0 Points,0 Points,12 points,PS2_L1.csv,,,,,,,,,,,,,,,,,,,,,,,,,,,,,0,0,0,0,0,5,5,5,,,,,,,,,,,,,,,,,,,638.5287611249951,None,,,,,,,,272737,B,2024-12-09_11h05.17.360,EPIDM,2023.1.2,None,
4250.jpg,7060.jpg,5 Points,5 Points,17 points,PS2_L1.csv,,,,,,,,,,,,,,,,,,,,,,,,,,,,,0,0,0,0,0,6,6,6,,,,,,,,,,,,,,,,,,,646.0288703329861,q,2.2405497919826303,648.3392953749862,,,,,,272737,B,2024-12-09_11h05.17.360,EPIDM,2023.1.2,None,
5130.jpg,1810.jpg,3 Points,3 Points,20 points,PS2_L1.csv,,,,,,,,,,,,,,,,,,,,,,,,,,,,,0,0,0,0,0,7,7,7,,,,,,,,,,,,,,,,,,,652.5853946660063,q,2.74817149998853,655.4082432909927,,,,,,272737,B,2024-12-09_11h05.17.360,EPIDM,2023.1.2,None,
6370.jpg,1270.jpg,4 Points,4 Points,24 points,PS2_L1.csv,,,,,,,,,,,,,,,,,,,,,,,,,,,,,0,0,0,0,0,8,8,8,,,,,,,,,,,,,,,,,,,659.6520554159943,q,1.5122537499992177,661.2503821249993,,,,,,272737,B,2024-12-09_11h05.17.360,EPIDM,2023.1.2,None,
5480.jpg,8200.jpg,4 Points,4 Points,28 points,PS2_L1.csv,,,,,,,,,,,,,,,,,,,,,,,,,,,,,0,0,0,0,0,9,9,9,,,,,,,,,,,,,,,,,,,665.4854493330058,p,1.223918125993805,666.7901416250097,,,,,,272737,B,2024-12-09_11h05.17.360,EPIDM,2023.1.2,None,
2520.jpg,8503.jpg,2 Points,2 Points,30 points,PS2_L1.csv,,,,,,,,,,,,,,,,,,,,,,,,,,,,,0,0,0,0,0,10,10,10,,,,,,,,,,,,,,,,,,,671.0415445829858,p,1.6907490829762537,672.8141198329977,,,,,,272737,B,2024-12-09_11h05.17.360,EPIDM,2023.1.2,None,
5971.jpg,9912.jpg,5 Points,5 Points,35 points,PS2_L1.csv,,,,,,,,,,,,,,,,,,,,,,,,,,,,,0,0,0,0,0,11,11,11,,,,,,,,,,,,,,,,,,,677.0483074160002,p,2.6277854579966515,679.7626412079844,,,,,,272737,B,2024-12-09_11h05.17.360,EPIDM,2023.1.2,None,
7195.jpg,2487.jpg,2 Points,2 Points,37 points,PS2_L1.csv,,,,,,,,,,,,,,,,,,,,,,,,,,,,,0,0,0,0,0,12,12,12,,,,,,,,,,,,,,,,,,,684.00478191601,q,2.2077752509794664,686.2870217500022,,,,,,272737,B,2024-12-09_11h05.17.360,EPIDM,2023.1.2,None,
6840.jpg,3080.jpg,1 Points,1 Points,38 points,PS2_L1.csv,,,,,,,,,,,,,,,,,,,,,,,,,,,,,0,0,0,0,0,13,13,13,,,,,,,,,,,,,,,,,,,690.5349239159841,p,2.46994445900782,693.0738520410086,1,3.3174441260052845,,,,272737,B,2024-12-09_11h05.17.360,EPIDM,2023.1.2,None,
5510.jpg,2514.jpg,5 Points,5 Points,43 points,PS2_L1.csv,,,,,,,,,,,,,,,,,,,,,,,,,,,,,0,0,0,0,0,14,14,14,,,,,,,,,,,,,,,,,,,700.7042837500048,q,3.6035029999911785,704.3811790409964,,,,,,272737,B,2024-12-09_11h05.17.360,EPIDM,2023.1.2,None,
7170.jpg,2170.jpg,2 Points,2 Points,45 points,PS2_L1.csv,,,,,,,,,,,,,,,,,,,,,,,,,,,,,0,0,0,0,0,15,15,15,,,,,,,,,,,,,,,,,,,708.6403455830005,p,1.6831183749891352,710.4005178329826,,,,,,272737,B,2024-12-09_11h05.17.360,EPIDM,2023.1.2,None,
6020.jpg,6300.jpg,2 Points,2 Points,47 points,PS2_L1.csv,,,,,,,,,,,,,,,,,,,,,,,,,,,,,0,0,0,0,0,16,16,16,,,,,,,,,,,,,,,,,,,714.6399607080093,p,1.5078526249853894,716.2194908329984,,,,,,272737,B,2024-12-09_11h05.17.360,EPIDM,2023.1.2,None,
1942.jpg,2890.jpg,1 Points,1 Points,48 points,PS2_L1.csv,,,,,,,,,,,,,,,,,,,,,,,,,,,,,0,0,0,0,0,17,17,17,,,,,,,,,,,,,,,,,,,720.4772973750078,p,0.9032397079863586,721.452207291004,,,,,,272737,B,2024-12-09_11h05.17.360,EPIDM,2023.1.2,None,
6241.jpg,9561.jpg,3 Points,3 Points,51 points,PS2_L1.csv,,,,,,,,,,,,,,,,,,,,,,,,,,,,,0,0,0,0,0,18,18,18,,,,,,,,,,,,,,,,,,,725.7109202909924,q,1.4206110830127727,727.1980137499922,,,,,,272737,B,2024-12-09_11h05.17.360,EPIDM,2023.1.2,None,
4536.jpg,2280.jpg,4 Points,4 Points,55 points,PS2_L1.csv,,,,,,,,,,,,,,,,,,,,,,,,,,,,,0,0,0,0,0,19,19,19,,,,,,,,,,,,,,,,,,,731.4474115830089,q,1.213856707996456,732.735773916007,,,,,,272737,B,2024-12-09_11h05.17.360,EPIDM,2023.1.2,None,
6000.jpg,6836.jpg,4 Points,4 Points,59 points,PS2_L1.csv,,,,,,,,,,,,,,,,,,,,,,,,,,,,,0,0,0,0,0,20,20,20,,,,,,,,,,,,,,,,,,,736.9730377499945,q,2.462715000001481,739.5006917910068,,,,,,272737,B,2024-12-09_11h05.17.360,EPIDM,2023.1.2,None,
8232.jpg,4279.jpg,5 Points,5 Points,64 points,PS2_L1.csv,,,,,,,,,,,,,,,,,,,,,,,,,,,,,0,0,0,0,0,21,21,21,,,,,,,,,,,,,,,,,,,743.7560252499825,p,3.5916032509994693,747.4225118749891,,,,,,272737,B,2024-12-09_11h05.17.360,EPIDM,2023.1.2,None,
2312.jpg,2722.jpg,1 Points,1 Points,65 points,PS2_L1.csv,,,,,,,,,,,,,,,,,,,,,,,,,,,,,0,0,0,0,0,22,22,22,,,,,,,,,,,,,,,,,,,751.659482832998,q,1.8874899999937043,753.6263563749962,,,,,,272737,B,2024-12-09_11h05.17.360,EPIDM,2023.1.2,None,
2750.jpg,9050.jpg,4 Points,4 Points,69 points,PS2_L1.csv,,,,,,,,,,,,,,,,,,,,,,,,,,,,,0,0,0,0,0,23,23,23,,,,,,,,,,,,,,,,,,,757.8793293329945,q,2.8601565830176696,760.8007787500101,,,771.3071754160046,space,42.03045720900991,272737,B,2024-12-09_11h05.17.360,EPIDM,2023.1.2,None,
1113.jpg,1240.jpg,3 Points,3 Points,72 points,PS2_L2.csv,,,,,,,,,,,,,,,,,,,,,,,,,,,,,0,1,1,1,0,0,0,0,,,,,,,,,,,,,,,,,,,816.6650023749971,p,3.0885345000133384,819.834023790987,,,,,,272737,B,2024-12-09_11h05.17.360,EPIDM,2023.1.2,None,
8220.jpg,2410.jpg,4 Points,4 Points,76 points,PS2_L2.csv,,,,,,,,,,,,,,,,,,,,,,,,,,,,,0,1,1,1,0,1,1,1,,,,,,,,,,,,,,,,,,,824.0876250409929,q,1.129292166995583,825.2891362909868,4,2.1428016249847133,,,,272737,B,2024-12-09_11h05.17.360,EPIDM,2023.1.2,None,
4621.jpg,3550.jpg,2 Points,2 Points,78 points,PS2_L2.csv,,,,,,,,,,,,,,,,,,,,,,,,,,,,,0,1,1,1,0,2,2,2,,,,,,,,,,,,,,,,,,,831.7415426250082,p,3.019542708992958,834.8377173329936,,,,,,272737,B,2024-12-09_11h05.17.360,EPIDM,2023.1.2,None,
2751.jpg,6313.jpg,3 Points,3 Points,81 points,PS2_L2.csv,,,,,,,,,,,,,,,,,,,,,,,,,,,,,0,1,1,1,0,3,3,3,,,,,,,,,,,,,,,,,,,839.0906237500021,q,1.710219333996065,840.8611395409971,,,,,,272737,B,2024-12-09_11h05.17.360,EPIDM,2023.1.2,None,
4689.jpg,7009.jpg,5 Points,5 Points,86 points,PS2_L2.csv,,,,,,,,,,,,,,,,,,,,,,,,,,,,,0,1,1,1,0,4,4,4,,,,,,,,,,,,,,,,,,,845.111032249988,q,1.6491267089731991,846.8391716659826,,,,,,272737,B,2024-12-09_11h05.17.360,EPIDM,2023.1.2,None,
6831.jpg,2141.jpg,5 Points,5 Points,91 points,PS2_L2.csv,,,,,,,,,,,,,,,,,,,,,,,,,,,,,0,1,1,1,0,5,5,5,,,,,,,,,,,,,,,,,,,851.0808099159913,p,2.944377876003273,854.0931842499995,,,,,,272737,B,2024-12-09_11h05.17.360,EPIDM,2023.1.2,None,
9417.jpg,6530.jpg,1 Point,1 Point,92 points,PS2_L2.csv,,,,,,,,,,,,,,,,,,,,,,,,,,,,,0,1,1,1,0,6,6,6,,,,,,,,,,,,,,,,,,,858.347317000007,q,1.652767416991992,860.0711395829858,,,,,,272737,B,2024-12-09_11h05.17.360,EPIDM,2023.1.2,None,
7237.jpg,8510.jpg,4 Points,4 Points,96 points,PS2_L2.csv,,,,,,,,,,,,,,,,,,,,,,,,,,,,,0,1,1,1,0,7,7,7,,,,,,,,,,,,,,,,,,,864.3213921249844,p,1.4470472919929307,865.8460878749902,,,,,,272737,B,2024-12-09_11h05.17.360,EPIDM,2023.1.2,None,
4608.jpg,8320.jpg,1 Point,1 Point,97 points,PS2_L2.csv,,,,,,,,,,,,,,,,,,,,,,,,,,,,,0,1,1,1,0,8,8,8,,,,,,,,,,,,,,,,,,,870.0866529580089,q,1.4011479169712402,871.5694281659962,,,,,,272737,B,2024-12-09_11h05.17.360,EPIDM,2023.1.2,None,
9254.jpg,9290.jpg,2 Points,2 Points,99 points,PS2_L2.csv,,,,,,,,,,,,,,,,,,,,,,,,,,,,,0,1,1,1,0,9,9,9,,,,,,,,,,,,,,,,,,,875.8282820830063,p,2.5003622919903137,878.3919162079983,,,,,,272737,B,2024-12-09_11h05.17.360,EPIDM,2023.1.2,None,
9530.jpg,9220.jpg,1 Point,1 Point,100 points,PS2_L2.csv,,,,,,,,,,,,,,,,,,,,,,,,,,,,,0,1,1,1,0,10,10,10,,,,,,,,,,,,,,,,,,,882.6464769580052,p,1.8653011249843985,884.5780680000025,,,,,,272737,B,2024-12-09_11h05.17.360,EPIDM,2023.1.2,None,
2092.jpg,2210.jpg,0 Points,0 Points,100 points,PS2_L2.csv,,,,,,,,,,,,,,,,,,,,,,,,,,,,,0,1,1,1,0,11,11,11,,,,,,,,,,,,,,,,,,,888.835653874994,p,1.940694041986717,890.8500120409881,,,,,,272737,B,2024-12-09_11h05.17.360,EPIDM,2023.1.2,None,
9500.jpg,6360.jpg,1 Point,1 Point,101 points,PS2_L2.csv,,,,,,,,,,,,,,,,,,,,,,,,,,,,,0,1,1,1,0,12,12,12,,,,,,,,,,,,,,,,,,,895.1065992079966,p,1.3087094580114353,896.4806800829829,,,,,,272737,B,2024-12-09_11h05.17.360,EPIDM,2023.1.2,None,
2220.jpg,2010.jpg,5 Points,5 Points,106 points,PS2_L2.csv,,,,,,,,,,,,,,,,,,,,,,,,,,,,,0,1,1,1,0,13,13,13,,,,,,,,,,,,,,,,,,,900.7397514159966,q,1.9395999169792049,902.7584575829969,5,1.8972232089727186,,,,272737,B,2024-12-09_11h05.17.360,EPIDM,2023.1.2,None,
5940.jpg,9411.jpg,0 Points,0 Points,106 points,PS2_L2.csv,,,,,,,,,,,,,,,,,,,,,,,,,,,,,0,1,1,1,0,14,14,14,,,,,,,,,,,,,,,,,,,908.9827481249813,q,3.5597246249963064,912.616092124983,,,,,,272737,B,2024-12-09_11h05.17.360,EPIDM,2023.1.2,None,
4533.jpg,2385.jpg,3 Points,3 Points,109 points,PS2_L2.csv,,,,,,,,,,,,,,,,,,,,,,,,,,,,,0,1,1,1,0,15,15,15,,,,,,,,,,,,,,,,,,,916.8590435000078,q,0.6763801259803586,917.6088067909877,,,,,,272737,B,2024-12-09_11h05.17.360,EPIDM,2023.1.2,None,
9340.jpg,6910.jpg,0 Points,0 Points,109 points,PS2_L2.csv,,,,,,,,,,,,,,,,,,,,,,,,,,,,,0,1,1,1,0,16,16,16,,,,,,,,,,,,,,,,,,,921.8496313329961,p,2.085832417011261,924.006036582985,,,,,,272737,B,2024-12-09_11h05.17.360,EPIDM,2023.1.2,None,
8350.jpg,7190.jpg,5 Points,5 Points,114 points,PS2_L2.csv,,,,,,,,,,,,,,,,,,,,,,,,,,,,,0,1,1,1,0,17,17,17,,,,,,,,,,,,,,,,,,,928.2492119160015,q,0.6689256250101607,929.0033503329905,,,,,,272737,B,2024-12-09_11h05.17.360,EPIDM,2023.1.2,None,
6211.jpg,9611.jpg,3 Points,3 Points,117 points ,PS2_L2.csv,,,,,,,,,,,,,,,,,,,,,,,,,,,,,0,1,1,1,0,18,18,18,,,,,,,,,,,,,,,,,,,933.2389639999892,p,1.9599734999937937,935.2672351659858,,,,,,272737,B,2024-12-09_11h05.17.360,EPIDM,2023.1.2,None,
2053.jpg,9415.jpg,4 Points,4 Points,121 points,PS2_L2.csv,,,,,,,,,,,,,,,,,,,,,,,,,,,,,0,1,1,1,0,19,19,19,,,,,,,,,,,,,,,,,,,939.5096514580073,p,1.5045846249850001,941.071517290984,,,,,,272737,B,2024-12-09_11h05.17.360,EPIDM,2023.1.2,None,
2110.jpg,7260.jpg,5 Points,5 Points,126 points,PS2_L2.csv,,,,,,,,,,,,,,,,,,,,,,,,,,,,,0,1,1,1,0,20,20,20,,,,,,,,,,,,,,,,,,,945.3288592080062,p,0.6135310009703971,946.0214570829994,,,,,,272737,B,2024-12-09_11h05.17.360,EPIDM,2023.1.2,None,
2030.jpg,2495.jpg,0 Points,0 Points,126 points,PS2_L2.csv,,,,,,,,,,,,,,,,,,,,,,,,,,,,,0,1,1,1,0,21,21,21,,,,,,,,,,,,,,,,,,,950.2584254579851,q,0.8350140419788659,951.1688708330039,,,,,,272737,B,2024-12-09_11h05.17.360,EPIDM,2023.1.2,None,
1302.jpg,2700.jpg,3 Points,3 Points,129 points,PS2_L2.csv,,,,,,,,,,,,,,,,,,,,,,,,,,,,,0,1,1,1,0,22,22,22,,,,,,,,,,,,,,,,,,,955.4147541660059,q,0.9989887499832548,956.4873732079868,,,,,,272737,B,2024-12-09_11h05.17.360,EPIDM,2023.1.2,None,
9010.jpg,9253.jpg,0 Points,0 Points,129 points,PS2_L2.csv,,,,,,,,,,,,,,,,,,,,,,,,,,,,,0,1,1,1,0,23,23,23,,,,,,,,,,,,,,,,,,,960.7397007909894,q,1.9539924999990035,962.7675416659913,,,973.2533670410048,space,6.720444791979389,272737,B,2024-12-09_11h05.17.360,EPIDM,2023.1.2,None,
1303.jpg,2000.jpg,0 Points,0 Points,129 points,PS2_L3.csv,,,,,,,,,,,,,,,,,,,,,,,,,,,,,0,2,2,2,0,0,0,0,,,,,,,,,,,,,,,,,,,983.2954233330092,q,1.462066334002884,984.8254828749923,,,,,,272737,B,2024-12-09_11h05.17.360,EPIDM,2023.1.2,None,
2200.jpg,4598.jpg,1 Point,1 Point,130 points,PS2_L3.csv,,,,,,,,,,,,,,,,,,,,,,,,,,,,,0,2,2,2,0,1,1,1,,,,,,,,,,,,,,,,,,,989.0743522080011,q,0.9708071669738274,990.123922083003,1,1.3138642919948325,,,,272737,B,2024-12-09_11h05.17.360,EPIDM,2023.1.2,None,
6190.jpg,3120.jpg,5 Points,5 Points,135 points,PS2_L3.csv,,,,,,,,,,,,,,,,,,,,,,,,,,,,,0,2,2,2,0,2,2,2,,,,,,,,,,,,,,,,,,,995.764454624994,p,1.752787959005218,997.5976792910078,,,,,,272737,B,2024-12-09_11h05.17.360,EPIDM,2023.1.2,None,
2570.jpg,5500.jpg,3 Points,3 Points,138 points,PS2_L3.csv,,,,,,,,,,,,,,,,,,,,,,,,,,,,,0,2,2,2,0,3,3,3,,,,,,,,,,,,,,,,,,,1001.834573125001,p,2.1622233760135714,1004.0642005410045,,,,,,272737,B,2024-12-09_11h05.17.360,EPIDM,2023.1.2,None,
8460.jpg,8330.jpg,0 Points,0 Points,138 points,PS2_L3.csv,,,,,,,,,,,,,,,,,,,,,,,,,,,,,0,2,2,2,0,4,4,4,,,,,,,,,,,,,,,,,,,1008.3080242080032,p,3.6729665839811787,1012.0457255000074,,,,,,272737,B,2024-12-09_11h05.17.360,EPIDM,2023.1.2,None,
9320.jpg,9007.jpg,0 Points,0 Points,138 points,PS2_L3.csv,,,,,,,,,,,,,,,,,,,,,,,,,,,,,0,2,2,2,0,5,5,5,,,,,,,,,,,,,,,,,,,1016.2995157499972,p,1.0721947080164682,1017.4424035830016,,,,,,272737,B,2024-12-09_11h05.17.360,EPIDM,2023.1.2,None,
2650.jpg,4531.jpg,5 Points,5 Points,143 points,PS2_L3.csv,,,,,,,,,,,,,,,,,,,,,,,,,,,,,0,2,2,2,0,6,6,6,,,,,,,,,,,,,,,,,,,1021.6861261249869,p,1.4869105419784319,1023.2514646250056,,,,,,272737,B,2024-12-09_11h05.17.360,EPIDM,2023.1.2,None,
4100.jpg,6570.2.jpg,3 Points,3 Points,146 points,PS2_L3.csv,,,,,,,,,,,,,,,,,,,,,,,,,,,,,0,2,2,2,0,7,7,7,,,,,,,,,,,,,,,,,,,1027.4880220830091,q,2.1166658329893835,1029.6784857909952,,,,,,272737,B,2024-12-09_11h05.17.360,EPIDM,2023.1.2,None,
3102.jpg,F032.jpg,1 Point,1 Point,147 points,PS2_L3.csv,,,,,,,,,,,,,,,,,,,,,,,,,,,,,0,2,2,2,0,8,8,8,,,,,,,,,,,,,,,,,,,1033.9175648750097,p,1.8157276669808198,1035.8427107500029,,,,,,272737,B,2024-12-09_11h05.17.360,EPIDM,2023.1.2,None,
2240.jpg,5010.jpg,5 Points,5 Points,152 points,PS2_L3.csv,,,,,,,,,,,,,,,,,,,,,,,,,,,,,0,2,2,2,0,9,9,9,,,,,,,,,,,,,,,,,,,1040.0560842909908,q,2.2355871250038035,1042.405569124996,,,,,,272737,B,2024-12-09_11h05.17.360,EPIDM,2023.1.2,None,
4605.jpg,1510.jpg,4 Points,4 Points,156 points,PS2_L3.csv,,,,,,,,,,,,,,,,,,,,,,,,,,,,,0,2,2,2,0,10,10,10,,,,,,,,,,,,,,,,,,,1046.6069663329981,q,2.492958708986407,1049.176741125004,,,,,,272737,B,2024-12-09_11h05.17.360,EPIDM,2023.1.2,None,
9490.jpg,9210.jpg,1 Point,1 Point,157 points,PS2_L3.csv,,,,,,,,,,,,,,,,,,,,,,,,,,,,,0,2,2,2,0,11,11,11,,,,,,,,,,,,,,,,,,,1053.4157989159867,q,2.187592959002359,1055.6718722500082,,,,,,272737,B,2024-12-09_11h05.17.360,EPIDM,2023.1.2,None,
6821.jpg,9622.jpg,2 Points,2 Points,159 points,PS2_L3.csv,,,,,,,,,,,,,,,,,,,,,,,,,,,,,0,2,2,2,0,12,12,12,,,,,,,,,,,,,,,,,,,1059.9208791659912,q,1.5162372079794295,1061.4953079159895,,,,,,272737,B,2024-12-09_11h05.17.360,EPIDM,2023.1.2,None,
2681.jpg,7100.jpg,3 Points,3 Points,162 points,PS2_L3.csv,,,,,,,,,,,,,,,,,,,,,,,,,,,,,0,2,2,2,0,13,13,13,,,,,,,,,,,,,,,,,,,1065.7526069580053,q,1.5228133339842316,1067.3365907499974,3,1.7615112499915995,,,,272737,B,2024-12-09_11h05.17.360,EPIDM,2023.1.2,None,
5622.jpg,9156.jpg,4 Points,4 Points,166 points,PS2_L3.csv,,,,,,,,,,,,,,,,,,,,,,,,,,,,,0,2,2,2,0,14,14,14,,,,,,,,,,,,,,,,,,,1073.4121187079872,q,3.415174333989853,1076.9078406250046,,,,,,272737,B,2024-12-09_11h05.17.360,EPIDM,2023.1.2,None,
1111.jpg,1040.jpg,0 Points,0 Points,166 points,PS2_L3.csv,,,,,,,,,,,,,,,,,,,,,,,,,,,,,0,2,2,2,0,15,15,15,,,,,,,,,,,,,,,,,,,1081.1615827500063,None,,,,,,,,272737,B,2024-12-09_11h05.17.360,EPIDM,2023.1.2,None,
1112.jpg,6230.jpg,3 Points,3 Points,169 points,PS2_L3.csv,,,,,,,,,,,,,,,,,,,,,,,,,,,,,0,2,2,2,0,16,16,16,,,,,,,,,,,,,,,,,,,1088.6490841250052,q,1.6656422509986442,1090.3964234580053,,,,,,272737,B,2024-12-09_11h05.17.360,EPIDM,2023.1.2,None,
8161.jpg,1900.jpg,4 Points,4 Points,173 points,PS2_L3.csv,,,,,,,,,,,,,,,,,,,,,,,,,,,,,0,2,2,2,0,17,17,17,,,,,,,,,,,,,,,,,,,1094.641594332992,q,1.3137965000059921,1096.0334742910054,,,,,,272737,B,2024-12-09_11h05.17.360,EPIDM,2023.1.2,None,
9800.jpg,9433.jpg,1 Point,1 Point,174 points,PS2_L3.csv,,,,,,,,,,,,,,,,,,,,,,,,,,,,,0,2,2,2,0,18,18,18,,,,,,,,,,,,,,,,,,,1100.2792059580097,p,1.6513197089952882,1101.9985569579876,,,,,,272737,B,2024-12-09_11h05.17.360,EPIDM,2023.1.2,None,
1390.jpg,9421.jpg,2 Points,2 Points,176 points,PS2_L3.csv,,,,,,,,,,,,,,,,,,,,,,,,,,,,,0,2,2,2,0,19,19,19,,,,,,,,,,,,,,,,,,,1106.2508619579894,q,1.9205335839942563,1108.2382922499964,,,,,,272737,B,2024-12-09_11h05.17.360,EPIDM,2023.1.2,None,
2850.jpg,4532.jpg,3 Points,3 Points,179 points,PS2_L3.csv,,,,,,,,,,,,,,,,,,,,,,,,,,,,,0,2,2,2,0,20,20,20,,,,,,,,,,,,,,,,,,,1112.4860780829913,q,2.6761297089979053,1115.2215250000008,,,,,,272737,B,2024-12-09_11h05.17.360,EPIDM,2023.1.2,None,
1560.jpg,8185.jpg,0 Points,0 Points,179 points,PS2_L3.csv,,,,,,,,,,,,,,,,,,,,,,,,,,,,,0,2,2,2,0,21,21,21,,,,,,,,,,,,,,,,,,,1119.4806082499854,p,1.5854129589861259,1121.133348125004,,,,,,272737,B,2024-12-09_11h05.17.360,EPIDM,2023.1.2,None,
6314.jpg,O022.jpg,2 Points,2 Points,181 points,PS2_L3.csv,,,,,,,,,,,,,,,,,,,,,,,,,,,,,0,2,2,2,0,22,22,22,,,,,,,,,,,,,,,,,,,1125.3893306659884,q,1.8202879590098746,1127.318342582992,,,,,,272737,B,2024-12-09_11h05.17.360,EPIDM,2023.1.2,None,
4274.jpg,8160.jpg,2 Points,2 Points,183 points,PS2_L3.csv,,,,,,,,,,,,,,,,,,,,,,,,,,,,,0,2,2,2,0,23,23,23,,,,,,,,,,,,,,,,,,,1131.5376552499947,q,1.8972497920040041,1133.5353167499998,,,1143.9729531659978,space,6.495108875009464,272737,B,2024-12-09_11h05.17.360,EPIDM,2023.1.2,None,
8117.jpg,2880.jpg,5 Points,5 Points,188 points,PS2_L4.csv,,,,,,,,,,,,,,,,,,,,,,,,,,,,,0,3,3,3,0,0,0,0,,,,,,,,,,,,,,,,,,,1153.7934261249902,q,1.0314640419965144,1154.9004829159821,,,,,,272737,B,2024-12-09_11h05.17.360,EPIDM,2023.1.2,None,
3220.jpg,3063.jpg,5 Points,5 Points,193 points,PS2_L4.csv,,,,,,,,,,,,,,,,,,,,,,,,,,,,,0,3,3,3,0,1,1,1,,,,,,,,,,,,,,,,,,,1159.1435265409818,p,1.5216784169897437,1160.723504833004,5,2.2643290829728357,,,,272737,B,2024-12-09_11h05.17.360,EPIDM,2023.1.2,None,
9040.jpg,1120.jpg,3 Points,3 Points,196 points,PS2_L4.csv,,,,,,,,,,,,,,,,,,,,,,,,,,,,,0,3,3,3,0,2,2,2,,,,,,,,,,,,,,,,,,,1167.3018740830012,q,1.2672557499899995,1168.6359892080072,,,,,,272737,B,2024-12-09_11h05.17.360,EPIDM,2023.1.2,None,
5030.jpg,1670.jpg,3 Points,3 Points,199 points,PS2_L4.csv,,,,,,,,,,,,,,,,,,,,,,,,,,,,,0,3,3,3,0,3,3,3,,,,,,,,,,,,,,,,,,,1172.9026821659936,q,0.8820813340134919,1173.8540154999937,,,,,,272737,B,2024-12-09_11h05.17.360,EPIDM,2023.1.2,None,
2276.jpg,6540.jpg,3 Points,3 Points,202 points,PS2_L4.csv,,,,,,,,,,,,,,,,,,,,,,,,,,,,,0,3,3,3,0,4,4,4,,,,,,,,,,,,,,,,,,,1178.106997958006,q,1.6297951669839676,1179.785210290982,,,,,,272737,B,2024-12-09_11h05.17.360,EPIDM,2023.1.2,None,
1540.jpg,2600.jpg,1 Point,1 Point,203 points,PS2_L4.csv,,,,,,,,,,,,,,,,,,,,,,,,,,,,,0,3,3,3,0,5,5,5,,,,,,,,,,,,,,,,,,,1184.056478457991,p,1.4320489169913344,1185.554377374996,,,,,,272737,B,2024-12-09_11h05.17.360,EPIDM,2023.1.2,None,
8465.jpg,8400.jpg,1 Point,1 Point,204 points,PS2_L4.csv,,,,,,,,,,,,,,,,,,,,,,,,,,,,,0,3,3,3,0,6,6,6,,,,,,,,,,,,,,,,,,,1189.8092228329915,q,1.5101971669937484,1191.390928290988,,,,,,272737,B,2024-12-09_11h05.17.360,EPIDM,2023.1.2,None,
3110.jpg,9000.jpg,4 Points,4 Points,208 points,PS2_L4.csv,,,,,,,,,,,,,,,,,,,,,,,,,,,,,0,3,3,3,0,7,7,7,,,,,,,,,,,,,,,,,,,1195.6388575409946,q,1.186159167002188,1196.9011625410058,,,,,,272737,B,2024-12-09_11h05.17.360,EPIDM,2023.1.2,None,
9570.jpg,6610.jpg,0 Points,0 Points,208 points,PS2_L4.csv,,,,,,,,,,,,,,,,,,,,,,,,,,,,,0,3,3,3,0,8,8,8,,,,,,,,,,,,,,,,,,,1201.1527666659968,q,1.2147050839848816,1202.4339639999962,,,,,,272737,B,2024-12-09_11h05.17.360,EPIDM,2023.1.2,None,
2690.jpg,9360.jpg,1 Point,1 Point,209 points,PS2_L4.csv,,,,,,,,,,,,,,,,,,,,,,,,,,,,,0,3,3,3,0,9,9,9,,,,,,,,,,,,,,,,,,,1206.6889329580008,q,1.4387720829981845,1208.196047415986,,,,,,272737,B,2024-12-09_11h05.17.360,EPIDM,2023.1.2,None,
8250.jpg,1313.jpg,4 Points,4 Points,213 points,PS2_L4.csv,,,,,,,,,,,,,,,,,,,,,,,,,,,,,0,3,3,3,0,10,10,10,,,,,,,,,,,,,,,,,,,1212.4487220830051,q,1.3037799580197316,1213.8348365410056,,,,,,272737,B,2024-12-09_11h05.17.360,EPIDM,2023.1.2,None,
3022.jpg,2352.2.jpg,0 Points,0 Points,213 points,PS2_L4.csv,,,,,,,,,,,,,,,,,,,,,,,,,,,,,0,3,3,3,0,11,11,11,,,,,,,,,,,,,,,,,,,1218.0812399160059,p,1.1263353340036701,1219.2833409580053,,,,,,272737,B,2024-12-09_11h05.17.360,EPIDM,2023.1.2,None,
9920.jpg,3068.jpg,5 Points,5 Points,218 points,PS2_L4.csv,,,,,,,,,,,,,,,,,,,,,,,,,,,,,0,3,3,3,0,12,12,12,,,,,,,,,,,,,,,,,,,1223.5294387080066,p,0.9038009170035366,1224.487222458003,,,,,,272737,B,2024-12-09_11h05.17.360,EPIDM,2023.1.2,None,
7234.jpg,5533.jpg,3 Points,3 Points,221 points,PS2_L4.csv,,,,,,,,,,,,,,,,,,,,,,,,,,,,,0,3,3,3,0,13,13,13,,,,,,,,,,,,,,,,,,,1228.75153429099,p,2.5593022079847287,1231.3755857079814,3,1.297830041992711,,,,272737,B,2024-12-09_11h05.17.360,EPIDM,2023.1.2,None,
6250.1.jpg,3301.jpg,0 Points,0 Points,221 points,PS2_L4.csv,,,,,,,,,,,,,,,,,,,,,,,,,,,,,0,3,3,3,0,14,14,14,,,,,,,,,,,,,,,,,,,1236.9974664159818,q,2.34559845898184,1239.4178727499966,,,,,,272737,B,2024-12-09_11h05.17.360,EPIDM,2023.1.2,None,
2518.jpg,2381.jpg,1 Point,1 Point,222 points,PS2_L4.csv,,,,,,,,,,,,,,,,,,,,,,,,,,,,,0,3,3,3,0,15,15,15,,,,,,,,,,,,,,,,,,,1243.6646579579974,p,1.74262983398512,1245.4797021249833,,,,,,272737,B,2024-12-09_11h05.17.360,EPIDM,2023.1.2,None,
1910.jpg,2575.jpg,2 Points,2 Points,224 points,PS2_L4.csv,,,,,,,,,,,,,,,,,,,,,,,,,,,,,0,3,3,3,0,16,16,16,,,,,,,,,,,,,,,,,,,1249.735114332987,p,2.1600067499966826,1251.9482633750013,,,,,,272737,B,2024-12-09_11h05.17.360,EPIDM,2023.1.2,None,
1275.jpg,3150.jpg,1 Point,1 Point,225 points,PS2_L4.csv,,,,,,,,,,,,,,,,,,,,,,,,,,,,,0,3,3,3,0,17,17,17,,,,,,,,,,,,,,,,,,,1256.2077149160032,p,1.638687792001292,1257.9170319999976,,,,,,272737,B,2024-12-09_11h05.17.360,EPIDM,2023.1.2,None,
2702.jpg,1590.jpg,5 Points,5 Points,230 points,PS2_L4.csv,,,,,,,,,,,,,,,,,,,,,,,,,,,,,0,3,3,3,0,18,18,18,,,,,,,,,,,,,,,,,,,1262.1640120410011,q,1.4579964170116,1263.6960601249884,,,,,,272737,B,2024-12-09_11h05.17.360,EPIDM,2023.1.2,None,
8480.jpg,6410.jpg,1 Point,1 Point,231 points,PS2_L4.csv,,,,,,,,,,,,,,,,,,,,,,,,,,,,,0,3,3,3,0,19,19,19,,,,,,,,,,,,,,,,,,,1267.9408391659963,q,1.4020080419722944,1269.4145004159946,,,,,,272737,B,2024-12-09_11h05.17.360,EPIDM,2023.1.2,None,
5621.jpg,5534.jpg,3 Points,3 Points,234 points,PS2_L4.csv,,,,,,,,,,,,,,,,,,,,,,,,,,,,,0,3,3,3,0,20,20,20,,,,,,,,,,,,,,,,,,,1273.6636173749866,p,1.8299058339907788,1275.5656994580058,,,,,,272737,B,2024-12-09_11h05.17.360,EPIDM,2023.1.2,None,
5972.jpg,6838.jpg,5 Points,5 Points,239 points,PS2_L4.csv,,,,,,,,,,,,,,,,,,,,,,,,,,,,,0,3,3,3,0,21,21,21,,,,,,,,,,,,,,,,,,,1279.8237422909879,p,1.4866931249853224,1281.3731917910045,,,,,,272737,B,2024-12-09_11h05.17.360,EPIDM,2023.1.2,None,
2580.jpg,8300.jpg,3 Points,3 Points,242 points,PS2_L4.csv,,,,,,,,,,,,,,,,,,,,,,,,,,,,,0,3,3,3,0,22,22,22,,,,,,,,,,,,,,,,,,,1285.6259819999977,q,2.8839267500152346,1288.5818075409916,,,,,,272737,B,2024-12-09_11h05.17.360,EPIDM,2023.1.2,None,
7280.jpg,7160.jpg,0 Points,0 Points,242 points,PS2_L4.csv,,,,,,,,,,,,,,,,,,,,,,,,,,,,,0,3,3,3,0,23,23,23,,,,,,,,,,,,,,,,,,,1292.830451582995,q,2.191417083988199,1295.1034949999885,,,1305.5437809999858,space,4.925896834000014,272737,B,2024-12-09_11h05.17.360,EPIDM,2023.1.2,None,
6243.jpg,2752.jpg,2 Points,2 Points,244 points,PS2_L5.csv,,,,,,,,,,,,,,,,,,,,,,,,,,,,,0,4,4,4,0,0,0,0,,,,,,,,,,,,,,,,,,,1313.789896333008,q,2.679142542008776,1316.5543209160096,,,,,,272737,B,2024-12-09_11h05.17.360,EPIDM,2023.1.2,None,
8340.jpg,7546.jpg,2 Points,2 Points,246 points,PS2_L5.csv,,,,,,,,,,,,,,,,,,,,,,,,,,,,,0,4,4,4,0,1,1,1,,,,,,,,,,,,,,,,,,,1320.7998473749903,p,1.1896539999870583,1322.0473833330034,2,1.4769190840015654,,,,272737,B,2024-12-09_11h05.17.360,EPIDM,2023.1.2,None,
1022.jpg,6930.jpg,1 Point,1 Point,247 points,PS2_L5.csv,,,,,,,,,,,,,,,,,,,,,,,,,,,,,0,4,4,4,0,2,2,2,,,,,,,,,,,,,,,,,,,1327.846546582994,p,1.789803708990803,1329.705717749981,,,,,,272737,B,2024-12-09_11h05.17.360,EPIDM,2023.1.2,None,
7230.jpg,7570.jpg,5 Points,5 Points,252 points,PS2_L5.csv,,,,,,,,,,,,,,,,,,,,,,,,,,,,,0,4,4,4,0,3,3,3,,,,,,,,,,,,,,,,,,,1333.963375249994,q,3.088685999973677,1337.1357539579913,,,,,,272737,B,2024-12-09_11h05.17.360,EPIDM,2023.1.2,None,
5760.jpg,1602.jpg,1 Point,1 Point,253 points,PS2_L5.csv,,,,,,,,,,,,,,,,,,,,,,,,,,,,,0,4,4,4,0,4,4,4,,,,,,,,,,,,,,,,,,,1341.3831705409975,q,1.7242634999856818,1343.1810019999975,,,,,,272737,B,2024-12-09_11h05.17.360,EPIDM,2023.1.2,None,
9584.jpg,3400.jpg,2 Points,2 Points,255 points,PS2_L5.csv,,,,,,,,,,,,,,,,,,,,,,,,,,,,,0,4,4,4,0,5,5,5,,,,,,,,,,,,,,,,,,,1347.4312724999909,q,2.293094333988847,1349.7926482500043,,,,,,272737,B,2024-12-09_11h05.17.360,EPIDM,2023.1.2,None,
2560.jpg,5270.jpg,4 Points,4 Points,259 points,PS2_L5.csv,,,,,,,,,,,,,,,,,,,,,,,,,,,,,0,4,4,4,0,6,6,6,,,,,,,,,,,,,,,,,,,1354.0389490000089,q,1.5809887079813052,1355.6892553329817,,,,,,272737,B,2024-12-09_11h05.17.360,EPIDM,2023.1.2,None,
3350.jpg,3210.jpg,1 Point,1 Point,260 points,PS2_L5.csv,,,,,,,,,,,,,,,,,,,,,,,,,,,,,0,4,4,4,0,7,7,7,,,,,,,,,,,,,,,,,,,1359.9382075830072,p,2.5381426259991713,1362.5425866250007,,,,,,272737,B,2024-12-09_11h05.17.360,EPIDM,2023.1.2,None,
5455.jpg,5220.jpg,0 Points,0 Points,260 points,PS2_L5.csv,,,,,,,,,,,,,,,,,,,,,,,,,,,,,0,4,4,4,0,8,8,8,,,,,,,,,,,,,,,,,,,1366.8024931249965,q,1.4892937089898624,1368.358441874996,,,,,,272737,B,2024-12-09_11h05.17.360,EPIDM,2023.1.2,None,
7920.jpg,9102.jpg,3 Points,3 Points,263 points,PS2_L5.csv,,,,,,,,,,,,,,,,,,,,,,,,,,,,,0,4,4,4,0,9,9,9,,,,,,,,,,,,,,,,,,,1372.6248344999913,p,2.3152568329824135,1375.0098867909983,,,,,,272737,B,2024-12-09_11h05.17.360,EPIDM,2023.1.2,None,
1301.jpg,1070.jpg,2 Points,2 Points,265 points,PS2_L5.csv,,,,,,,,,,,,,,,,,,,,,,,,,,,,,0,4,4,4,0,10,10,10,,,,,,,,,,,,,,,,,,,1379.247533916001,q,1.843797709007049,1381.1700443330046,,,,,,272737,B,2024-12-09_11h05.17.360,EPIDM,2023.1.2,None,
5982.jpg,5260.jpg,5 Points,5 Points,270 points,PS2_L5.csv,,,,,,,,,,,,,,,,,,,,,,,,,,,,,0,4,4,4,0,11,11,11,,,,,,,,,,,,,,,,,,,1385.4041261659877,q,1.7830900839762762,1387.2614921659988,,,,,,272737,B,2024-12-09_11h05.17.360,EPIDM,2023.1.2,None,
5000.jpg,8180.jpg,4 Points,4 Points,274 points,PS2_L5.csv,,,,,,,,,,,,,,,,,,,,,,,,,,,,,0,4,4,4,0,12,12,12,,,,,,,,,,,,,,,,,,,1391.504192458,q,2.3411522500100546,1393.9213233329938,,,,,,272737,B,2024-12-09_11h05.17.360,EPIDM,2023.1.2,None,
6244.jpg,9265.jpg,0 Points,0 Points,274 points,PS2_L5.csv,,,,,,,,,,,,,,,,,,,,,,,,,,,,,0,4,4,4,0,13,13,13,,,,,,,,,,,,,,,,,,,1398.1550732500036,p,1.5441914170223754,1399.7670877079945,0,1.7999156669829972,,,,272737,B,2024-12-09_11h05.17.360,EPIDM,2023.1.2,None,
5990.jpg,5780.jpg,3 Points,3 Points,277 points,PS2_L5.csv,,,,,,,,,,,,,,,,,,,,,,,,,,,,,0,4,4,4,0,14,14,14,,,,,,,,,,,,,,,,,,,1405.8802845829923,q,1.0977259579813108,1407.044888000004,,,,,,272737,B,2024-12-09_11h05.17.360,EPIDM,2023.1.2,None,
9440.jpg,6350.jpg,4 Points,4 Points,281 points,PS2_L5.csv,,,,,,,,,,,,,,,,,,,,,,,,,,,,,0,4,4,4,0,15,15,15,,,,,,,,,,,,,,,,,,,1411.2927493329917,p,1.7970183749857824,1413.1591081660008,,,,,,272737,B,2024-12-09_11h05.17.360,EPIDM,2023.1.2,None,
1850.jpg,5623.jpg,5 Points,5 Points,286 points,PS2_L5.csv,,,,,,,,,,,,,,,,,,,,,,,,,,,,,0,4,4,4,0,16,16,16,,,,,,,,,,,,,,,,,,,1417.417913332989,q,2.226198583986843,1419.7093089580012,,,,,,272737,B,2024-12-09_11h05.17.360,EPIDM,2023.1.2,None,
5200.jpg,5020.jpg,0 Points,0 Points,286 points,PS2_L5.csv,,,,,,,,,,,,,,,,,,,,,,,,,,,,,0,4,4,4,0,17,17,17,,,,,,,,,,,,,,,,,,,1423.9563955829944,q,1.3019895419711247,1425.3384882909886,,,,,,272737,B,2024-12-09_11h05.17.360,EPIDM,2023.1.2,None,
P211.jpg,9041.jpg,4 Points,4 Points,290 points,PS2_L5.csv,,,,,,,,,,,,,,,,,,,,,,,,,,,,,0,4,4,4,0,18,18,18,,,,,,,,,,,,,,,,,,,1429.5717509579845,q,2.278926582977874,1431.9493605410098,,,,,,272737,B,2024-12-09_11h05.17.360,EPIDM,2023.1.2,None,
5600.jpg,9080.jpg,5 Points,5 Points,295 points,PS2_L5.csv,,,,,,,,,,,,,,,,,,,,,,,,,,,,,0,4,4,4,0,19,19,19,,,,,,,,,,,,,,,,,,,1436.1635821659875,q,1.8392023329797667,1438.0742420000024,,,,,,272737,B,2024-12-09_11h05.17.360,EPIDM,2023.1.2,None,
6800.jpg,9190.jpg,0 Points,0 Points,295 points,PS2_L5.csv,,,,,,,,,,,,,,,,,,,,,,,,,,,,,0,4,4,4,0,20,20,20,,,,,,,,,,,,,,,,,,,1442.3200469999865,p,1.7780925839906558,1444.1812829999835,,,,,,272737,B,2024-12-09_11h05.17.360,EPIDM,2023.1.2,None,
3280.jpg,9270.jpg,0 Points,0 Points,295 points,PS2_L5.csv,,,,,,,,,,,,,,,,,,,,,,,,,,,,,0,4,4,4,0,21,21,21,,,,,,,,,,,,,,,,,,,1448.4294149999914,q,1.7160693340119906,1450.196437290986,,,,,,272737,B,2024-12-09_11h05.17.360,EPIDM,2023.1.2,None,
4613.jpg,2720.jpg,4 Points,4 Points,299 points,PS2_L5.csv,,,,,,,,,,,,,,,,,,,,,,,,,,,,,0,4,4,4,0,22,22,22,,,,,,,,,,,,,,,,,,,1454.4530570409843,q,1.7397059169888962,1456.2611542909872,,,,,,272737,B,2024-12-09_11h05.17.360,EPIDM,2023.1.2,None,
1930.jpg,9008.jpg,1 Point,1 Point,300 points,PS2_L5.csv,,,,,,,,,,,,,,,,,,,,,,,,,,,,,0,4,4,4,0,23,23,23,,,,,,,,,,,,,,,,,,,1460.5162215000018,q,1.7105884589836933,1462.3079544159991,,,1472.7864234159933,space,2.9822109589877073,272737,B,2024-12-09_11h05.17.360,EPIDM,2023.1.2,None,
2190.jpg,7503.jpg,2 Points,2 Points,302 points,PS2_L6.csv,,,,,,,,,,,,,,,,,,,,,,,,,,,,,0,5,5,5,0,0,0,0,,,,,,,,,,,,,,,,,,,1479.09202779099,q,2.3249195009993855,1481.4982704999857,,,,,,272737,B,2024-12-09_11h05.17.360,EPIDM,2023.1.2,None,
2490.jpg,2590.jpg,4 Points,4 Points,306 points,PS2_L6.csv,,,,,,,,,,,,,,,,,,,,,,,,,,,,,0,5,5,5,0,1,1,1,,,,,,,,,,,,,,,,,,,1485.7417315829953,q,2.0680072919931263,1487.8773669159855,4,1.8282487920077983,,,,272737,B,2024-12-09_11h05.17.360,EPIDM,2023.1.2,None,
9592.jpg,1300.jpg,2 Points,2 Points,308 points,PS2_L6.csv,,,,,,,,,,,,,,,,,,,,,,,,,,,,,0,5,5,5,0,2,2,2,,,,,,,,,,,,,,,,,,,1494.02390249999,q,2.6009296249831095,1496.698136291001,,,,,,272737,B,2024-12-09_11h05.17.360,EPIDM,2023.1.2,None,
8230.jpg,2682.jpg,5 Points,5 Points,313 points,PS2_L6.csv,,,,,,,,,,,,,,,,,,,,,,,,,,,,,0,5,5,5,0,3,3,3,,,,,,,,,,,,,,,,,,,1500.9484240410093,q,3.178956957999617,1504.1957546659978,,,,,,272737,B,2024-12-09_11h05.17.360,EPIDM,2023.1.2,None,
9090.jpg,7580.jpg,3 Points,3 Points,316 points,PS2_L6.csv,,,,,,,,,,,,,,,,,,,,,,,,,,,,,0,5,5,5,0,4,4,4,,,,,,,,,,,,,,,,,,,1508.4514935000043,p,2.987254416977521,1511.516891999985,,,,,,272737,B,2024-12-09_11h05.17.360,EPIDM,2023.1.2,None,
3530.jpg,6213.jpg,1 Point,1 Point,317 points,PS2_L6.csv,,,,,,,,,,,,,,,,,,,,,,,,,,,,,0,5,5,5,0,5,5,5,,,,,,,,,,,,,,,,,,,1515.7581869999995,q,1.7292943749926053,1517.5564458330045,,,,,,272737,B,2024-12-09_11h05.17.360,EPIDM,2023.1.2,None,
1640.jpg,5531.jpg,3 Points,3 Points,320 points,PS2_L6.csv,,,,,,,,,,,,,,,,,,,,,,,,,,,,,0,5,5,5,0,6,6,6,,,,,,,,,,,,,,,,,,,1521.810406665987,p,2.197799124987796,1524.0787882499862,,,,,,272737,B,2024-12-09_11h05.17.360,EPIDM,2023.1.2,None,
3064.jpg,3168.jpg,4 Points,4 Points,324 points,PS2_L6.csv,,,,,,,,,,,,,,,,,,,,,,,,,,,,,0,5,5,5,0,7,7,7,,,,,,,,,,,,,,,,,,,1528.322989999986,q,1.4524471249897033,1529.854320207989,,,,,,272737,B,2024-12-09_11h05.17.360,EPIDM,2023.1.2,None,
2710.jpg,9252.jpg,1 Point,1 Point,325 points,PS2_L6.csv,,,,,,,,,,,,,,,,,,,,,,,,,,,,,0,5,5,5,0,8,8,8,,,,,,,,,,,,,,,,,,,1534.1044355829945,q,2.2541827089735307,1536.4271180409996,,,,,,272737,B,2024-12-09_11h05.17.360,EPIDM,2023.1.2,None,
2260.jpg,2830.jpg,5 Points,5 Points,330 points,PS2_L6.csv,,,,,,,,,,,,,,,,,,,,,,,,,,,,,0,5,5,5,0,9,9,9,,,,,,,,,,,,,,,,,,,1540.6834951250057,q,2.358228875993518,1543.1094626249978,,,,,,272737,B,2024-12-09_11h05.17.360,EPIDM,2023.1.2,None,
6510.jpg,A074.jpg,2 Points,2 Points,332 points,PS2_L6.csv,,,,,,,,,,,,,,,,,,,,,,,,,,,,,0,5,5,5,0,10,10,10,,,,,,,,,,,,,,,,,,,1547.360427165986,q,1.958611291978741,1549.431479040999,,,,,,272737,B,2024-12-09_11h05.17.360,EPIDM,2023.1.2,None,
5300.jpg,2372.jpg,1 Point,1 Point,333 points,PS2_L6.csv,,,,,,,,,,,,,,,,,,,,,,,,,,,,,0,5,5,5,0,11,11,11,,,,,,,,,,,,,,,,,,,1553.6362769159896,None,,,,,,,,272737,B,2024-12-09_11h05.17.360,EPIDM,2023.1.2,None,
2749.jpg,7282.jpg,3 Points,3 Points,336 points,PS2_L6.csv,,,,,,,,,,,,,,,,,,,,,,,,,,,,,0,5,5,5,0,12,12,12,,,,,,,,,,,,,,,,,,,1561.1364245830046,q,1.8142861669766717,1563.0618571660016,,,,,,272737,B,2024-12-09_11h05.17.360,EPIDM,2023.1.2,None,
3130.jpg,3500.jpg,4 Points,4 Points,340 points,PS2_L6.csv,,,,,,,,,,,,,,,,,,,,,,,,,,,,,0,5,5,5,0,13,13,13,,,,,,,,,,,,,,,,,,,1567.2746891659917,q,1.2446236249816138,1568.595111875009,4,1.4602306669694372,,,,272737,B,2024-12-09_11h05.17.360,EPIDM,2023.1.2,None,
6312.jpg,3230.jpg,2 Points,2 Points,342 points,PS2_L6.csv,,,,,,,,,,,,,,,,,,,,,,,,,,,,,0,5,5,5,0,14,14,14,,,,,,,,,,,,,,,,,,,1574.355498290999,q,2.473574000003282,1576.8990865829983,,,,,,272737,B,2024-12-09_11h05.17.360,EPIDM,2023.1.2,None,
2597.jpg,5870.jpg,5 Points,5 Points,347 points,PS2_L6.csv,,,,,,,,,,,,,,,,,,,,,,,,,,,,,0,5,5,5,0,15,15,15,,,,,,,,,,,,,,,,,,,1581.1518342499912,p,2.8377692079811823,1584.0692774159834,,,,,,272737,B,2024-12-09_11h05.17.360,EPIDM,2023.1.2,None,
8033.jpg,7270.jpg,3 Points,3 Points,350 points,PS2_L6.csv,,,,,,,,,,,,,,,,,,,,,,,,,,,,,0,5,5,5,0,16,16,16,,,,,,,,,,,,,,,,,,,1588.308695582993,q,1.5053347079956438,1589.8831829580013,,,,,,272737,B,2024-12-09_11h05.17.360,EPIDM,2023.1.2,None,
3170.jpg,6560.jpg,2 Points,2 Points,352 points,PS2_L6.csv,,,,,,,,,,,,,,,,,,,,,,,,,,,,,0,5,5,5,0,17,17,17,,,,,,,,,,,,,,,,,,,1594.1324934579898,q,1.4577274589973968,1595.6634780830063,,,,,,272737,B,2024-12-09_11h05.17.360,EPIDM,2023.1.2,None,
6242.jpg,F034.jpg,4 Points,4 Points,356 points,PS2_L6.csv,,,,,,,,,,,,,,,,,,,,,,,,,,,,,0,5,5,5,0,18,18,18,,,,,,,,,,,,,,,,,,,1599.9166575830022,q,1.7608171250030864,1601.782632040995,,,,,,272737,B,2024-12-09_11h05.17.360,EPIDM,2023.1.2,None,
2485.jpg,7350.jpg,0 Points,0 Points,356 points,PS2_L6.csv,,,,,,,,,,,,,,,,,,,,,,,,,,,,,0,5,5,5,0,19,19,19,,,,,,,,,,,,,,,,,,,1606.0015497909917,p,1.9244242919958197,1608.0013799160079,,,,,,272737,B,2024-12-09_11h05.17.360,EPIDM,2023.1.2,None,
2900.jpg,1101.jpg,3 Points,3 Points,359 points,PS2_L6.csv,,,,,,,,,,,,,,,,,,,,,,,,,,,,,0,5,5,5,0,20,20,20,,,,,,,,,,,,,,,,,,,1612.241472875001,q,1.2120089580130298,1613.5355822909914,,,,,,272737,B,2024-12-09_11h05.17.360,EPIDM,2023.1.2,None,
7002.jpg,4660.jpg,4 Points,4 Points,363 points,PS2_L6.csv,,,,,,,,,,,,,,,,,,,,,,,,,,,,,0,5,5,5,0,21,21,21,,,,,,,,,,,,,,,,,,,1617.7785165410023,p,2.106403000012506,1619.9667157079966,,,,,,272737,B,2024-12-09_11h05.17.360,EPIDM,2023.1.2,None,
A025.jpg,1051.jpg,0 Points,0 Points,363 points,PS2_L6.csv,,,,,,,,,,,,,,,,,,,,,,,,,,,,,0,5,5,5,0,22,22,22,,,,,,,,,,,,,,,,,,,1624.2125208750076,q,1.7372305419994518,1626.062389083003,,,,,,272737,B,2024-12-09_11h05.17.360,EPIDM,2023.1.2,None,
4510.jpg,2230.jpg,5 Points,5 Points,368 points,PS2_L6.csv,,,,,,,,,,,,,,,,,,,,,,,,,,,,,0,5,5,5,0,23,23,23,,,,,,,,,,,,,,,,,,,1630.2604120000033,q,1.3622491669957526,1631.6961203749815,,,1642.1712349579902,space,16.825034125999082,272737,B,2024-12-09_11h05.17.360,EPIDM,2023.1.2,None,
2383.jpg,1616.jpg,2 Points,2 Points,370 points,PS2_L7.csv,,,,,,,,,,,,,,,,,,,,,,,,,,,,,0,6,6,6,0,0,0,0,,,,,,,,,,,,,,,,,,,1662.3209995409998,q,1.4188356669910718,1663.821379290981,,,,,,272737,B,2024-12-09_11h05.17.360,EPIDM,2023.1.2,None,
1310.jpg,3181.jpg,4 Points,4 Points,374 points,PS2_L7.csv,,,,,,,,,,,,,,,,,,,,,,,,,,,,,0,6,6,6,0,1,1,1,,,,,,,,,,,,,,,,,,,1668.0669364999922,q,1.8078370829753112,1669.9541732909856,4,1.6068252499972004,,,,272737,B,2024-12-09_11h05.17.360,EPIDM,2023.1.2,None,
7289.jpg,4534.jpg,0 Points,0 Points,374 points,PS2_L7.csv,,,,,,,,,,,,,,,,,,,,,,,,,,,,,0,6,6,6,0,2,2,2,,,,,,,,,,,,,,,,,,,1675.8736637499824,p,1.2017660419805907,1677.1539901249926,,,,,,272737,B,2024-12-09_11h05.17.360,EPIDM,2023.1.2,None,
6010.jpg,7361.jpg,2 Points,2 Points,376 points,PS2_L7.csv,,,,,,,,,,,,,,,,,,,,,,,,,,,,,0,6,6,6,0,3,3,3,,,,,,,,,,,,,,,,,,,1681.406197290984,q,0.30865175000508316,1681.7879273750004,,,,,,272737,B,2024-12-09_11h05.17.360,EPIDM,2023.1.2,None,
2661.jpg,2870.jpg,5 Points,5 Points,381 points,PS2_L7.csv,,,,,,,,,,,,,,,,,,,,,,,,,,,,,0,6,6,6,0,4,4,4,,,,,,,,,,,,,,,,,,,1686.029968207993,q,1.6535475830023643,1687.7382953749911,,,,,,272737,B,2024-12-09_11h05.17.360,EPIDM,2023.1.2,None,
7220.jpg,8090.jpg,2 Points,2 Points,383 points,PS2_L7.csv,,,,,,,,,,,,,,,,,,,,,,,,,,,,,0,6,6,6,0,5,5,5,,,,,,,,,,,,,,,,,,,1691.996396957984,p,1.1516221259953454,1693.219751083001,,,,,,272737,B,2024-12-09_11h05.17.360,EPIDM,2023.1.2,None,
9140.jpg,2810.jpg,3 Points,3 Points,386 points,PS2_L7.csv,,,,,,,,,,,,,,,,,,,,,,,,,,,,,0,6,6,6,0,6,6,6,,,,,,,,,,,,,,,,,,,1697.4676932909933,q,2.248055333009688,1699.7914874999842,,,,,,272737,B,2024-12-09_11h05.17.360,EPIDM,2023.1.2,None,
2516.jpg,8500.jpg,4 Points,4 Points,390 points,PS2_L7.csv,,,,,,,,,,,,,,,,,,,,,,,,,,,,,0,6,6,6,0,7,7,7,,,,,,,,,,,,,,,,,,,1704.046255666006,q,1.2613087089848705,1705.3728255000024,,,,,,272737,B,2024-12-09_11h05.17.360,EPIDM,2023.1.2,None,
9070.jpg,9420.jpg,2 Points,2 Points,392 points,PS2_L7.csv,,,,,,,,,,,,,,,,,,,,,,,,,,,,,0,6,6,6,0,8,8,8,,,,,,,,,,,,,,,,,,,1709.629105540982,p,2.157981624972308,1711.8519432909961,,,,,,272737,B,2024-12-09_11h05.17.360,EPIDM,2023.1.2,None,
6561.jpg,1525.jpg,2 Points,2 Points,394 points,PS2_L7.csv,,,,,,,,,,,,,,,,,,,,,,,,,,,,,0,6,6,6,0,9,9,9,,,,,,,,,,,,,,,,,,,1716.1022445409908,q,1.6606120840006042,1717.822032750002,,,,,,272737,B,2024-12-09_11h05.17.360,EPIDM,2023.1.2,None,
7175.jpg,7490.jpg,2 Points,2 Points,396 points,PS2_L7.csv,,,,,,,,,,,,,,,,,,,,,,,,,,,,,0,6,6,6,0,10,10,10,,,,,,,,,,,,,,,,,,,1722.0810984160053,q,1.6722336249949876,1723.8268884999852,,,,,,272737,B,2024-12-09_11h05.17.360,EPIDM,2023.1.2,None,
8010.jpg,2630.jpg,0 Points,0 Points,396 points,PS2_L7.csv,,,,,,,,,,,,,,,,,,,,,,,,,,,,,0,6,6,6,0,11,11,11,,,,,,,,,,,,,,,,,,,1728.081862166,q,0.7607407920004334,1728.914021250006,,,,,,272737,B,2024-12-09_11h05.17.360,EPIDM,2023.1.2,None,
F174.jpg,9404.jpg,5 Points,5 Points,401 points,PS2_L7.csv,,,,,,,,,,,,,,,,,,,,,,,,,,,,,0,6,6,6,0,12,12,12,,,,,,,,,,,,,,,,,,,1733.1586855409842,p,2.2344614590110723,1735.507249999995,,,,,,272737,B,2024-12-09_11h05.17.360,EPIDM,2023.1.2,None,
2692.jpg,8231.jpg,4 Points,4 Points,405 points,PS2_L7.csv,,,,,,,,,,,,,,,,,,,,,,,,,,,,,0,6,6,6,0,13,13,13,,,,,,,,,,,,,,,,,,,1739.7223613329988,q,1.2629160000069533,1741.0519003329973,4,2.6049227509938646,,,,272737,B,2024-12-09_11h05.17.360,EPIDM,2023.1.2,None,
5994.jpg,5390.jpg,0 Points,0 Points,405 points,PS2_L7.csv,,,,,,,,,,,,,,,,,,,,,,,,,,,,,0,6,6,6,0,14,14,14,,,,,,,,,,,,,,,,,,,1747.9782818329986,q,1.327877959003672,1749.3618512910034,,,,,,272737,B,2024-12-09_11h05.17.360,EPIDM,2023.1.2,None,
9560.jpg,3071.jpg,1 Point,1 Point,406 points,PS2_L7.csv,,,,,,,,,,,,,,,,,,,,,,,,,,,,,0,6,6,6,0,15,15,15,,,,,,,,,,,,,,,,,,,1753.6177226250002,q,1.4637340839835815,1755.1498632080038,,,,,,272737,B,2024-12-09_11h05.17.360,EPIDM,2023.1.2,None,
9330.jpg,3015.jpg,5 Points,5 Points,411 points,PS2_L7.csv,,,,,,,,,,,,,,,,,,,,,,,,,,,,,0,6,6,6,0,16,16,16,,,,,,,,,,,,,,,,,,,1759.3945452499902,p,2.007506750000175,1761.4634778329928,,,,,,272737,B,2024-12-09_11h05.17.360,EPIDM,2023.1.2,None,
2389.jpg,7320.jpg,0 Points,0 Points,411 points,PS2_L7.csv,,,,,,,,,,,,,,,,,,,,,,,,,,,,,0,6,6,6,0,17,17,17,,,,,,,,,,,,,,,,,,,1765.7210994159977,p,2.047656916984124,1767.8478524159873,,,,,,272737,B,2024-12-09_11h05.17.360,EPIDM,2023.1.2,None,
6570.1.jpg,9432.jpg,5 Points,5 Points,416 points,PS2_L7.csv,,,,,,,,,,,,,,,,,,,,,,,,,,,,,0,6,6,6,0,18,18,18,,,,,,,,,,,,,,,,,,,1772.08862533301,q,1.016372959013097,1773.178056832985,,,,,,272737,B,2024-12-09_11h05.17.360,EPIDM,2023.1.2,None,
9452.jpg,7184.jpg,4 Points,4 Points,420 points,PS2_L7.csv,,,,,,,,,,,,,,,,,,,,,,,,,,,,,0,6,6,6,0,19,19,19,,,,,,,,,,,,,,,,,,,1777.4210623329855,q,1.6131459169846494,1779.1079852499824,,,,,,272737,B,2024-12-09_11h05.17.360,EPIDM,2023.1.2,None,
5120.jpg,5520.jpg,2 Points,2 Points,422 points,PS2_L7.csv,,,,,,,,,,,,,,,,,,,,,,,,,,,,,0,6,6,6,0,20,20,20,,,,,,,,,,,,,,,,,,,1783.3503805829969,p,1.9393299169896636,1785.3671111660078,,,,,,272737,B,2024-12-09_11h05.17.360,EPIDM,2023.1.2,None,
5970.jpg,3300.jpg,0 Points,0 Points,422 points,PS2_L7.csv,,,,,,,,,,,,,,,,,,,,,,,,,,,,,0,6,6,6,0,21,21,21,,,,,,,,,,,,,,,,,,,1789.620727832982,q,2.027493333996972,1791.716331957985,,,,,,272737,B,2024-12-09_11h05.17.360,EPIDM,2023.1.2,None,
7620.jpg,5395.jpg,1 Point,1 Point,423 points,PS2_L7.csv,,,,,,,,,,,,,,,,,,,,,,,,,,,,,0,6,6,6,0,22,22,22,,,,,,,,,,,,,,,,,,,1795.973936166003,q,1.666714042017702,1797.6986754999962,,,,,,272737,B,2024-12-09_11h05.17.360,EPIDM,2023.1.2,None,
P019.jpg,F158.jpg,3 Points,3 Points,426 points,PS2_L7.csv,,,,,,,,,,,,,,,,,,,,,,,,,,,,,0,6,6,6,0,23,23,23,,,,,,,,,,,,,,,,,,,1801.9500702499936,q,1.3937743749993388,1803.4914589579857,,,1813.8812311659858,space,8.95949658297468,272737,B,2024-12-09_11h05.17.360,EPIDM,2023.1.2,None,
2620.jpg,2594.jpg,0 Points,0 Points,426 points,PS2_L8.csv,,,,,,,,,,,,,,,,,,,,,,,,,,,,,0,7,7,7,0,0,0,0,,,,,,,,,,,,,,,,,,,1826.1627405830077,q,1.4543462919828016,1827.718580124987,,,,,,272737,B,2024-12-09_11h05.17.360,EPIDM,2023.1.2,None,
F369.jpg,3100.jpg,2 Points,2 Points,428 points,PS2_L8.csv,,,,,,,,,,,,,,,,,,,,,,,,,,,,,0,7,7,7,0,1,1,1,,,,,,,,,,,,,,,,,,,1831.9294264579949,p,1.7663963329978287,1833.7881356659927,2,1.2658699169696774,,,,272737,B,2024-12-09_11h05.17.360,EPIDM,2023.1.2,None,
1052.jpg,1201.jpg,3 Points,3 Points,431 points,PS2_L8.csv,,,,,,,,,,,,,,,,,,,,,,,,,,,,,0,7,7,7,0,2,2,2,,,,,,,,,,,,,,,,,,,1839.383296999993,p,1.1277323749964125,1840.6165731250076,,,,,,272737,B,2024-12-09_11h05.17.360,EPIDM,2023.1.2,None,
2606.jpg,2480.jpg,1 Point,1 Point,432 points,PS2_L8.csv,,,,,,,,,,,,,,,,,,,,,,,,,,,,,0,7,7,7,0,3,3,3,,,,,,,,,,,,,,,,,,,1844.8338746659865,p,1.8857485419721343,1846.7860842079972,,,,,,272737,B,2024-12-09_11h05.17.360,EPIDM,2023.1.2,None,
9594.jpg,1080.jpg,4 Points,4 Points,436 points,PS2_L8.csv,,,,,,,,,,,,,,,,,,,,,,,,,,,,,0,7,7,7,0,4,4,4,,,,,,,,,,,,,,,,,,,1851.048735749995,q,1.3992787919705734,1852.51932141601,,,,,,272737,B,2024-12-09_11h05.17.360,EPIDM,2023.1.2,None,
4770.jpg,4275.jpg,3 Points,3 Points,439 points,PS2_L8.csv,,,,,,,,,,,,,,,,,,,,,,,,,,,,,0,7,7,7,0,5,5,5,,,,,,,,,,,,,,,,,,,1856.755566125008,q,1.7785881259769667,1858.6170559159946,,,,,,272737,B,2024-12-09_11h05.17.360,EPIDM,2023.1.2,None,
P077.jpg,A041.jpg,1 Point,1 Point,440 points,PS2_L8.csv,,,,,,,,,,,,,,,,,,,,,,,,,,,,,0,7,7,7,0,6,6,6,,,,,,,,,,,,,,,,,,,1862.868104166002,q,1.1149415420077275,1864.1290404580068,,,,,,272737,B,2024-12-09_11h05.17.360,EPIDM,2023.1.2,None,
6550.jpg,9582.jpg,5 Points,5 Points,445 points,PS2_L8.csv,,,,,,,,,,,,,,,,,,,,,,,,,,,,,0,7,7,7,0,7,7,7,,,,,,,,,,,,,,,,,,,1868.3020358329813,q,1.5286167500016745,1869.9385667500028,,,,,,272737,B,2024-12-09_11h05.17.360,EPIDM,2023.1.2,None,
8040.jpg,7185.jpg,1 Point,1 Point,446 points,PS2_L8.csv,,,,,,,,,,,,,,,,,,,,,,,,,,,,,0,7,7,7,0,8,8,8,,,,,,,,,,,,,,,,,,,1874.1488729999983,q,1.6585802499903366,1875.8877361659834,,,,,,272737,B,2024-12-09_11h05.17.360,EPIDM,2023.1.2,None,
P233.jpg,3060.jpg,1 Point,1 Point,447 points,PS2_L8.csv,,,,,,,,,,,,,,,,,,,,,,,,,,,,,0,7,7,7,0,9,9,9,,,,,,,,,,,,,,,,,,,1880.1389782500046,p,2.0110904169850983,1882.2642658749828,,,,,,272737,B,2024-12-09_11h05.17.360,EPIDM,2023.1.2,None,
1090.jpg,P217.jpg,5 Points,5 Points,452 points,PS2_L8.csv,,,,,,,,,,,,,,,,,,,,,,,,,,,,,0,7,7,7,0,10,10,10,,,,,,,,,,,,,,,,,,,1886.4698227499903,p,2.1047337090130895,1888.7127904160006,,,,,,272737,B,2024-12-09_11h05.17.360,EPIDM,2023.1.2,None,
9405.jpg,6250.2.jpg,3 Points,3 Points,455 points,PS2_L8.csv,,,,,,,,,,,,,,,,,,,,,,,,,,,,,0,7,7,7,0,11,11,11,,,,,,,,,,,,,,,,,,,1892.884387625003,q,1.249952249985654,1894.2460412909859,,,,,,272737,B,2024-12-09_11h05.17.360,EPIDM,2023.1.2,None,
1610.jpg,F203.jpg,0 Points,0 Points,455 points,PS2_L8.csv,,,,,,,,,,,,,,,,,,,,,,,,,,,,,0,7,7,7,0,12,12,12,,,,,,,,,,,,,,,,,,,1898.4670693329826,p,1.7220270420075394,1900.3057899159903,,,,,,272737,B,2024-12-09_11h05.17.360,EPIDM,2023.1.2,None,
P222.jpg,9401.jpg,2 Points,2 Points,457 points,PS2_L8.csv,,,,,,,,,,,,,,,,,,,,,,,,,,,,,0,7,7,7,0,13,13,13,,,,,,,,,,,,,,,,,,,1904.5207979999832,q,1.7407797499909066,1906.3985247910023,2,1.198879167000996,,,,272737,B,2024-12-09_11h05.17.360,EPIDM,2023.1.2,None,
5471.jpg,7352.jpg,2 Points,2 Points,459 points,PS2_L8.csv,,,,,,,,,,,,,,,,,,,,,,,,,,,,,0,7,7,7,0,14,14,14,,,,,,,,,,,,,,,,,,,1911.8841159580043,q,1.2181717510102317,1913.1689756659907,,,,,,272737,B,2024-12-09_11h05.17.360,EPIDM,2023.1.2,None,
9042.jpg,2753.jpg,0 Points,0 Points,459 points,PS2_L8.csv,,,,,,,,,,,,,,,,,,,,,,,,,,,,,0,7,7,7,0,15,15,15,,,,,,,,,,,,,,,,,,,1917.4097802499891,q,1.6681999169813935,1919.1516933329985,,,,,,272737,B,2024-12-09_11h05.17.360,EPIDM,2023.1.2,None,
8311.jpg,4609.jpg,2 Points,2 Points,461 points,PS2_L8.csv,,,,,,,,,,,,,,,,,,,,,,,,,,,,,0,7,7,7,0,16,16,16,,,,,,,,,,,,,,,,,,,1923.409383249993,p,1.388786583993351,1924.8613608749874,,,,,,272737,B,2024-12-09_11h05.17.360,EPIDM,2023.1.2,None,
2320.jpg,2791.jpg,4 Points,4 Points,465 points,PS2_L8.csv,,,,,,,,,,,,,,,,,,,,,,,,,,,,,0,7,7,7,0,17,17,17,,,,,,,,,,,,,,,,,,,1929.1105909580074,q,1.5747537089919206,1930.748313832999,,,,,,272737,B,2024-12-09_11h05.17.360,EPIDM,2023.1.2,None,
F365.jpg,3180.jpg,5 Points,5 Points,470 points,PS2_L8.csv,,,,,,,,,,,,,,,,,,,,,,,,,,,,,0,7,7,7,0,18,18,18,,,,,,,,,,,,,,,,,,,1935.0045025410072,q,1.7612052089825738,1936.865559208003,,,,,,272737,B,2024-12-09_11h05.17.360,EPIDM,2023.1.2,None,
9300.jpg,1050.jpg,4 Points,4 Points,474 points,PS2_L8.csv,,,,,,,,,,,,,,,,,,,,,,,,,,,,,0,7,7,7,0,19,19,19,,,,,,,,,,,,,,,,,,,1941.0772480409942,q,1.3677262499986682,1942.5083346249885,,,,,,272737,B,2024-12-09_11h05.17.360,EPIDM,2023.1.2,None,
6150.jpg,2206.jpg,0 Points,0 Points,474 points,PS2_L8.csv,,,,,,,,,,,,,,,,,,,,,,,,,,,,,0,7,7,7,0,20,20,20,,,,,,,,,,,,,,,,,,,1946.753273957991,q,1.2521232919825707,1948.0809515829897,,,,,,272737,B,2024-12-09_11h05.17.360,EPIDM,2023.1.2,None,
6260.jpg,3062.jpg,3 Points,3 Points,477 points,PS2_L8.csv,,,,,,,,,,,,,,,,,,,,,,,,,,,,,0,7,7,7,0,21,21,21,,,,,,,,,,,,,,,,,,,1952.3253616250004,p,1.2556474589800928,1953.6592207909853,,,,,,272737,B,2024-12-09_11h05.17.360,EPIDM,2023.1.2,None,
6571.jpg,P237.jpg,2 Points,2 Points,479 points,PS2_L8.csv,,,,,,,,,,,,,,,,,,,,,,,,,,,,,0,7,7,7,0,22,22,22,,,,,,,,,,,,,,,,,,,1957.9127578749903,q,1.4277553749852814,1959.4558911659988,,,,,,272737,B,2024-12-09_11h05.17.360,EPIDM,2023.1.2,None,
7283.jpg,1720.jpg,4 Points,4 Points,483 points,PS2_L8.csv,,,,,,,,,,,,,,,,,,,,,,,,,,,,,0,7,7,7,0,23,23,23,,,,,,,,,,,,,,,,,,,1963.6656245409977,p,2.034764334006468,1965.7858679580095,,,1976.2611658329843,space,16.942558583978098,272737,B,2024-12-09_11h05.17.360,EPIDM,2023.1.2,None,
3160.jpg,6210.jpg,1 Point,1 Point,484 points,PS2_L9.csv,,,,,,,,,,,,,,,,,,,,,,,,,,,,,0,8,8,8,0,0,0,0,,,,,,,,,,,,,,,,,,,1996.524426707998,q,1.4716700419667177,1998.0713491250062,,,,,,272737,B,2024-12-09_11h05.17.360,EPIDM,2023.1.2,None,
2100.jpg,7205.jpg,5 Points,5 Points,489 points,PS2_L9.csv,,,,,,,,,,,,,,,,,,,,,,,,,,,,,0,8,8,8,0,1,1,1,,,,,,,,,,,,,,,,,,,2002.3120491660084,p,1.7390176669869106,2004.120706082991,5,2.9919559590052813,,,,272737,B,2024-12-09_11h05.17.360,EPIDM,2023.1.2,None,
9110.jpg,3051.jpg,1 Point,1 Point,490 points,PS2_L9.csv,,,,,,,,,,,,,,,,,,,,,,,,,,,,,0,8,8,8,0,2,2,2,,,,,,,,,,,,,,,,,,,2011.4317454999837,p,1.0509313759976067,2012.5708799999848,,,,,,272737,B,2024-12-09_11h05.17.360,EPIDM,2023.1.2,None,
9101.jpg,9571.jpg,2 Points,2 Points,492 points,PS2_L9.csv,,,,,,,,,,,,,,,,,,,,,,,,,,,,,0,8,8,8,0,3,3,3,,,,,,,,,,,,,,,,,,,2016.8150934579899,q,1.067506750987377,2017.9627354579861,,,,,,272737,B,2024-12-09_11h05.17.360,EPIDM,2023.1.2,None,
5410.jpg,1450.jpg,5 Points,5 Points,497 points,PS2_L9.csv,,,,,,,,,,,,,,,,,,,,,,,,,,,,,0,8,8,8,0,4,4,4,,,,,,,,,,,,,,,,,,,2022.206231249991,q,1.0683464169851504,2023.3353275829868,,,,,,272737,B,2024-12-09_11h05.17.360,EPIDM,2023.1.2,None,
F149.jpg,3030.jpg,0 Points,0 Points,497 points,PS2_L9.csv,,,,,,,,,,,,,,,,,,,,,,,,,,,,,0,8,8,8,0,5,5,5,,,,,,,,,,,,,,,,,,,2027.597647165996,q,1.1251303329772782,2028.8314280409832,,,,,,272737,B,2024-12-09_11h05.17.360,EPIDM,2023.1.2,None,
3266.jpg,7360.jpg,1 Point,1 Point,498 points,PS2_L9.csv,,,,,,,,,,,,,,,,,,,,,,,,,,,,,0,8,8,8,0,6,6,6,,,,,,,,,,,,,,,,,,,2033.0437410830054,q,1.4710607079905458,2034.5881339579937,,,,,,272737,B,2024-12-09_11h05.17.360,EPIDM,2023.1.2,None,
5660.jpg,5201.jpg,0 Points,0 Points,498 points,PS2_L9.csv,,,,,,,,,,,,,,,,,,,,,,,,,,,,,0,8,8,8,0,7,7,7,,,,,,,,,,,,,,,,,,,2038.8467898329836,q,1.1875290000170935,2040.1160046659934,,,,,,272737,B,2024-12-09_11h05.17.360,EPIDM,2023.1.2,None,
1945.jpg,2800.jpg,4 Points,4 Points,502 points,PS2_L9.csv,,,,,,,,,,,,,,,,,,,,,,,,,,,,,0,8,8,8,0,8,8,8,,,,,,,,,,,,,,,,,,,2044.357821624988,p,1.7805392919981387,2046.2089927909838,,,,,,272737,B,2024-12-09_11h05.17.360,EPIDM,2023.1.2,None,
3000.jpg,6200.jpg,5 Points,5 Points,507 points,PS2_L9.csv,,,,,,,,,,,,,,,,,,,,,,,,,,,,,0,8,8,8,0,9,9,9,,,,,,,,,,,,,,,,,,,2050.4582761249912,q,1.4002453749708366,2051.9243619999907,,,,,,272737,B,2024-12-09_11h05.17.360,EPIDM,2023.1.2,None,
2215.jpg,2512.jpg,1 Point,1 Point,508 points,PS2_L9.csv,,,,,,,,,,,,,,,,,,,,,,,,,,,,,0,8,8,8,0,10,10,10,,,,,,,,,,,,,,,,,,,2056.1717771249823,q,1.9819703329994809,2058.2248847500014,,,,,,272737,B,2024-12-09_11h05.17.360,EPIDM,2023.1.2,None,
5460.jpg,5800.jpg,0 Points,0 Points,508 points,PS2_L9.csv,,,,,,,,,,,,,,,,,,,,,,,,,,,,,0,8,8,8,0,11,11,11,,,,,,,,,,,,,,,,,,,2062.4711768330017,p,1.9869330420042388,2064.5411157500057,,,,,,272737,B,2024-12-09_11h05.17.360,EPIDM,2023.1.2,None,
3061.jpg,2717.jpg,4 Points,4 Points,512 points,PS2_L9.csv,,,,,,,,,,,,,,,,,,,,,,,,,,,,,0,8,8,8,0,12,12,12,,,,,,,,,,,,,,,,,,,2068.7864321660018,q,1.5118566669989377,2070.373941333004,,,,,,272737,B,2024-12-09_11h05.17.360,EPIDM,2023.1.2,None,
7380.jpg,1220.jpg,1 Point,1 Point,513 points,PS2_L9.csv,,,,,,,,,,,,,,,,,,,,,,,,,,,,,0,8,8,8,0,13,13,13,,,,,,,,,,,,,,,,,,,2074.6305749159947,p,2.4018327089725062,2077.101218333002,1,1.5413495839748066,,,,272737,B,2024-12-09_11h05.17.360,EPIDM,2023.1.2,None,
1740.jpg,7480.jpg,0 Points,0 Points,513 points,PS2_L9.csv,,,,,,,,,,,,,,,,,,,,,,,,,,,,,0,8,8,8,0,14,14,14,,,,,,,,,,,,,,,,,,,2082.946391083009,q,1.550634083978366,2084.5644835830026,,,,,,272737,B,2024-12-09_11h05.17.360,EPIDM,2023.1.2,None,
7285.jpg,4233.jpg,5 Points,5 Points,518 points,PS2_L9.csv,,,,,,,,,,,,,,,,,,,,,,,,,,,,,0,8,8,8,0,15,15,15,,,,,,,,,,,,,,,,,,,2088.8123642909923,p,1.3334892919810954,2090.2234024159843,,,,,,272737,B,2024-12-09_11h05.17.360,EPIDM,2023.1.2,None,
6830.jpg,6212.jpg,4 Points,4 Points,522 points,PS2_L9.csv,,,,,,,,,,,,,,,,,,,,,,,,,,,,,0,8,8,8,0,16,16,16,,,,,,,,,,,,,,,,,,,2094.472232125001,p,1.7530331670132,2096.2907670830027,,,,,,272737,B,2024-12-09_11h05.17.360,EPIDM,2023.1.2,None,
7830.jpg,2499.jpg,3 Points,3 Points,525 points,PS2_L9.csv,,,,,,,,,,,,,,,,,,,,,,,,,,,,,0,8,8,8,0,17,17,17,,,,,,,,,,,,,,,,,,,2100.536108750006,p,2.0414507079985924,2102.6405022499966,,,,,,272737,B,2024-12-09_11h05.17.360,EPIDM,2023.1.2,None,
9520.jpg,1931.jpg,3 Points,3 Points,528 points,PS2_L9.csv,,,,,,,,,,,,,,,,,,,,,,,,,,,,,0,8,8,8,0,18,18,18,,,,,,,,,,,,,,,,,,,2106.89652083299,q,1.6870207499887329,2108.6423640410067,,,,,,272737,B,2024-12-09_11h05.17.360,EPIDM,2023.1.2,None,
9160.jpg,1200.jpg,4 Points,4 Points,532 points,PS2_L9.csv,,,,,,,,,,,,,,,,,,,,,,,,,,,,,0,8,8,8,0,19,19,19,,,,,,,,,,,,,,,,,,,2112.912080082984,q,1.1832572919956874,2114.177060916001,,,,,,272737,B,2024-12-09_11h05.17.360,EPIDM,2023.1.2,None,
2020.jpg,1947.jpg,5 Points,5 Points,537 points,PS2_L9.csv,,,,,,,,,,,,,,,,,,,,,,,,,,,,,0,8,8,8,0,20,20,20,,,,,,,,,,,,,,,,,,,2118.4196933330095,q,1.0065215840004385,2119.499625541008,,,,,,272737,B,2024-12-09_11h05.17.360,EPIDM,2023.1.2,None,
4535.jpg,1811.jpg,1 Point,1 Point,538 points,PS2_L9.csv,,,,,,,,,,,,,,,,,,,,,,,,,,,,,0,8,8,8,0,21,21,21,,,,,,,,,,,,,,,,,,,2123.7459110830096,q,1.0868069999851286,2124.9044830829953,,,,,,272737,B,2024-12-09_11h05.17.360,EPIDM,2023.1.2,None,
9910.jpg,6940.jpg,2 Points,2 Points,540 points,PS2_L9.csv,,,,,,,,,,,,,,,,,,,,,,,,,,,,,0,8,8,8,0,22,22,22,,,,,,,,,,,,,,,,,,,2129.148886124982,p,1.7789045839745086,2130.999234916002,,,,,,272737,B,2024-12-09_11h05.17.360,EPIDM,2023.1.2,None,
9480.jpg,9250.jpg,0 Points,0 Points,540 points,PS2_L9.csv,,,,,,,,,,,,,,,,,,,,,,,,,,,,,0,8,8,8,0,23,23,23,,,,,,,,,,,,,,,,,,,2135.244434249995,p,1.9072047509835102,2137.204606082989,,,2147.723572415998,space,7.291406167001696,272737,B,2024-12-09_11h05.17.360,EPIDM,2023.1.2,None,
1660.jpg,2840.jpg,2 Points,2 Points,542 points,PS2_L10.csv,,,,,,,,,,,,,,,,,,,,,,,,,,,,,0,9,9,9,0,0,0,0,,,,,,,,,,,,,,,,,,,2158.3346787499904,p,1.1760281260067131,2159.578634125006,,,,,,272737,B,2024-12-09_11h05.17.360,EPIDM,2023.1.2,None,
2691.jpg,7640.jpg,0 Points,0 Points,542 points,PS2_L10.csv,,,,,,,,,,,,,,,,,,,,,,,,,,,,,0,9,9,9,0,1,1,1,,,,,,,,,,,,,,,,,,,2163.8283735830046,q,1.0911882919899654,2164.9758182079822,0,1.414219124999363,,,,272737,B,2024-12-09_11h05.17.360,EPIDM,2023.1.2,None,
9180.jpg,9046.jpg,3 Points,3 Points,545 points,PS2_L10.csv,,,,,,,,,,,,,,,,,,,,,,,,,,,,,0,9,9,9,0,2,2,2,,,,,,,,,,,,,,,,,,,2170.700978207984,p,1.8419976249861065,2172.6097348750045,,,,,,272737,B,2024-12-09_11h05.17.360,EPIDM,2023.1.2,None,
8041.jpg,2271.jpg,2 Points,2 Points,547 points,PS2_L10.csv,,,,,,,,,,,,,,,,,,,,,,,,,,,,,0,9,9,9,0,3,3,3,,,,,,,,,,,,,,,,,,,2176.860605875001,p,1.3479060839745216,2178.2689231660042,,,,,,272737,B,2024-12-09_11h05.17.360,EPIDM,2023.1.2,None,
1661.jpg,1321.jpg,3 Points,3 Points,550 points,PS2_L10.csv,,,,,,,,,,,,,,,,,,,,,,,,,,,,,0,9,9,9,0,4,4,4,,,,,,,,,,,,,,,,,,,2182.526910332992,q,1.4641094590188004,2184.0605851660075,,,,,,272737,B,2024-12-09_11h05.17.360,EPIDM,2023.1.2,None,
9430.jpg,3010.jpg,5 Points,5 Points,555 points,PS2_L10.csv,,,,,,,,,,,,,,,,,,,,,,,,,,,,,0,9,9,9,0,5,5,5,,,,,,,,,,,,,,,,,,,2188.313411374984,p,1.4281726669869386,2189.801123665995,,,,,,272737,B,2024-12-09_11h05.17.360,EPIDM,2023.1.2,None,
2616.jpg,7238.jpg,4 Points,4 Points,559 points,PS2_L10.csv,,,,,,,,,,,,,,,,,,,,,,,,,,,,,0,9,9,9,0,6,6,6,,,,,,,,,,,,,,,,,,,2194.057765415986,q,1.2287917500070762,2195.3564131660096,,,,,,272737,B,2024-12-09_11h05.17.360,EPIDM,2023.1.2,None,
9470.jpg,9400.jpg,3 Points,3 Points,562 points,PS2_L10.csv,,,,,,,,,,,,,,,,,,,,,,,,,,,,,0,9,9,9,0,7,7,7,,,,,,,,,,,,,,,,,,,2199.603186291002,p,1.3309223760152236,2200.998831832985,,,,,,272737,B,2024-12-09_11h05.17.360,EPIDM,2023.1.2,None,
8260.jpg,8280.jpg,3 Points,3 Points,565 points,PS2_L10.csv,,,,,,,,,,,,,,,,,,,,,,,,,,,,,0,9,9,9,0,8,8,8,,,,,,,,,,,,,,,,,,,2205.2594715000014,p,2.186278917011805,2207.512243083009,,,,,,272737,B,2024-12-09_11h05.17.360,EPIDM,2023.1.2,None,
9230.jpg,9181.jpg,0 Points,0 Points,565 points,PS2_L10.csv,,,,,,,,,,,,,,,,,,,,,,,,,,,,,0,9,9,9,0,9,9,9,,,,,,,,,,,,,,,,,,,2211.766810333007,q,1.767654291994404,2213.600665624981,,,,,,272737,B,2024-12-09_11h05.17.360,EPIDM,2023.1.2,None,
6834.jpg,9120.jpg,5 Points,5 Points,570 points,PS2_L10.csv,,,,,,,,,,,,,,,,,,,,,,,,,,,,,0,9,9,9,0,10,10,10,,,,,,,,,,,,,,,,,,,2217.8634684999997,q,2.8064113750006072,2220.722079540981,,,,,,272737,B,2024-12-09_11h05.17.360,EPIDM,2023.1.2,None,
2440.jpg,7351.jpg,4 Points,4 Points,574 points,PS2_L10.csv,,,,,,,,,,,,,,,,,,,,,,,,,,,,,0,9,9,9,0,11,11,11,,,,,,,,,,,,,,,,,,,2224.9791298749915,q,0.866040916997008,2225.922561665997,,,,,,272737,B,2024-12-09_11h05.17.360,EPIDM,2023.1.2,None,
9280.jpg,9390.jpg,1 Point,1 Point,575 points,PS2_L10.csv,,,,,,,,,,,,,,,,,,,,,,,,,,,,,0,9,9,9,0,12,12,12,,,,,,,,,,,,,,,,,,,2230.1713692499907,p,1.8523527499928605,2232.101652207988,,,,,,272737,B,2024-12-09_11h05.17.360,EPIDM,2023.1.2,None,
7186.jpg,9182.jpg,2 Points,2 Points,577 points,PS2_L10.csv,,,,,,,,,,,,,,,,,,,,,,,,,,,,,0,9,9,9,0,13,13,13,,,,,,,,,,,,,,,,,,,2236.343003499991,q,2.5903243749926332,2239.0172086659877,2,1.4064005420077592,,,,272737,B,2024-12-09_11h05.17.360,EPIDM,2023.1.2,None,
7820.jpg,1121.jpg,0 Points,0 Points,577 points,PS2_L10.csv,,,,,,,,,,,,,,,,,,,,,,,,,,,,,0,9,9,9,0,14,14,14,,,,,,,,,,,,,,,,,,,2244.734757625003,q,1.2537391670048237,2246.069519499986,,,,,,272737,B,2024-12-09_11h05.17.360,EPIDM,2023.1.2,None,
1110.jpg,9331.jpg,2 Points,2 Points,579 points,PS2_L10.csv,,,,,,,,,,,,,,,,,,,,,,,,,,,,,0,9,9,9,0,15,15,15,,,,,,,,,,,,,,,,,,,2250.309395958,p,1.3832544589822646,2251.764859957999,,,,,,272737,B,2024-12-09_11h05.17.360,EPIDM,2023.1.2,None,
9001.jpg,9620.jpg,1 Point,1 Point,580 points,PS2_L10.csv,,,,,,,,,,,,,,,,,,,,,,,,,,,,,0,9,9,9,0,16,16,16,,,,,,,,,,,,,,,,,,,2256.0084543330013,q,1.8602968339982908,2257.9386428330035,,,,,,272737,B,2024-12-09_11h05.17.360,EPIDM,2023.1.2,None,
5535.jpg,8210.jpg,3 Points,3 Points,583 points,PS2_L10.csv,,,,,,,,,,,,,,,,,,,,,,,,,,,,,0,9,9,9,0,17,17,17,,,,,,,,,,,,,,,,,,,2262.1815265409823,p,1.4789464169880375,2263.736939708004,,,,,,272737,B,2024-12-09_11h05.17.360,EPIDM,2023.1.2,None,
7950.jpg,7187.jpg,1 Point,1 Point,584 points,PS2_L10.csv,,,,,,,,,,,,,,,,,,,,,,,,,,,,,0,9,9,9,0,18,18,18,,,,,,,,,,,,,,,,,,,2267.98260662501,q,1.8783822509867605,2269.9315885409887,,,,,,272737,B,2024-12-09_11h05.17.360,EPIDM,2023.1.2,None,
3250.jpg,A053.jpg,3 Points,3 Points,587 points,PS2_L10.csv,,,,,,,,,,,,,,,,,,,,,,,,,,,,,0,9,9,9,0,19,19,19,,,,,,,,,,,,,,,,,,,2274.191697250004,q,1.0843504169897642,2275.385929124983,,,,,,272737,B,2024-12-09_11h05.17.360,EPIDM,2023.1.2,None,
2205.jpg,3053.jpg,4 Points,4 Points,591 points,PS2_L10.csv,,,,,,,,,,,,,,,,,,,,,,,,,,,,,0,9,9,9,0,20,20,20,,,,,,,,,,,,,,,,,,,2279.597637915984,p,0.8711082089866977,2280.5374037500005,,,,,,272737,B,2024-12-09_11h05.17.360,EPIDM,2023.1.2,None,
5594.jpg,5750.jpg,5 Points,5 Points,596 points,PS2_L10.csv,,,,,,,,,,,,,,,,,,,,,,,,,,,,,0,9,9,9,0,21,21,21,,,,,,,,,,,,,,,,,,,2284.7930311659875,q,0.6741576250060461,2285.546531083004,,,,,,272737,B,2024-12-09_11h05.17.360,EPIDM,2023.1.2,None,
6900.jpg,8531.jpg,4 Points,4 Points,600 points,PS2_L10.csv,,,,,,,,,,,,,,,,,,,,,,,,,,,,,0,9,9,9,0,22,22,22,,,,,,,,,,,,,,,,,,,2289.7878230829956,p,1.9524054169887677,2291.823681040987,,,,,,272737,B,2024-12-09_11h05.17.360,EPIDM,2023.1.2,None,
1019.jpg,2120.jpg,0 Points,0 Points,600 points,PS2_L10.csv,,,,,,,,,,,,,,,,,,,,,,,,,,,,,0,9,9,9,0,23,23,23,,,,,,,,,,,,,,,,,,,2296.0641079579946,p,0.6269623749831226,2296.7650476249983,,,2307.2274365829944,space,4.144052999996347,272737,B,2024-12-09_11h05.17.360,EPIDM,2023.1.2,None,
