L_Scene,R_Scene,Points_L,Points_R,PtTotal,blockFile,Instructions_Loop.thisRepN,Instructions_Loop.thisTrialN,Instructions_Loop.thisN,Instructions_Loop.thisIndex,Redo_Instructions_Loop.thisRepN,Redo_Instructions_Loop.thisTrialN,Redo_Instructions_Loop.thisN,Redo_Instructions_Loop.thisIndex,Practice_Encoding_Loop.thisRepN,Practice_Encoding_Loop.thisTrialN,Practice_Encoding_Loop.thisN,Practice_Encoding_Loop.thisIndex,Practice_Response_Fail_Loop.thisRepN,Practice_Response_Fail_Loop.thisTrialN,Practice_Response_Fail_Loop.thisN,Practice_Response_Fail_Loop.thisIndex,Practice_FB_Loop.thisRepN,Practice_FB_Loop.thisTrialN,Practice_FB_Loop.thisN,Practice_FB_Loop.thisIndex,Practice_Attention_Loop.thisRepN,Practice_Attention_Loop.thisTrialN,Practice_Attention_Loop.thisN,Practice_Attention_Loop.thisIndex,Practice_EncBrk_Loop.thisRepN,Practice_EncBrk_Loop.thisTrialN,Practice_EncBrk_Loop.thisN,Practice_EncBrk_Loop.thisIndex,Encoding_Loop.thisRepN,Encoding_Loop.thisTrialN,Encoding_Loop.thisN,Encoding_Loop.thisIndex,EncStim_Loop.thisRepN,EncStim_Loop.thisTrialN,EncStim_Loop.thisN,EncStim_Loop.thisIndex,Response_Fail_Loop.thisRepN,Response_Fail_Loop.thisTrialN,Response_Fail_Loop.thisN,Response_Fail_Loop.thisIndex,FB_Loop.thisRepN,FB_Loop.thisTrialN,FB_Loop.thisN,FB_Loop.thisIndex,Attention_Loop.thisRepN,Attention_Loop.thisTrialN,Attention_Loop.thisN,Attention_Loop.thisIndex,EncBrk_Loop.thisRepN,EncBrk_Loop.thisTrialN,EncBrk_Loop.thisN,EncBrk_Loop.thisIndex,Transition_Enc.keys,Transition_Enc.rt,Encoding_Resp.started,Encoding_Resp.keys,Encoding_Resp.rt,R_Point_FB_Stim.started,Attn_resp.keys,Attn_resp.rt,Progress_Tracker.started,EncBrk_Resp.keys,EncBrk_Resp.rt,participant,Group,date,expName,psychopyVersion,frameRate,
,,,,,,,,,,,,,,,,,,,,,,,,,,,,,,,,,,,,,,,,,,,,,,,,,,,,,,,,,,space,6.57512341599795,,,,,,,,,,271957,A,2024-12-11_11h11.08.394,EPIDM,2023.1.2,None,
A060.jpg,F041.jpg,5 Points,5 Points,5 Points,,,,,,,,,,0,0,0,0,,,,,,,,,,,,,,,,,,,,,,,,,,,,,,,,,,,,,,,,,,,1949.0176043759857,q,2.080050957010826,1951.2508120420098,,,,,,271957,A,2024-12-11_11h11.08.394,EPIDM,2023.1.2,None,
O161.jpg,1812.jpg,2 Points,2 Points,7 Points,,,,,,,,,,0,1,1,1,,,,,,,,,,,,,,,,,,,,,,,,,,,,,,,,,,,,,,,,,,,1955.4203327919822,p,1.84582429099828,1957.406814041984,,,,,,271957,A,2024-12-11_11h11.08.394,EPIDM,2023.1.2,None,
O013.jpg,A001.jpg,3 Points,3 Points,10 Points,,,,,,,,,,0,2,2,2,,,,,,,,,,,,,,,,,,,,,,,,,,,,,,,,,,,,,,,,,,,1961.5804345009965,q,2.749860040989006,1964.4757333759917,,,,,,271957,A,2024-12-11_11h11.08.394,EPIDM,2023.1.2,None,
P036.jpg,F273.jpg,5 Points,5 Points,15 Points,,,,,,,,,,0,3,3,3,,,,,,,,,,,,,,,,,,,,,,,,,,,,,,,,,,,,,,,,,,,1968.6456475419982,p,2.259872416005237,1971.0727001260093,,,,,,271957,A,2024-12-11_11h11.08.394,EPIDM,2023.1.2,None,
L130.jpg,2393.jpg,0 Points,0 Points,15 Points,,,,,,,,,,0,4,4,4,,,,,,,,,,,,,,,,,,,,,,,,,,,,,,,,,,,,,,,,,,,1975.2258392089861,q,2.144123666017549,1977.512468750996,0,5.354532249009935,,,,271957,A,2024-12-11_11h11.08.394,EPIDM,2023.1.2,None,
F279.jpg,P033.jpg,3 Points,3 Points,18 Points,,,,,,,,,,0,5,5,5,,,,,,,,,,,,,,,,,,,,,,,,,,,,,,,,,,,,,,,,,,,1987.14758858399,p,2.6632542079896666,1989.9852354169998,,,,,,271957,A,2024-12-11_11h11.08.394,EPIDM,2023.1.2,None,
A104.jpg,2593.jpg,2 Points,2 Points,20 Points,,,,,,,,,,0,6,6,6,,,,,,,,,,,,,,,,,,,,,,,,,,,,,,,,,,,,,,,,,,,1994.1285030840081,q,1.8015173330204561,1996.077503626002,,,,,,271957,A,2024-12-11_11h11.08.394,EPIDM,2023.1.2,None,
2598.jpg,2605.jpg,0 Points,0 Points,20 Points,,,,,,,,,,0,7,7,7,,,,,,,,,,,,,,,,,,,,,,,,,,,,,,,,,,,,,,,,,,,2000.2564359589887,p,1.7372512499860022,2002.095314459002,,,,,,271957,A,2024-12-11_11h11.08.394,EPIDM,2023.1.2,None,
L005.jpg,O011.jpg,1 Points,1 Points,21 Points,,,,,,,,,,0,8,8,8,,,,,,,,,,,,,,,,,,,,,,,,,,,,,,,,,,,,,,,,,,,2006.31371812601,p,1.8556372910097707,2008.309782250988,,,,,,271957,A,2024-12-11_11h11.08.394,EPIDM,2023.1.2,None,
8186.jpg,F078.jpg,2 Points,2 Points,23 Points,,,,,,,,,,0,9,9,9,,,,,,,,,,,,,,,,,,,,,,,,,,,,,,,,,,,,,,,,,,,2012.4842431669822,q,1.5334311240003444,2014.1622779589961,2,2.4967687080206815,2026.988794125995,space,8.373516958032269,271957,A,2024-12-11_11h11.08.394,EPIDM,2023.1.2,None,
,,,,,,,,,,,,,,,,,,,,,,,,,,,,,,,,,,,,,,,,,,,,,,,,,,,,,,,,,,space,3.321881291019963,,,,,,,,,,271957,A,2024-12-11_11h11.08.394,EPIDM,2023.1.2,None,
1019.jpg,2120.jpg,0 Points,0 Points,0 Points,PS1_L1.csv,,,,,,,,,,,,,,,,,,,,,,,,,,,,,0,0,0,0,0,0,0,0,,,,,,,,,,,,,,,,,,,2070.769031667005,q,1.1680743749893736,2072.0454087510007,,,,,,271957,A,2024-12-11_11h11.08.394,EPIDM,2023.1.2,None,
6900.jpg,8531.jpg,4 Points,4 Points,4 Points,PS1_L1.csv,,,,,,,,,,,,,,,,,,,,,,,,,,,,,0,0,0,0,0,1,1,1,,,,,,,,,,,,,,,,,,,2076.249429958989,q,1.3746052499918733,2077.6945351669856,4,2.413344416010659,,,,271957,A,2024-12-11_11h11.08.394,EPIDM,2023.1.2,None,
5594.jpg,5750.jpg,5 Points,5 Points,9 Points,PS1_L1.csv,,,,,,,,,,,,,,,,,,,,,,,,,,,,,0,0,0,0,0,2,2,2,,,,,,,,,,,,,,,,,,,2084.4249314589833,p,2.023518875008449,2086.520478791994,,,,,,271957,A,2024-12-11_11h11.08.394,EPIDM,2023.1.2,None,
2205.jpg,3053.jpg,4 Points,4 Points,13 Points,PS1_L1.csv,,,,,,,,,,,,,,,,,,,,,,,,,,,,,0,0,0,0,0,3,3,3,,,,,,,,,,,,,,,,,,,2090.7587506670097,p,1.3774506240151823,2092.2023167919833,,,,,,271957,A,2024-12-11_11h11.08.394,EPIDM,2023.1.2,None,
3250.jpg,A053.jpg,3 Points,3 Points,16 Points,PS1_L1.csv,,,,,,,,,,,,,,,,,,,,,,,,,,,,,0,0,0,0,0,4,4,4,,,,,,,,,,,,,,,,,,,2096.4547690420004,q,1.106073708011536,2097.678016708989,,,,,,271957,A,2024-12-11_11h11.08.394,EPIDM,2023.1.2,None,
7950.jpg,7187.jpg,1 Point,1 Point,17 Points,PS1_L1.csv,,,,,,,,,,,,,,,,,,,,,,,,,,,,,0,0,0,0,0,5,5,5,,,,,,,,,,,,,,,,,,,2101.887699791987,q,2.2152906660048757,2104.2124524590035,,,,,,271957,A,2024-12-11_11h11.08.394,EPIDM,2023.1.2,None,
5535.jpg,8210.jpg,3 Points,3 Points,20 Points,PS1_L1.csv,,,,,,,,,,,,,,,,,,,,,,,,,,,,,0,0,0,0,0,6,6,6,,,,,,,,,,,,,,,,,,,2108.428891916992,q,1.5142469569982495,2110.0205914170074,,,,,,271957,A,2024-12-11_11h11.08.394,EPIDM,2023.1.2,None,
9001.jpg,9620.jpg,1 Point,1 Point,21 Points,PS1_L1.csv,,,,,,,,,,,,,,,,,,,,,,,,,,,,,0,0,0,0,0,7,7,7,,,,,,,,,,,,,,,,,,,2114.264585541998,p,1.9027172499918379,2116.2433313340007,,,,,,271957,A,2024-12-11_11h11.08.394,EPIDM,2023.1.2,None,
1110.jpg,9331.jpg,2 Points,2 Points,23 Points,PS1_L1.csv,,,,,,,,,,,,,,,,,,,,,,,,,,,,,0,0,0,0,0,8,8,8,,,,,,,,,,,,,,,,,,,2120.486792376003,q,2.2398979580029845,2122.804225750995,,,,,,271957,A,2024-12-11_11h11.08.394,EPIDM,2023.1.2,None,
7820.jpg,1121.jpg,0 Points,0 Points,23 Points,PS1_L1.csv,,,,,,,,,,,,,,,,,,,,,,,,,,,,,0,0,0,0,0,9,9,9,,,,,,,,,,,,,,,,,,,2127.047707958991,q,1.4567413740151096,2128.5761187089956,,,,,,271957,A,2024-12-11_11h11.08.394,EPIDM,2023.1.2,None,
7186.jpg,9182.jpg,2 Points,2 Points,25 Points,PS1_L1.csv,,,,,,,,,,,,,,,,,,,,,,,,,,,,,0,0,0,0,0,10,10,10,,,,,,,,,,,,,,,,,,,2132.835382666992,p,1.9568300819955766,2134.8721893760085,,,,,,271957,A,2024-12-11_11h11.08.394,EPIDM,2023.1.2,None,
9280.jpg,9390.jpg,1 Point,1 Point,26 Points,PS1_L1.csv,,,,,,,,,,,,,,,,,,,,,,,,,,,,,0,0,0,0,0,11,11,11,,,,,,,,,,,,,,,,,,,2139.102101250988,q,1.6567680409934837,2140.8324199589842,,,,,,271957,A,2024-12-11_11h11.08.394,EPIDM,2023.1.2,None,
2440.jpg,7351.jpg,4 Points,4 Points,30 Points,PS1_L1.csv,,,,,,,,,,,,,,,,,,,,,,,,,,,,,0,0,0,0,0,12,12,12,,,,,,,,,,,,,,,,,,,2145.0745965839888,p,1.0692760410020128,2146.2140253339894,,,,,,271957,A,2024-12-11_11h11.08.394,EPIDM,2023.1.2,None,
6834.jpg,9120.jpg,5 Points,5 Points,35 Points,PS1_L1.csv,,,,,,,,,,,,,,,,,,,,,,,,,,,,,0,0,0,0,0,13,13,13,,,,,,,,,,,,,,,,,,,2150.4509540419967,q,1.5573121249908581,2152.074024417001,5,1.7212797079992015,,,,271957,A,2024-12-11_11h11.08.394,EPIDM,2023.1.2,None,
9230.jpg,9181.jpg,0 Points,0 Points,35 Points,PS1_L1.csv,,,,,,,,,,,,,,,,,,,,,,,,,,,,,0,0,0,0,0,14,14,14,,,,,,,,,,,,,,,,,,,2158.0976248759835,q,2.132640458032256,2160.285064166994,,,,,,271957,A,2024-12-11_11h11.08.394,EPIDM,2023.1.2,None,
8260.jpg,8280.jpg,3 Points,3 Points,38 Points,PS1_L1.csv,,,,,,,,,,,,,,,,,,,,,,,,,,,,,0,0,0,0,0,15,15,15,,,,,,,,,,,,,,,,,,,2164.5419196260045,q,2.168953416025033,2166.780299917009,,,,,,271957,A,2024-12-11_11h11.08.394,EPIDM,2023.1.2,None,
9470.jpg,9400.jpg,3 Points,3 Points,41 Points,PS1_L1.csv,,,,,,,,,,,,,,,,,,,,,,,,,,,,,0,0,0,0,0,16,16,16,,,,,,,,,,,,,,,,,,,2171.027464666986,p,1.8181018749892246,2172.912145042006,,,,,,271957,A,2024-12-11_11h11.08.394,EPIDM,2023.1.2,None,
2616.jpg,7238.jpg,4 Points,4 Points,45 Points,PS1_L1.csv,,,,,,,,,,,,,,,,,,,,,,,,,,,,,0,0,0,0,0,17,17,17,,,,,,,,,,,,,,,,,,,2177.163853000995,q,1.5149557080003433,2178.7550354590057,,,,,,271957,A,2024-12-11_11h11.08.394,EPIDM,2023.1.2,None,
9430.jpg,3010.jpg,5 Points,5 Points,50 Points,PS1_L1.csv,,,,,,,,,,,,,,,,,,,,,,,,,,,,,0,0,0,0,0,18,18,18,,,,,,,,,,,,,,,,,,,2183.0071392089885,p,0.9347896250255872,2184.0012827510072,,,,,,271957,A,2024-12-11_11h11.08.394,EPIDM,2023.1.2,None,
1661.jpg,1321.jpg,3 Points,3 Points,53 Points,PS1_L1.csv,,,,,,,,,,,,,,,,,,,,,,,,,,,,,0,0,0,0,0,19,19,19,,,,,,,,,,,,,,,,,,,2188.25346966699,p,1.6169160410063341,2189.9305444170022,,,,,,271957,A,2024-12-11_11h11.08.394,EPIDM,2023.1.2,None,
8041.jpg,2271.jpg,2 Points,2 Points,55 Points,PS1_L1.csv,,,,,,,,,,,,,,,,,,,,,,,,,,,,,0,0,0,0,0,20,20,20,,,,,,,,,,,,,,,,,,,2194.188686125999,p,1.6973056660208385,2195.9521735839953,,,,,,271957,A,2024-12-11_11h11.08.394,EPIDM,2023.1.2,None,
9180.jpg,9046.jpg,3 Points,3 Points,58 Points,PS1_L1.csv,,,,,,,,,,,,,,,,,,,,,,,,,,,,,0,0,0,0,0,21,21,21,,,,,,,,,,,,,,,,,,,2200.1999187509937,q,2.0934426659950987,2202.369319166988,,,,,,271957,A,2024-12-11_11h11.08.394,EPIDM,2023.1.2,None,
2691.jpg,7640.jpg,0 Points,0 Points,58 Points,PS1_L1.csv,,,,,,,,,,,,,,,,,,,,,,,,,,,,,0,0,0,0,0,22,22,22,,,,,,,,,,,,,,,,,,,2206.6138391259883,q,1.4965206240012776,2208.172981916985,,,,,,271957,A,2024-12-11_11h11.08.394,EPIDM,2023.1.2,None,
1660.jpg,2840.jpg,2 Points,2 Points,60 Points,PS1_L1.csv,,,,,,,,,,,,,,,,,,,,,,,,,,,,,0,0,0,0,0,23,23,23,,,,,,,,,,,,,,,,,,,2212.4226825420046,p,0.9907876659999602,2213.487357667007,,,2223.945931958995,space,8.37097449900466,271957,A,2024-12-11_11h11.08.394,EPIDM,2023.1.2,None,
9480.jpg,9250.jpg,0 Points,0 Points,60 Points,PS1_L2.csv,,,,,,,,,,,,,,,,,,,,,,,,,,,,,0,1,1,1,0,0,0,0,,,,,,,,,,,,,,,,,,,2235.637282334006,q,1.528888082015328,2237.2213385009964,,,,,,271957,A,2024-12-11_11h11.08.394,EPIDM,2023.1.2,None,
9910.jpg,6940.jpg,2 Points,2 Points,62 Points,PS1_L2.csv,,,,,,,,,,,,,,,,,,,,,,,,,,,,,0,1,1,1,0,1,1,1,,,,,,,,,,,,,,,,,,,2241.4762771670066,p,2.352820332016563,2243.8830597510096,2,1.1213937080174219,,,,271957,A,2024-12-11_11h11.08.394,EPIDM,2023.1.2,None,
4535.jpg,1811.jpg,1 Point,1 Point,63 Points,PS1_L2.csv,,,,,,,,,,,,,,,,,,,,,,,,,,,,,0,1,1,1,0,2,2,2,,,,,,,,,,,,,,,,,,,2249.322260208981,q,1.7069898750050925,2251.1040031260054,,,,,,271957,A,2024-12-11_11h11.08.394,EPIDM,2023.1.2,None,
2020.jpg,1947.jpg,5 Points,5 Points,68 Points,PS1_L2.csv,,,,,,,,,,,,,,,,,,,,,,,,,,,,,0,1,1,1,0,3,3,3,,,,,,,,,,,,,,,,,,,2255.3591721259872,p,1.668913916015299,2257.0760873339896,,,,,,271957,A,2024-12-11_11h11.08.394,EPIDM,2023.1.2,None,
9160.jpg,1200.jpg,4 Points,4 Points,72 Points,PS1_L2.csv,,,,,,,,,,,,,,,,,,,,,,,,,,,,,0,1,1,1,0,4,4,4,,,,,,,,,,,,,,,,,,,2261.3458750009886,p,2.099208499013912,2263.5296892510087,,,,,,271957,A,2024-12-11_11h11.08.394,EPIDM,2023.1.2,None,
9520.jpg,1931.jpg,3 Points,3 Points,75 Points,PS1_L2.csv,,,,,,,,,,,,,,,,,,,,,,,,,,,,,0,1,1,1,0,5,5,5,,,,,,,,,,,,,,,,,,,2267.773286501004,p,0.927336250024382,2268.778181583999,,,,,,271957,A,2024-12-11_11h11.08.394,EPIDM,2023.1.2,None,
7830.jpg,2499.jpg,3 Points,3 Points,78 Points,PS1_L2.csv,,,,,,,,,,,,,,,,,,,,,,,,,,,,,0,1,1,1,0,6,6,6,,,,,,,,,,,,,,,,,,,2273.0293461669935,q,1.350223957997514,2274.4485767089936,,,,,,271957,A,2024-12-11_11h11.08.394,EPIDM,2023.1.2,None,
6830.jpg,6212.jpg,4 Points,4 Points,82 Points,PS1_L2.csv,,,,,,,,,,,,,,,,,,,,,,,,,,,,,0,1,1,1,0,7,7,7,,,,,,,,,,,,,,,,,,,2278.7086068759963,q,1.9042861250054557,2280.673103000998,,,,,,271957,A,2024-12-11_11h11.08.394,EPIDM,2023.1.2,None,
7285.jpg,4233.jpg,5 Points,5 Points,87 Points,PS1_L2.csv,,,,,,,,,,,,,,,,,,,,,,,,,,,,,0,1,1,1,0,8,8,8,,,,,,,,,,,,,,,,,,,2284.928107291984,q,1.732465790992137,2286.738692541985,,,,,,271957,A,2024-12-11_11h11.08.394,EPIDM,2023.1.2,None,
1740.jpg,7480.jpg,0 Points,0 Points,87 Points,PS1_L2.csv,,,,,,,,,,,,,,,,,,,,,,,,,,,,,0,1,1,1,0,9,9,9,,,,,,,,,,,,,,,,,,,2290.991796666989,q,2.0445152910251636,2293.1094214589975,,,,,,271957,A,2024-12-11_11h11.08.394,EPIDM,2023.1.2,None,
7380.jpg,1220.jpg,1 Point,1 Point,88 Points,PS1_L2.csv,,,,,,,,,,,,,,,,,,,,,,,,,,,,,0,1,1,1,0,10,10,10,,,,,,,,,,,,,,,,,,,2297.356142167002,p,0.8327468750067055,2298.255839666992,,,,,,271957,A,2024-12-11_11h11.08.394,EPIDM,2023.1.2,None,
3061.jpg,2717.jpg,4 Points,4 Points,92 Points,PS1_L2.csv,,,,,,,,,,,,,,,,,,,,,,,,,,,,,0,1,1,1,0,11,11,11,,,,,,,,,,,,,,,,,,,2302.520730666991,q,1.811155541014159,2304.3975776259904,,,,,,271957,A,2024-12-11_11h11.08.394,EPIDM,2023.1.2,None,
5460.jpg,5800.jpg,0 Points,0 Points,92 Points,PS1_L2.csv,,,,,,,,,,,,,,,,,,,,,,,,,,,,,0,1,1,1,0,12,12,12,,,,,,,,,,,,,,,,,,,2308.6614414590003,q,1.982173790980596,2310.7345373340067,,,,,,271957,A,2024-12-11_11h11.08.394,EPIDM,2023.1.2,None,
2215.jpg,2512.jpg,1 Point,1 Point,93 Points,PS1_L2.csv,,,,,,,,,,,,,,,,,,,,,,,,,,,,,0,1,1,1,0,13,13,13,,,,,,,,,,,,,,,,,,,2314.9724072919926,p,1.1916911249863915,2316.232047625992,1,1.4120931249926798,,,,271957,A,2024-12-11_11h11.08.394,EPIDM,2023.1.2,None,
3000.jpg,6200.jpg,5 Points,5 Points,98 Points,PS1_L2.csv,,,,,,,,,,,,,,,,,,,,,,,,,,,,,0,1,1,1,0,14,14,14,,,,,,,,,,,,,,,,,,,2321.9648169589927,q,0.9669647910341155,2322.9964097919874,,,,,,271957,A,2024-12-11_11h11.08.394,EPIDM,2023.1.2,None,
1945.jpg,2800.jpg,4 Points,4 Points,102 Points,PS1_L2.csv,,,,,,,,,,,,,,,,,,,,,,,,,,,,,0,1,1,1,0,15,15,15,,,,,,,,,,,,,,,,,,,2327.244614833995,q,2.2235304579953663,2329.5395986670046,,,,,,271957,A,2024-12-11_11h11.08.394,EPIDM,2023.1.2,None,
5660.jpg,5201.jpg,0 Points,0 Points,102 Points,PS1_L2.csv,,,,,,,,,,,,,,,,,,,,,,,,,,,,,0,1,1,1,0,16,16,16,,,,,,,,,,,,,,,,,,,2333.7860560840054,q,1.8808862500009127,2335.7333264169865,,,,,,271957,A,2024-12-11_11h11.08.394,EPIDM,2023.1.2,None,
3266.jpg,7360.jpg,1 Point,1 Point,103 Points,PS1_L2.csv,,,,,,,,,,,,,,,,,,,,,,,,,,,,,0,1,1,1,0,17,17,17,,,,,,,,,,,,,,,,,,,2339.9773330010066,q,1.8813704579952173,2341.9490397509944,,,,,,271957,A,2024-12-11_11h11.08.394,EPIDM,2023.1.2,None,
F149.jpg,3030.jpg,0 Points,0 Points,103 Points,PS1_L2.csv,,,,,,,,,,,,,,,,,,,,,,,,,,,,,0,1,1,1,0,18,18,18,,,,,,,,,,,,,,,,,,,2346.199782833981,p,1.3554786249878816,2347.6640557509963,,,,,,271957,A,2024-12-11_11h11.08.394,EPIDM,2023.1.2,None,
5410.jpg,1450.jpg,5 Points,5 Points,108 Points,PS1_L2.csv,,,,,,,,,,,,,,,,,,,,,,,,,,,,,0,1,1,1,0,19,19,19,,,,,,,,,,,,,,,,,,,2351.865936458984,q,1.4415955820004456,2353.3737093340023,,,,,,271957,A,2024-12-11_11h11.08.394,EPIDM,2023.1.2,None,
9101.jpg,9571.jpg,2 Points,2 Points,110 Points,PS1_L2.csv,,,,,,,,,,,,,,,,,,,,,,,,,,,,,0,1,1,1,0,20,20,20,,,,,,,,,,,,,,,,,,,2357.634750000987,p,1.7196194989955984,2359.4211189589987,,,,,,271957,A,2024-12-11_11h11.08.394,EPIDM,2023.1.2,None,
9110.jpg,3051.jpg,1 Point,1 Point,111 Points,PS1_L2.csv,,,,,,,,,,,,,,,,,,,,,,,,,,,,,0,1,1,1,0,21,21,21,,,,,,,,,,,,,,,,,,,2363.670894501003,p,1.5718769160157535,2365.334059041983,,,,,,271957,A,2024-12-11_11h11.08.394,EPIDM,2023.1.2,None,
2100.jpg,7205.jpg,5 Points,5 Points,116 Points,PS1_L2.csv,,,,,,,,,,,,,,,,,,,,,,,,,,,,,0,1,1,1,0,22,22,22,,,,,,,,,,,,,,,,,,,2369.5728020840033,q,1.502055165998172,2371.1509409589926,,,,,,271957,A,2024-12-11_11h11.08.394,EPIDM,2023.1.2,None,
3160.jpg,6210.jpg,1 Point,1 Point,117 Points,PS1_L2.csv,,,,,,,,,,,,,,,,,,,,,,,,,,,,,0,1,1,1,0,23,23,23,,,,,,,,,,,,,,,,,,,2375.3994389589934,p,1.6677572910266463,2377.1400172509893,,,2387.5992488339834,space,6.258813458000077,271957,A,2024-12-11_11h11.08.394,EPIDM,2023.1.2,None,
7283.jpg,1720.jpg,4 Points,4 Points,121 Points,PS1_L3.csv,,,,,,,,,,,,,,,,,,,,,,,,,,,,,0,2,2,2,0,0,0,0,,,,,,,,,,,,,,,,,,,2397.1857657920045,p,2.3513006240245886,2399.6037972089835,,,,,,271957,A,2024-12-11_11h11.08.394,EPIDM,2023.1.2,None,
6571.jpg,P237.jpg,2 Points,2 Points,123 Points,PS1_L3.csv,,,,,,,,,,,,,,,,,,,,,,,,,,,,,0,2,2,2,0,1,1,1,,,,,,,,,,,,,,,,,,,2403.8488343339995,p,1.7446856659953482,2405.7082185839827,2,1.173298915993655,,,,271957,A,2024-12-11_11h11.08.394,EPIDM,2023.1.2,None,
6260.jpg,3062.jpg,3 Points,3 Points,126 Points,PS1_L3.csv,,,,,,,,,,,,,,,,,,,,,,,,,,,,,0,2,2,2,0,2,2,2,,,,,,,,,,,,,,,,,,,2411.201956834004,p,1.5509881250036415,2412.8220625839895,,,,,,271957,A,2024-12-11_11h11.08.394,EPIDM,2023.1.2,None,
6150.jpg,2206.jpg,0 Points,0 Points,126 Points,PS1_L3.csv,,,,,,,,,,,,,,,,,,,,,,,,,,,,,0,2,2,2,0,3,3,3,,,,,,,,,,,,,,,,,,,2417.0719657919835,p,1.4330937490158249,2418.583763792005,,,,,,271957,A,2024-12-11_11h11.08.394,EPIDM,2023.1.2,None,
9300.jpg,1050.jpg,4 Points,4 Points,130 Points,PS1_L3.csv,,,,,,,,,,,,,,,,,,,,,,,,,,,,,0,2,2,2,0,4,4,4,,,,,,,,,,,,,,,,,,,2422.821612250991,q,1.4676714990055189,2424.3566250419826,,,,,,271957,A,2024-12-11_11h11.08.394,EPIDM,2023.1.2,None,
F365.jpg,3180.jpg,5 Points,5 Points,135 Points,PS1_L3.csv,,,,,,,,,,,,,,,,,,,,,,,,,,,,,0,2,2,2,0,5,5,5,,,,,,,,,,,,,,,,,,,2428.6001425419818,p,1.6496571660100017,2430.354389001004,,,,,,271957,A,2024-12-11_11h11.08.394,EPIDM,2023.1.2,None,
2320.jpg,2791.jpg,4 Points,4 Points,139 Points,PS1_L3.csv,,,,,,,,,,,,,,,,,,,,,,,,,,,,,0,2,2,2,0,6,6,6,,,,,,,,,,,,,,,,,,,2434.587981791992,p,1.141379832988605,2435.8273613759957,,,,,,271957,A,2024-12-11_11h11.08.394,EPIDM,2023.1.2,None,
8311.jpg,4609.jpg,2 Points,2 Points,141 Points,PS1_L3.csv,,,,,,,,,,,,,,,,,,,,,,,,,,,,,0,2,2,2,0,7,7,7,,,,,,,,,,,,,,,,,,,2440.055935042008,p,1.673119500017492,2441.800572125998,,,,,,271957,A,2024-12-11_11h11.08.394,EPIDM,2023.1.2,None,
9042.jpg,2753.jpg,0 Points,0 Points,141 Points,PS1_L3.csv,,,,,,,,,,,,,,,,,,,,,,,,,,,,,0,2,2,2,0,8,8,8,,,,,,,,,,,,,,,,,,,2446.0475292089977,q,1.7935562490019947,2447.914996709005,,,,,,271957,A,2024-12-11_11h11.08.394,EPIDM,2023.1.2,None,
5471.jpg,7352.jpg,2 Points,2 Points,143 Points,PS1_L3.csv,,,,,,,,,,,,,,,,,,,,,,,,,,,,,0,2,2,2,0,9,9,9,,,,,,,,,,,,,,,,,,,2452.1677006669925,p,0.9607001660042442,2453.198376583983,,,,,,271957,A,2024-12-11_11h11.08.394,EPIDM,2023.1.2,None,
P222.jpg,9401.jpg,2 Points,2 Points,145 Points,PS1_L3.csv,,,,,,,,,,,,,,,,,,,,,,,,,,,,,0,2,2,2,0,10,10,10,,,,,,,,,,,,,,,,,,,2457.4421705419954,p,2.143624374992214,2459.6873067510023,,,,,,271957,A,2024-12-11_11h11.08.394,EPIDM,2023.1.2,None,
1610.jpg,F203.jpg,0 Points,0 Points,145 Points,PS1_L3.csv,,,,,,,,,,,,,,,,,,,,,,,,,,,,,0,2,2,2,0,11,11,11,,,,,,,,,,,,,,,,,,,2463.904262416996,q,2.5196823740261607,2466.542131125985,,,,,,271957,A,2024-12-11_11h11.08.394,EPIDM,2023.1.2,None,
9405.jpg,6250.2.jpg,3 Points,3 Points,148 Points,PS1_L3.csv,,,,,,,,,,,,,,,,,,,,,,,,,,,,,0,2,2,2,0,12,12,12,,,,,,,,,,,,,,,,,,,2470.740853875992,p,1.4195447910169605,2472.2390890420065,,,,,,271957,A,2024-12-11_11h11.08.394,EPIDM,2023.1.2,None,
1090.jpg,P217.jpg,5 Points,5 Points,153 Points,PS1_L3.csv,,,,,,,,,,,,,,,,,,,,,,,,,,,,,0,2,2,2,0,13,13,13,,,,,,,,,,,,,,,,,,,2476.479139959003,p,1.7062536659941543,2478.3058945839875,5,1.2448152909928467,,,,271957,A,2024-12-11_11h11.08.394,EPIDM,2023.1.2,None,
P233.jpg,3060.jpg,1 Point,1 Point,154 Points,PS1_L3.csv,,,,,,,,,,,,,,,,,,,,,,,,,,,,,0,2,2,2,0,14,14,14,,,,,,,,,,,,,,,,,,,2483.882430625992,p,2.7410577079863288,2486.7563500420074,,,,,,271957,A,2024-12-11_11h11.08.394,EPIDM,2023.1.2,None,
8040.jpg,7185.jpg,1 Point,1 Point,155 Points,PS1_L3.csv,,,,,,,,,,,,,,,,,,,,,,,,,,,,,0,2,2,2,0,15,15,15,,,,,,,,,,,,,,,,,,,2490.950104708987,q,0.962805166025646,2491.9967578339856,,,,,,271957,A,2024-12-11_11h11.08.394,EPIDM,2023.1.2,None,
6550.jpg,9582.jpg,5 Points,5 Points,160 Points,PS1_L3.csv,,,,,,,,,,,,,,,,,,,,,,,,,,,,,0,2,2,2,0,16,16,16,,,,,,,,,,,,,,,,,,,2496.2376766669913,q,1.7140004160173703,2498.024440417008,,,,,,271957,A,2024-12-11_11h11.08.394,EPIDM,2023.1.2,None,
P077.jpg,A041.jpg,1 Point,1 Point,161 Points,PS1_L3.csv,,,,,,,,,,,,,,,,,,,,,,,,,,,,,0,2,2,2,0,17,17,17,,,,,,,,,,,,,,,,,,,2502.272647792008,p,0.8391395819780882,2503.252860834007,,,,,,271957,A,2024-12-11_11h11.08.394,EPIDM,2023.1.2,None,
4770.jpg,4275.jpg,3 Points,3 Points,164 Points,PS1_L3.csv,,,,,,,,,,,,,,,,,,,,,,,,,,,,,0,2,2,2,0,18,18,18,,,,,,,,,,,,,,,,,,,2507.427195833996,q,0.748984541016398,2508.2951573760074,,,,,,271957,A,2024-12-11_11h11.08.394,EPIDM,2023.1.2,None,
9594.jpg,1080.jpg,4 Points,4 Points,168 Points,PS1_L3.csv,,,,,,,,,,,,,,,,,,,,,,,,,,,,,0,2,2,2,0,19,19,19,,,,,,,,,,,,,,,,,,,2512.5003032920067,p,1.2440503740217537,2513.819967500982,,,,,,271957,A,2024-12-11_11h11.08.394,EPIDM,2023.1.2,None,
2606.jpg,2480.jpg,1 Point,1 Point,169 Points,PS1_L3.csv,,,,,,,,,,,,,,,,,,,,,,,,,,,,,0,2,2,2,0,20,20,20,,,,,,,,,,,,,,,,,,,2518.054440417007,q,1.4090825410094112,2519.5416292090085,,,,,,271957,A,2024-12-11_11h11.08.394,EPIDM,2023.1.2,None,
1052.jpg,1201.jpg,3 Points,3 Points,172 Points,PS1_L3.csv,,,,,,,,,,,,,,,,,,,,,,,,,,,,,0,2,2,2,0,21,21,21,,,,,,,,,,,,,,,,,,,2523.7900126669847,p,1.9379123329999857,2525.789391583996,,,,,,271957,A,2024-12-11_11h11.08.394,EPIDM,2023.1.2,None,
F369.jpg,3100.jpg,2 Points,2 Points,174 Points,PS1_L3.csv,,,,,,,,,,,,,,,,,,,,,,,,,,,,,0,2,2,2,0,22,22,22,,,,,,,,,,,,,,,,,,,2530.0446465839923,p,0.9781472500180826,2531.1177448759845,,,,,,271957,A,2024-12-11_11h11.08.394,EPIDM,2023.1.2,None,
2620.jpg,2594.jpg,0 Points,0 Points,174 Points,PS1_L3.csv,,,,,,,,,,,,,,,,,,,,,,,,,,,,,0,2,2,2,0,23,23,23,,,,,,,,,,,,,,,,,,,2535.3394878339896,p,2.595481832016958,2538.033003083983,,,2548.488149541983,space,3.7019672070164233,271957,A,2024-12-11_11h11.08.394,EPIDM,2023.1.2,None,
P019.jpg,F158.jpg,3 Points,3 Points,177 Points,PS1_L4.csv,,,,,,,,,,,,,,,,,,,,,,,,,,,,,0,3,3,3,0,0,0,0,,,,,,,,,,,,,,,,,,,2555.5062069169944,q,1.5886807909992058,2557.229174584005,,,,,,271957,A,2024-12-11_11h11.08.394,EPIDM,2023.1.2,None,
7620.jpg,5395.jpg,1 Point,1 Point,178 Points,PS1_L4.csv,,,,,,,,,,,,,,,,,,,,,,,,,,,,,0,3,3,3,0,1,1,1,,,,,,,,,,,,,,,,,,,2561.4094368339865,p,1.7098266659886576,2563.237695875985,1,1.5265193749801256,,,,271957,A,2024-12-11_11h11.08.394,EPIDM,2023.1.2,None,
5970.jpg,3300.jpg,0 Points,0 Points,178 Points,PS1_L4.csv,,,,,,,,,,,,,,,,,,,,,,,,,,,,,0,3,3,3,0,2,2,2,,,,,,,,,,,,,,,,,,,2569.0360958759848,p,3.338159208011348,2572.443797791988,,,,,,271957,A,2024-12-11_11h11.08.394,EPIDM,2023.1.2,None,
5120.jpg,5520.jpg,2 Points,2 Points,180 Points,PS1_L4.csv,,,,,,,,,,,,,,,,,,,,,,,,,,,,,0,3,3,3,0,3,3,3,,,,,,,,,,,,,,,,,,,2576.695961291989,p,1.1408981240238063,2577.9154395009973,,,,,,271957,A,2024-12-11_11h11.08.394,EPIDM,2023.1.2,None,
9452.jpg,7184.jpg,4 Points,4 Points,184 Points,PS1_L4.csv,,,,,,,,,,,,,,,,,,,,,,,,,,,,,0,3,3,3,0,4,4,4,,,,,,,,,,,,,,,,,,,2582.161243251001,q,1.3576229570317082,2583.5824531670078,,,,,,271957,A,2024-12-11_11h11.08.394,EPIDM,2023.1.2,None,
6570.1.jpg,9432.jpg,5 Points,5 Points,189 Points,PS1_L4.csv,,,,,,,,,,,,,,,,,,,,,,,,,,,,,0,3,3,3,0,5,5,5,,,,,,,,,,,,,,,,,,,2587.831072875997,p,1.2704140820133034,2589.16555962601,,,,,,271957,A,2024-12-11_11h11.08.394,EPIDM,2023.1.2,None,
2389.jpg,7320.jpg,0 Points,0 Points,189 Points,PS1_L4.csv,,,,,,,,,,,,,,,,,,,,,,,,,,,,,0,3,3,3,0,6,6,6,,,,,,,,,,,,,,,,,,,2593.4223471260048,p,2.111689166020369,2595.608436209004,,,,,,271957,A,2024-12-11_11h11.08.394,EPIDM,2023.1.2,None,
9330.jpg,3015.jpg,5 Points,5 Points,194 Points,PS1_L4.csv,,,,,,,,,,,,,,,,,,,,,,,,,,,,,0,3,3,3,0,7,7,7,,,,,,,,,,,,,,,,,,,2599.8448176670063,p,1.656667415983975,2601.565841167001,,,,,,271957,A,2024-12-11_11h11.08.394,EPIDM,2023.1.2,None,
9560.jpg,3071.jpg,1 Point,1 Point,195 Points,PS1_L4.csv,,,,,,,,,,,,,,,,,,,,,,,,,,,,,0,3,3,3,0,8,8,8,,,,,,,,,,,,,,,,,,,2605.8108536670043,p,1.6048006240162067,2607.481138834002,,,,,,271957,A,2024-12-11_11h11.08.394,EPIDM,2023.1.2,None,
5994.jpg,5390.jpg,0 Points,0 Points,195 Points,PS1_L4.csv,,,,,,,,,,,,,,,,,,,,,,,,,,,,,0,3,3,3,0,9,9,9,,,,,,,,,,,,,,,,,,,2611.7294168339868,q,0.9559858750144485,2612.7595040419837,,,,,,271957,A,2024-12-11_11h11.08.394,EPIDM,2023.1.2,None,
2692.jpg,8231.jpg,4 Points,4 Points,199 Points,PS1_L4.csv,,,,,,,,,,,,,,,,,,,,,,,,,,,,,0,3,3,3,0,10,10,10,,,,,,,,,,,,,,,,,,,2617.017796291999,p,1.6987772489956114,2618.7792351669923,,,,,,271957,A,2024-12-11_11h11.08.394,EPIDM,2023.1.2,None,
F174.jpg,9404.jpg,5 Points,5 Points,204 Points,PS1_L4.csv,,,,,,,,,,,,,,,,,,,,,,,,,,,,,0,3,3,3,0,11,11,11,,,,,,,,,,,,,,,,,,,2623.041921666998,p,1.7876942910079379,2624.939067208994,,,,,,271957,A,2024-12-11_11h11.08.394,EPIDM,2023.1.2,None,
8010.jpg,2630.jpg,0 Points,0 Points,204 Points,PS1_L4.csv,,,,,,,,,,,,,,,,,,,,,,,,,,,,,0,3,3,3,0,12,12,12,,,,,,,,,,,,,,,,,,,2629.1372069169884,q,2.1722209580184426,2631.3868044590054,,,,,,271957,A,2024-12-11_11h11.08.394,EPIDM,2023.1.2,None,
7175.jpg,7490.jpg,2 Points,2 Points,206 Points,PS1_L4.csv,,,,,,,,,,,,,,,,,,,,,,,,,,,,,0,3,3,3,0,13,13,13,,,,,,,,,,,,,,,,,,,2635.634546001005,q,1.2104483330040239,2636.927163875982,2,1.118983416003175,,,,271957,A,2024-12-11_11h11.08.394,EPIDM,2023.1.2,None,
6561.jpg,1525.jpg,2 Points,2 Points,208 Points,PS1_L4.csv,,,,,,,,,,,,,,,,,,,,,,,,,,,,,0,3,3,3,0,14,14,14,,,,,,,,,,,,,,,,,,,2642.361586001003,p,1.1475034580216743,2643.5706312920083,,,,,,271957,A,2024-12-11_11h11.08.394,EPIDM,2023.1.2,None,
9070.jpg,9420.jpg,2 Points,2 Points,210 Points,PS1_L4.csv,,,,,,,,,,,,,,,,,,,,,,,,,,,,,0,3,3,3,0,15,15,15,,,,,,,,,,,,,,,,,,,2647.827067375998,p,1.3548442499886733,2649.241610208992,,,,,,271957,A,2024-12-11_11h11.08.394,EPIDM,2023.1.2,None,
2516.jpg,8500.jpg,4 Points,4 Points,214 Points,PS1_L4.csv,,,,,,,,,,,,,,,,,,,,,,,,,,,,,0,3,3,3,0,16,16,16,,,,,,,,,,,,,,,,,,,2653.4943477920024,p,1.150784374010982,2654.721038375981,,,,,,271957,A,2024-12-11_11h11.08.394,EPIDM,2023.1.2,None,
9140.jpg,2810.jpg,3 Points,3 Points,217 Points,PS1_L4.csv,,,,,,,,,,,,,,,,,,,,,,,,,,,,,0,3,3,3,0,17,17,17,,,,,,,,,,,,,,,,,,,2658.9568310839823,p,1.7039019990188535,2660.7221234589815,,,,,,271957,A,2024-12-11_11h11.08.394,EPIDM,2023.1.2,None,
7220.jpg,8090.jpg,2 Points,2 Points,219 Points,PS1_L4.csv,,,,,,,,,,,,,,,,,,,,,,,,,,,,,0,3,3,3,0,18,18,18,,,,,,,,,,,,,,,,,,,2664.983603125991,q,1.08426337398123,2666.1394940009923,,,,,,271957,A,2024-12-11_11h11.08.394,EPIDM,2023.1.2,None,
2661.jpg,2870.jpg,5 Points,5 Points,224 Points,PS1_L4.csv,,,,,,,,,,,,,,,,,,,,,,,,,,,,,0,3,3,3,0,19,19,19,,,,,,,,,,,,,,,,,,,2670.387044709001,p,1.3374412080156617,2671.7787350009894,,,,,,271957,A,2024-12-11_11h11.08.394,EPIDM,2023.1.2,None,
6010.jpg,7361.jpg,2 Points,2 Points,226 Points,PS1_L4.csv,,,,,,,,,,,,,,,,,,,,,,,,,,,,,0,3,3,3,0,20,20,20,,,,,,,,,,,,,,,,,,,2676.040355792007,p,1.7572294160199817,2677.8713855420065,,,,,,271957,A,2024-12-11_11h11.08.394,EPIDM,2023.1.2,None,
7289.jpg,4534.jpg,0 Points,0 Points,226 Points,PS1_L4.csv,,,,,,,,,,,,,,,,,,,,,,,,,,,,,0,3,3,3,0,21,21,21,,,,,,,,,,,,,,,,,,,2682.1296532920096,q,1.9702067490143236,2684.1687330839923,,,,,,271957,A,2024-12-11_11h11.08.394,EPIDM,2023.1.2,None,
1310.jpg,3181.jpg,4 Points,4 Points,230 Points,PS1_L4.csv,,,,,,,,,,,,,,,,,,,,,,,,,,,,,0,3,3,3,0,22,22,22,,,,,,,,,,,,,,,,,,,2688.416375708999,q,0.9078257910150569,2689.390190667007,,,,,,271957,A,2024-12-11_11h11.08.394,EPIDM,2023.1.2,None,
2383.jpg,1616.jpg,2 Points,2 Points,232 Points,PS1_L4.csv,,,,,,,,,,,,,,,,,,,,,,,,,,,,,0,3,3,3,0,23,23,23,,,,,,,,,,,,,,,,,,,2693.6431542509818,q,1.6321068330144044,2695.3498162920005,,,2705.8072572090023,space,11.206445415999042,271957,A,2024-12-11_11h11.08.394,EPIDM,2023.1.2,None,
4510.jpg,2230.jpg,5 Points,5 Points,237 Points,PS1_L5.csv,,,,,,,,,,,,,,,,,,,,,,,,,,,,,0,4,4,4,0,0,0,0,,,,,,,,,,,,,,,,,,,2720.3425072509854,q,1.3801500410190783,2721.7974065839953,,,,,,271957,A,2024-12-11_11h11.08.394,EPIDM,2023.1.2,None,
A025.jpg,1051.jpg,0 Points,0 Points,237 Points,PS1_L5.csv,,,,,,,,,,,,,,,,,,,,,,,,,,,,,0,4,4,4,0,1,1,1,,,,,,,,,,,,,,,,,,,2726.0324598760053,p,0.9382782489992678,2727.095821333991,0,1.249772291019326,,,,271957,A,2024-12-11_11h11.08.394,EPIDM,2023.1.2,None,
7002.jpg,4660.jpg,4 Points,4 Points,241 Points,PS1_L5.csv,,,,,,,,,,,,,,,,,,,,,,,,,,,,,0,4,4,4,0,2,2,2,,,,,,,,,,,,,,,,,,,2732.658546666993,p,1.0881879580265377,2733.8654070009943,,,,,,271957,A,2024-12-11_11h11.08.394,EPIDM,2023.1.2,None,
2900.jpg,1101.jpg,3 Points,3 Points,244 Points,PS1_L5.csv,,,,,,,,,,,,,,,,,,,,,,,,,,,,,0,4,4,4,0,3,3,3,,,,,,,,,,,,,,,,,,,2738.061203291989,q,1.9812357079936191,2740.114414334006,,,,,,271957,A,2024-12-11_11h11.08.394,EPIDM,2023.1.2,None,
2485.jpg,7350.jpg,0 Points,0 Points,244 Points,PS1_L5.csv,,,,,,,,,,,,,,,,,,,,,,,,,,,,,0,4,4,4,0,4,4,4,,,,,,,,,,,,,,,,,,,2744.3607208339963,p,1.6019572079821955,2746.0403223760077,,,,,,271957,A,2024-12-11_11h11.08.394,EPIDM,2023.1.2,None,
6242.jpg,F034.jpg,4 Points,4 Points,248 Points,PS1_L5.csv,,,,,,,,,,,,,,,,,,,,,,,,,,,,,0,4,4,4,0,5,5,5,,,,,,,,,,,,,,,,,,,2750.2982590419997,p,2.3750917490106076,2752.7861598340096,,,,,,271957,A,2024-12-11_11h11.08.394,EPIDM,2023.1.2,None,
3170.jpg,6560.jpg,2 Points,2 Points,250 Points,PS1_L5.csv,,,,,,,,,,,,,,,,,,,,,,,,,,,,,0,4,4,4,0,6,6,6,,,,,,,,,,,,,,,,,,,2756.997227376007,q,1.6601217490097042,2758.765946625994,,,,,,271957,A,2024-12-11_11h11.08.394,EPIDM,2023.1.2,None,
8033.jpg,7270.jpg,3 Points,3 Points,253 Points,PS1_L5.csv,,,,,,,,,,,,,,,,,,,,,,,,,,,,,0,4,4,4,0,7,7,7,,,,,,,,,,,,,,,,,,,2762.990262125997,p,2.3550407080037985,2765.4119651670044,,,,,,271957,A,2024-12-11_11h11.08.394,EPIDM,2023.1.2,None,
2597.jpg,5870.jpg,5 Points,5 Points,258 Points,PS1_L5.csv,,,,,,,,,,,,,,,,,,,,,,,,,,,,,0,4,4,4,0,8,8,8,,,,,,,,,,,,,,,,,,,2769.6581095840083,q,2.1368455000047106,2771.8659835009894,,,,,,271957,A,2024-12-11_11h11.08.394,EPIDM,2023.1.2,None,
6312.jpg,3230.jpg,2 Points,2 Points,260 Points,PS1_L5.csv,,,,,,,,,,,,,,,,,,,,,,,,,,,,,0,4,4,4,0,9,9,9,,,,,,,,,,,,,,,,,,,2776.1301937089884,p,1.487070166011108,2777.6902123339823,,,,,,271957,A,2024-12-11_11h11.08.394,EPIDM,2023.1.2,None,
3130.jpg,3500.jpg,4 Points,4 Points,264 Points,PS1_L5.csv,,,,,,,,,,,,,,,,,,,,,,,,,,,,,0,4,4,4,0,10,10,10,,,,,,,,,,,,,,,,,,,2781.9412825010077,p,1.1164342490083072,2783.1354710010055,,,,,,271957,A,2024-12-11_11h11.08.394,EPIDM,2023.1.2,None,
2749.jpg,7282.jpg,3 Points,3 Points,267 Points,PS1_L5.csv,,,,,,,,,,,,,,,,,,,,,,,,,,,,,0,4,4,4,0,11,11,11,,,,,,,,,,,,,,,,,,,2787.387093000987,p,0.878341708012158,2788.338592958986,,,,,,271957,A,2024-12-11_11h11.08.394,EPIDM,2023.1.2,None,
5300.jpg,2372.jpg,1 Point,1 Point,268 Points,PS1_L5.csv,,,,,,,,,,,,,,,,,,,,,,,,,,,,,0,4,4,4,0,12,12,12,,,,,,,,,,,,,,,,,,,2792.5771147510095,q,0.9047772909980267,2793.550060666981,,,,,,271957,A,2024-12-11_11h11.08.394,EPIDM,2023.1.2,None,
6510.jpg,A074.jpg,2 Points,2 Points,270 Points,PS1_L5.csv,,,,,,,,,,,,,,,,,,,,,,,,,,,,,0,4,4,4,0,13,13,13,,,,,,,,,,,,,,,,,,,2797.813899834,q,1.2826167909952346,2799.207997916994,2,1.0365009580273181,,,,271957,A,2024-12-11_11h11.08.394,EPIDM,2023.1.2,None,
2260.jpg,2830.jpg,5 Points,5 Points,275 Points,PS1_L5.csv,,,,,,,,,,,,,,,,,,,,,,,,,,,,,0,4,4,4,0,14,14,14,,,,,,,,,,,,,,,,,,,2804.5748835839913,p,0.6828654160199221,2805.333452833991,,,,,,271957,A,2024-12-11_11h11.08.394,EPIDM,2023.1.2,None,
2710.jpg,9252.jpg,1 Point,1 Point,276 Points,PS1_L5.csv,,,,,,,,,,,,,,,,,,,,,,,,,,,,,0,4,4,4,0,15,15,15,,,,,,,,,,,,,,,,,,,2809.57579737599,p,1.7449594580102712,2811.3858470009873,,,,,,271957,A,2024-12-11_11h11.08.394,EPIDM,2023.1.2,None,
3064.jpg,3168.jpg,4 Points,4 Points,280 Points,PS1_L5.csv,,,,,,,,,,,,,,,,,,,,,,,,,,,,,0,4,4,4,0,16,16,16,,,,,,,,,,,,,,,,,,,2815.645942959003,q,1.1483144990052097,2816.853376916988,,,,,,271957,A,2024-12-11_11h11.08.394,EPIDM,2023.1.2,None,
1640.jpg,5531.jpg,3 Points,3 Points,283 Points,PS1_L5.csv,,,,,,,,,,,,,,,,,,,,,,,,,,,,,0,4,4,4,0,17,17,17,,,,,,,,,,,,,,,,,,,2821.1100977919996,q,0.7386439580004662,2821.919749416993,,,,,,271957,A,2024-12-11_11h11.08.394,EPIDM,2023.1.2,None,
3530.jpg,6213.jpg,1 Point,1 Point,284 Points,PS1_L5.csv,,,,,,,,,,,,,,,,,,,,,,,,,,,,,0,4,4,4,0,18,18,18,,,,,,,,,,,,,,,,,,,2826.167430166999,q,1.153268416004721,2827.3913795840053,,,,,,271957,A,2024-12-11_11h11.08.394,EPIDM,2023.1.2,None,
9090.jpg,7580.jpg,3 Points,3 Points,287 Points,PS1_L5.csv,,,,,,,,,,,,,,,,,,,,,,,,,,,,,0,4,4,4,0,19,19,19,,,,,,,,,,,,,,,,,,,2831.6383935839985,p,1.0261520410131197,2832.745482583996,,,,,,271957,A,2024-12-11_11h11.08.394,EPIDM,2023.1.2,None,
8230.jpg,2682.jpg,5 Points,5 Points,292 Points,PS1_L5.csv,,,,,,,,,,,,,,,,,,,,,,,,,,,,,0,4,4,4,0,20,20,20,,,,,,,,,,,,,,,,,,,2836.999965291994,p,2.032710041006794,2839.1129858759814,,,,,,271957,A,2024-12-11_11h11.08.394,EPIDM,2023.1.2,None,
9592.jpg,1300.jpg,2 Points,2 Points,294 Points,PS1_L5.csv,,,,,,,,,,,,,,,,,,,,,,,,,,,,,0,4,4,4,0,21,21,21,,,,,,,,,,,,,,,,,,,2843.3623173759843,q,2.2860158740077168,2845.7197275839862,,,,,,271957,A,2024-12-11_11h11.08.394,EPIDM,2023.1.2,None,
2490.jpg,2590.jpg,4 Points,4 Points,298 Points,PS1_L5.csv,,,,,,,,,,,,,,,,,,,,,,,,,,,,,0,4,4,4,0,22,22,22,,,,,,,,,,,,,,,,,,,2849.9725305009924,p,1.4993382079992443,2851.5464710420056,,,,,,271957,A,2024-12-11_11h11.08.394,EPIDM,2023.1.2,None,
2190.jpg,7503.jpg,2 Points,2 Points,300 Points,PS1_L5.csv,,,,,,,,,,,,,,,,,,,,,,,,,,,,,0,4,4,4,0,23,23,23,,,,,,,,,,,,,,,,,,,2855.792497333983,p,1.6069128320086747,2857.462328041991,,,2867.9275975420023,space,8.544050583004719,271957,A,2024-12-11_11h11.08.394,EPIDM,2023.1.2,None,
1930.jpg,9008.jpg,1 Point,1 Point,301 Points,PS1_L6.csv,,,,,,,,,,,,,,,,,,,,,,,,,,,,,0,5,5,5,0,0,0,0,,,,,,,,,,,,,,,,,,,2879.792496042006,q,1.4394331660005264,2881.3076871259836,,,,,,271957,A,2024-12-11_11h11.08.394,EPIDM,2023.1.2,None,
4613.jpg,2720.jpg,4 Points,4 Points,305 Points,PS1_L6.csv,,,,,,,,,,,,,,,,,,,,,,,,,,,,,0,5,5,5,0,1,1,1,,,,,,,,,,,,,,,,,,,2885.5552282510034,p,2.0908498740172945,2887.7214042090054,4,1.931772624986479,,,,271957,A,2024-12-11_11h11.08.394,EPIDM,2023.1.2,None,
3280.jpg,9270.jpg,0 Points,0 Points,305 Points,PS1_L6.csv,,,,,,,,,,,,,,,,,,,,,,,,,,,,,0,5,5,5,0,2,2,2,,,,,,,,,,,,,,,,,,,2893.9709601259965,p,2.2678887069923803,2896.3114143759885,,,,,,271957,A,2024-12-11_11h11.08.394,EPIDM,2023.1.2,None,
6800.jpg,9190.jpg,0 Points,0 Points,305 Points,PS1_L6.csv,,,,,,,,,,,,,,,,,,,,,,,,,,,,,0,5,5,5,0,3,3,3,,,,,,,,,,,,,,,,,,,2900.567861875985,p,0.9990284580271691,2901.623952083988,,,,,,271957,A,2024-12-11_11h11.08.394,EPIDM,2023.1.2,None,
5600.jpg,9080.jpg,5 Points,5 Points,310 Points,PS1_L6.csv,,,,,,,,,,,,,,,,,,,,,,,,,,,,,0,5,5,5,0,4,4,4,,,,,,,,,,,,,,,,,,,2905.880677000998,p,0.6940495410235599,2906.6587342509883,,,,,,271957,A,2024-12-11_11h11.08.394,EPIDM,2023.1.2,None,
P211.jpg,9041.jpg,4 Points,4 Points,314 Points,PS1_L6.csv,,,,,,,,,,,,,,,,,,,,,,,,,,,,,0,5,5,5,0,5,5,5,,,,,,,,,,,,,,,,,,,2910.8976095420076,q,1.9566083750105463,2912.9642535419844,,,,,,271957,A,2024-12-11_11h11.08.394,EPIDM,2023.1.2,None,
5200.jpg,5020.jpg,0 Points,0 Points,314 Points,PS1_L6.csv,,,,,,,,,,,,,,,,,,,,,,,,,,,,,0,5,5,5,0,6,6,6,,,,,,,,,,,,,,,,,,,2917.1738220420084,p,1.3126162080152426,2918.5997915010084,,,,,,271957,A,2024-12-11_11h11.08.394,EPIDM,2023.1.2,None,
1850.jpg,5623.jpg,5 Points,5 Points,319 Points,PS1_L6.csv,,,,,,,,,,,,,,,,,,,,,,,,,,,,,0,5,5,5,0,7,7,7,,,,,,,,,,,,,,,,,,,2922.803951751004,p,0.666724290989805,2923.5512686260045,,,,,,271957,A,2024-12-11_11h11.08.394,EPIDM,2023.1.2,None,
9440.jpg,6350.jpg,4 Points,4 Points,323 Points,PS1_L6.csv,,,,,,,,,,,,,,,,,,,,,,,,,,,,,0,5,5,5,0,8,8,8,,,,,,,,,,,,,,,,,,,2927.797860375984,q,0.3605704999936279,2928.2210647919856,,,,,,271957,A,2024-12-11_11h11.08.394,EPIDM,2023.1.2,None,
5990.jpg,5780.jpg,3 Points,3 Points,326 Points,PS1_L6.csv,,,,,,,,,,,,,,,,,,,,,,,,,,,,,0,5,5,5,0,9,9,9,,,,,,,,,,,,,,,,,,,2932.4703733339848,p,0.8798521660210099,2933.411568459007,,,,,,271957,A,2024-12-11_11h11.08.394,EPIDM,2023.1.2,None,
6244.jpg,9265.jpg,0 Points,0 Points,326 Points,PS1_L6.csv,,,,,,,,,,,,,,,,,,,,,,,,,,,,,0,5,5,5,0,10,10,10,,,,,,,,,,,,,,,,,,,2937.667545500997,p,0.5862106239947025,2938.3281392509816,,,,,,271957,A,2024-12-11_11h11.08.394,EPIDM,2023.1.2,None,
5000.jpg,8180.jpg,4 Points,4 Points,330 Points,PS1_L6.csv,,,,,,,,,,,,,,,,,,,,,,,,,,,,,0,5,5,5,0,11,11,11,,,,,,,,,,,,,,,,,,,2942.5935932089924,q,1.2045674569963012,2943.869663333986,,,,,,271957,A,2024-12-11_11h11.08.394,EPIDM,2023.1.2,None,
5982.jpg,5260.jpg,5 Points,5 Points,335 Points,PS1_L6.csv,,,,,,,,,,,,,,,,,,,,,,,,,,,,,0,5,5,5,0,12,12,12,,,,,,,,,,,,,,,,,,,2948.112584958988,p,0.8691219580068719,2949.054078416986,,,,,,271957,A,2024-12-11_11h11.08.394,EPIDM,2023.1.2,None,
1301.jpg,1070.jpg,2 Points,2 Points,337 Points,PS1_L6.csv,,,,,,,,,,,,,,,,,,,,,,,,,,,,,0,5,5,5,0,13,13,13,,,,,,,,,,,,,,,,,,,2953.301847083989,p,0.48019633200601675,2953.8544949170027,2,1.1943906240048818,,,,271957,A,2024-12-11_11h11.08.394,EPIDM,2023.1.2,None,
7920.jpg,9102.jpg,3 Points,3 Points,340 Points,PS1_L6.csv,,,,,,,,,,,,,,,,,,,,,,,,,,,,,0,5,5,5,0,14,14,14,,,,,,,,,,,,,,,,,,,2959.3661824589944,p,0.861895623995224,2960.3086859589966,,,,,,271957,A,2024-12-11_11h11.08.394,EPIDM,2023.1.2,None,
5455.jpg,5220.jpg,0 Points,0 Points,340 Points,PS1_L6.csv,,,,,,,,,,,,,,,,,,,,,,,,,,,,,0,5,5,5,0,15,15,15,,,,,,,,,,,,,,,,,,,2964.5458991669875,q,0.4444204570027068,2965.0526276259916,,,,,,271957,A,2024-12-11_11h11.08.394,EPIDM,2023.1.2,None,
3350.jpg,3210.jpg,1 Point,1 Point,341 Points,PS1_L6.csv,,,,,,,,,,,,,,,,,,,,,,,,,,,,,0,5,5,5,0,16,16,16,,,,,,,,,,,,,,,,,,,2969.3092191260075,p,0.8976322070229799,2970.2618206260086,,,,,,271957,A,2024-12-11_11h11.08.394,EPIDM,2023.1.2,None,
2560.jpg,5270.jpg,4 Points,4 Points,345 Points,PS1_L6.csv,,,,,,,,,,,,,,,,,,,,,,,,,,,,,0,5,5,5,0,17,17,17,,,,,,,,,,,,,,,,,,,2974.5258440839825,p,1.4473274160118308,2976.0415056670026,,,,,,271957,A,2024-12-11_11h11.08.394,EPIDM,2023.1.2,None,
9584.jpg,3400.jpg,2 Points,2 Points,347 Points,PS1_L6.csv,,,,,,,,,,,,,,,,,,,,,,,,,,,,,0,5,5,5,0,18,18,18,,,,,,,,,,,,,,,,,,,2980.2922519170097,p,1.6485561250010505,2982.0092259589874,,,,,,271957,A,2024-12-11_11h11.08.394,EPIDM,2023.1.2,None,
5760.jpg,1602.jpg,1 Point,1 Point,348 Points,PS1_L6.csv,,,,,,,,,,,,,,,,,,,,,,,,,,,,,0,5,5,5,0,19,19,19,,,,,,,,,,,,,,,,,,,2986.2557677089935,p,0.7248320000071544,2987.055080041988,,,,,,271957,A,2024-12-11_11h11.08.394,EPIDM,2023.1.2,None,
7230.jpg,7570.jpg,5 Points,5 Points,353 Points,PS1_L6.csv,,,,,,,,,,,,,,,,,,,,,,,,,,,,,0,5,5,5,0,20,20,20,,,,,,,,,,,,,,,,,,,2991.30590591699,q,0.44991366600152105,2991.835691833985,,,,,,271957,A,2024-12-11_11h11.08.394,EPIDM,2023.1.2,None,
1022.jpg,6930.jpg,1 Point,1 Point,354 Points,PS1_L6.csv,,,,,,,,,,,,,,,,,,,,,,,,,,,,,0,5,5,5,0,21,21,21,,,,,,,,,,,,,,,,,,,2996.075191833981,q,2.2809927909984253,2998.430226625991,,,,,,271957,A,2024-12-11_11h11.08.394,EPIDM,2023.1.2,None,
8340.jpg,7546.jpg,2 Points,2 Points,356 Points,PS1_L6.csv,,,,,,,,,,,,,,,,,,,,,,,,,,,,,0,5,5,5,0,22,22,22,,,,,,,,,,,,,,,,,,,3002.682134333998,q,0.9379519160138443,3003.686641250999,,,,,,271957,A,2024-12-11_11h11.08.394,EPIDM,2023.1.2,None,
6243.jpg,2752.jpg,2 Points,2 Points,358 Points,PS1_L6.csv,,,,,,,,,,,,,,,,,,,,,,,,,,,,,0,5,5,5,0,23,23,23,,,,,,,,,,,,,,,,,,,3007.9453999589896,q,2.802822958008619,3010.8155180419853,,,3021.2954560419894,space,4.660025832999963,271957,A,2024-12-11_11h11.08.394,EPIDM,2023.1.2,None,
7280.jpg,7160.jpg,0 Points,0 Points,358 Points,PS1_L7.csv,,,,,,,,,,,,,,,,,,,,,,,,,,,,,0,6,6,6,0,0,0,0,,,,,,,,,,,,,,,,,,,3029.264656751009,p,0.8988797490019351,3030.2367942919955,,,,,,271957,A,2024-12-11_11h11.08.394,EPIDM,2023.1.2,None,
2580.jpg,8300.jpg,3 Points,3 Points,361 Points,PS1_L7.csv,,,,,,,,,,,,,,,,,,,,,,,,,,,,,0,6,6,6,0,1,1,1,,,,,,,,,,,,,,,,,,,3034.481570125994,p,0.8182484160060994,3035.374787626002,3,1.2328917080303654,,,,271957,A,2024-12-11_11h11.08.394,EPIDM,2023.1.2,None,
5972.jpg,6838.jpg,5 Points,5 Points,366 Points,PS1_L7.csv,,,,,,,,,,,,,,,,,,,,,,,,,,,,,0,6,6,6,0,2,2,2,,,,,,,,,,,,,,,,,,,3040.9246534169943,p,1.6640792080143,3042.6500150009815,,,,,,271957,A,2024-12-11_11h11.08.394,EPIDM,2023.1.2,None,
5621.jpg,5534.jpg,3 Points,3 Points,369 Points,PS1_L7.csv,,,,,,,,,,,,,,,,,,,,,,,,,,,,,0,6,6,6,0,3,3,3,,,,,,,,,,,,,,,,,,,3046.903227959003,q,1.5871359159937128,3048.5580832090054,,,,,,271957,A,2024-12-11_11h11.08.394,EPIDM,2023.1.2,None,
8480.jpg,6410.jpg,1 Point,1 Point,370 Points,PS1_L7.csv,,,,,,,,,,,,,,,,,,,,,,,,,,,,,0,6,6,6,0,4,4,4,,,,,,,,,,,,,,,,,,,3052.8071287919884,q,1.0514747070265003,3053.926161459007,,,,,,271957,A,2024-12-11_11h11.08.394,EPIDM,2023.1.2,None,
2702.jpg,1590.jpg,5 Points,5 Points,375 Points,PS1_L7.csv,,,,,,,,,,,,,,,,,,,,,,,,,,,,,0,6,6,6,0,5,5,5,,,,,,,,,,,,,,,,,,,3058.167357917002,p,0.9471284989849664,3059.1840133339865,,,,,,271957,A,2024-12-11_11h11.08.394,EPIDM,2023.1.2,None,
1275.jpg,3150.jpg,1 Point,1 Point,376 Points,PS1_L7.csv,,,,,,,,,,,,,,,,,,,,,,,,,,,,,0,6,6,6,0,6,6,6,,,,,,,,,,,,,,,,,,,3063.431192291988,q,2.707716541015543,3066.2061475419905,,,,,,271957,A,2024-12-11_11h11.08.394,EPIDM,2023.1.2,None,
1910.jpg,2575.jpg,2 Points,2 Points,378 Points,PS1_L7.csv,,,,,,,,,,,,,,,,,,,,,,,,,,,,,0,6,6,6,0,7,7,7,,,,,,,,,,,,,,,,,,,3070.460671876004,q,1.9650920410058461,3072.490894625982,,,,,,271957,A,2024-12-11_11h11.08.394,EPIDM,2023.1.2,None,
2518.jpg,2381.jpg,1 Point,1 Point,382 Points,PS1_L7.csv,,,,,,,,,,,,,,,,,,,,,,,,,,,,,0,6,6,6,0,8,8,8,,,,,,,,,,,,,,,,,,,3076.743430083996,q,1.7788139159965795,3078.5868096259946,,,,,,271957,A,2024-12-11_11h11.08.394,EPIDM,2023.1.2,None,
6250.1.jpg,3301.jpg,0 Points,0 Points,382 Points,PS1_L7.csv,,,,,,,,,,,,,,,,,,,,,,,,,,,,,0,6,6,6,0,9,9,9,,,,,,,,,,,,,,,,,,,3082.8507026669977,q,0.9916403740062378,3083.9074350009905,,,,,,271957,A,2024-12-11_11h11.08.394,EPIDM,2023.1.2,None,
7234.jpg,5533.jpg,3 Points,3 Points,385 Points,PS1_L7.csv,,,,,,,,,,,,,,,,,,,,,,,,,,,,,0,6,6,6,0,10,10,10,,,,,,,,,,,,,,,,,,,3088.156296875997,p,1.9017850410018582,3090.1463947090087,,,,,,271957,A,2024-12-11_11h11.08.394,EPIDM,2023.1.2,None,
9920.jpg,3068.jpg,5 Points,5 Points,390 Points,PS1_L7.csv,,,,,,,,,,,,,,,,,,,,,,,,,,,,,0,6,6,6,0,11,11,11,,,,,,,,,,,,,,,,,,,3094.390825084003,q,1.380169708019821,3095.8356135420036,,,,,,271957,A,2024-12-11_11h11.08.394,EPIDM,2023.1.2,None,
3022.jpg,2352.2.jpg,0 Points,0 Points,390 Points,PS1_L7.csv,,,,,,,,,,,,,,,,,,,,,,,,,,,,,0,6,6,6,0,12,12,12,,,,,,,,,,,,,,,,,,,3100.0855910840037,p,2.5079749160213396,3102.6655276670062,,,,,,271957,A,2024-12-11_11h11.08.394,EPIDM,2023.1.2,None,
8250.jpg,1313.jpg,4 Points,4 Points,394 Points,PS1_L7.csv,,,,,,,,,,,,,,,,,,,,,,,,,,,,,0,6,6,6,0,13,13,13,,,,,,,,,,,,,,,,,,,3106.9094714169914,q,1.8118991249939427,3108.7967469169816,4,1.2604357910167892,,,,271957,A,2024-12-11_11h11.08.394,EPIDM,2023.1.2,None,
2690.jpg,9360.jpg,1 Point,1 Point,395 Points,PS1_L7.csv,,,,,,,,,,,,,,,,,,,,,,,,,,,,,0,6,6,6,0,14,14,14,,,,,,,,,,,,,,,,,,,3114.3865717510052,q,2.4232671660138294,3116.881236666988,,,,,,271957,A,2024-12-11_11h11.08.394,EPIDM,2023.1.2,None,
9570.jpg,6610.jpg,0 Points,0 Points,395 Points,PS1_L7.csv,,,,,,,,,,,,,,,,,,,,,,,,,,,,,0,6,6,6,0,15,15,15,,,,,,,,,,,,,,,,,,,3121.132838208985,p,0.9328866240102798,3122.136979959003,,,,,,271957,A,2024-12-11_11h11.08.394,EPIDM,2023.1.2,None,
3110.jpg,9000.jpg,4 Points,4 Points,399 Points,PS1_L7.csv,,,,,,,,,,,,,,,,,,,,,,,,,,,,,0,6,6,6,0,16,16,16,,,,,,,,,,,,,,,,,,,3126.3957412090094,p,1.3901577080250718,3127.841708000982,,,,,,271957,A,2024-12-11_11h11.08.394,EPIDM,2023.1.2,None,
8465.jpg,8400.jpg,1 Point,1 Point,400 Points,PS1_L7.csv,,,,,,,,,,,,,,,,,,,,,,,,,,,,,0,6,6,6,0,17,17,17,,,,,,,,,,,,,,,,,,,3132.0956941260083,q,2.017194375017425,3134.1893855009985,,,,,,271957,A,2024-12-11_11h11.08.394,EPIDM,2023.1.2,None,
1540.jpg,2600.jpg,1 Point,1 Point,401 Points,PS1_L7.csv,,,,,,,,,,,,,,,,,,,,,,,,,,,,,0,6,6,6,0,18,18,18,,,,,,,,,,,,,,,,,,,3138.4456425009994,q,0.8107037069858052,3139.3218592919875,,,,,,271957,A,2024-12-11_11h11.08.394,EPIDM,2023.1.2,None,
2276.jpg,6540.jpg,3 Points,3 Points,404 Points,PS1_L7.csv,,,,,,,,,,,,,,,,,,,,,,,,,,,,,0,6,6,6,0,19,19,19,,,,,,,,,,,,,,,,,,,3143.5718085420085,p,1.7485985820239875,3145.3764922510018,,,,,,271957,A,2024-12-11_11h11.08.394,EPIDM,2023.1.2,None,
5030.jpg,1670.jpg,3 Points,3 Points,407 Points,PS1_L7.csv,,,,,,,,,,,,,,,,,,,,,,,,,,,,,0,6,6,6,0,20,20,20,,,,,,,,,,,,,,,,,,,3149.638320166996,q,1.3070357069955207,3151.0013364169863,,,,,,271957,A,2024-12-11_11h11.08.394,EPIDM,2023.1.2,None,
9040.jpg,1120.jpg,3 Points,3 Points,410 Points,PS1_L7.csv,,,,,,,,,,,,,,,,,,,,,,,,,,,,,0,6,6,6,0,21,21,21,,,,,,,,,,,,,,,,,,,3155.263128916995,q,2.5777699580066837,3157.9137309170037,,,,,,271957,A,2024-12-11_11h11.08.394,EPIDM,2023.1.2,None,
3220.jpg,3063.jpg,5 Points,5 Points,415 Points,PS1_L7.csv,,,,,,,,,,,,,,,,,,,,,,,,,,,,,0,6,6,6,0,22,22,22,,,,,,,,,,,,,,,,,,,3162.1637334169936,p,2.6445932910137344,3164.8739558759844,,,,,,271957,A,2024-12-11_11h11.08.394,EPIDM,2023.1.2,None,
8117.jpg,2880.jpg,5 Points,5 Points,420 Points,PS1_L7.csv,,,,,,,,,,,,,,,,,,,,,,,,,,,,,0,6,6,6,0,23,23,23,,,,,,,,,,,,,,,,,,,3169.137517750991,q,1.814897041011136,3171.0297985009965,,,3181.498806583986,space,3.956905374012422,271957,A,2024-12-11_11h11.08.394,EPIDM,2023.1.2,None,
4274.jpg,8160.jpg,2 Points,2 Points,422 Points,PS1_L8.csv,,,,,,,,,,,,,,,,,,,,,,,,,,,,,0,7,7,7,0,0,0,0,,,,,,,,,,,,,,,,,,,3188.7853088759875,q,2.189767957024742,3191.0517756670015,,,,,,271957,A,2024-12-11_11h11.08.394,EPIDM,2023.1.2,None,
6314.jpg,O022.jpg,2 Points,2 Points,424 Points,PS1_L8.csv,,,,,,,,,,,,,,,,,,,,,,,,,,,,,0,7,7,7,0,1,1,1,,,,,,,,,,,,,,,,,,,3195.2954987089906,p,1.9756749579973985,3197.376347042009,2,1.180863290996058,,,,271957,A,2024-12-11_11h11.08.394,EPIDM,2023.1.2,None,
1560.jpg,8185.jpg,0 Points,0 Points,424 Points,PS1_L8.csv,,,,,,,,,,,,,,,,,,,,,,,,,,,,,0,7,7,7,0,2,2,2,,,,,,,,,,,,,,,,,,,3202.881199375988,q,1.1036226249998435,3204.0915986670007,,,,,,271957,A,2024-12-11_11h11.08.394,EPIDM,2023.1.2,None,
2850.jpg,4532.jpg,3 Points,3 Points,427 Points,PS1_L8.csv,,,,,,,,,,,,,,,,,,,,,,,,,,,,,0,7,7,7,0,3,3,3,,,,,,,,,,,,,,,,,,,3208.3072646670043,q,2.284336874028668,3210.654785958992,,,,,,271957,A,2024-12-11_11h11.08.394,EPIDM,2023.1.2,None,
1390.jpg,9421.jpg,2 Points,2 Points,429 Points,PS1_L8.csv,,,,,,,,,,,,,,,,,,,,,,,,,,,,,0,7,7,7,0,4,4,4,,,,,,,,,,,,,,,,,,,3214.9103430419927,p,1.6408099570253398,3216.6185042919824,,,,,,271957,A,2024-12-11_11h11.08.394,EPIDM,2023.1.2,None,
9800.jpg,9433.jpg,1 Point,1 Point,430 Points,PS1_L8.csv,,,,,,,,,,,,,,,,,,,,,,,,,,,,,0,7,7,7,0,5,5,5,,,,,,,,,,,,,,,,,,,3220.86319725099,q,1.175745499000186,3222.1083775839943,,,,,,271957,A,2024-12-11_11h11.08.394,EPIDM,2023.1.2,None,
8161.jpg,1900.jpg,4 Points,4 Points,434 Points,PS1_L8.csv,,,,,,,,,,,,,,,,,,,,,,,,,,,,,0,7,7,7,0,6,6,6,,,,,,,,,,,,,,,,,,,3226.369704501005,p,0.4148064990295097,3226.8505787510076,,,,,,271957,A,2024-12-11_11h11.08.394,EPIDM,2023.1.2,None,
1112.jpg,6230.jpg,3 Points,3 Points,437 Points,PS1_L8.csv,,,,,,,,,,,,,,,,,,,,,,,,,,,,,0,7,7,7,0,7,7,7,,,,,,,,,,,,,,,,,,,3231.1072410010092,p,1.2358452070038766,3232.411328208982,,,,,,271957,A,2024-12-11_11h11.08.394,EPIDM,2023.1.2,None,
1111.jpg,1040.jpg,0 Points,0 Points,437 Points,PS1_L8.csv,,,,,,,,,,,,,,,,,,,,,,,,,,,,,0,7,7,7,0,8,8,8,,,,,,,,,,,,,,,,,,,3236.6492256670026,p,2.285680583008798,3239.007363916986,,,,,,271957,A,2024-12-11_11h11.08.394,EPIDM,2023.1.2,None,
5622.jpg,9156.jpg,4 Points,4 Points,441 Points,PS1_L8.csv,,,,,,,,,,,,,,,,,,,,,,,,,,,,,0,7,7,7,0,9,9,9,,,,,,,,,,,,,,,,,,,3243.246192416991,q,1.0870944159978535,3244.417139792,,,,,,271957,A,2024-12-11_11h11.08.394,EPIDM,2023.1.2,None,
2681.jpg,7100.jpg,3 Points,3 Points,444 Points,PS1_L8.csv,,,,,,,,,,,,,,,,,,,,,,,,,,,,,0,7,7,7,0,10,10,10,,,,,,,,,,,,,,,,,,,3248.6589958340046,q,0.9955472910078242,3249.726409041992,,,,,,271957,A,2024-12-11_11h11.08.394,EPIDM,2023.1.2,None,
6821.jpg,9622.jpg,2 Points,2 Points,446 Points,PS1_L8.csv,,,,,,,,,,,,,,,,,,,,,,,,,,,,,0,7,7,7,0,11,11,11,,,,,,,,,,,,,,,,,,,3253.9707276260015,p,1.754663124011131,3255.7959157509904,,,,,,271957,A,2024-12-11_11h11.08.394,EPIDM,2023.1.2,None,
9490.jpg,9210.jpg,1 Point,1 Point,447 Points,PS1_L8.csv,,,,,,,,,,,,,,,,,,,,,,,,,,,,,0,7,7,7,0,12,12,12,,,,,,,,,,,,,,,,,,,3260.051816875988,q,2.002645708009368,3262.1177283760044,,,,,,271957,A,2024-12-11_11h11.08.394,EPIDM,2023.1.2,None,
4605.jpg,1510.jpg,4 Points,4 Points,451 Points,PS1_L8.csv,,,,,,,,,,,,,,,,,,,,,,,,,,,,,0,7,7,7,0,13,13,13,,,,,,,,,,,,,,,,,,,3266.383345084003,p,0.4866322489979211,3266.945456708985,4,1.905916415998945,,,,271957,A,2024-12-11_11h11.08.394,EPIDM,2023.1.2,None,
2240.jpg,5010.jpg,5 Points,5 Points,456 Points,PS1_L8.csv,,,,,,,,,,,,,,,,,,,,,,,,,,,,,0,7,7,7,0,14,14,14,,,,,,,,,,,,,,,,,,,3273.181831083988,p,2.0882841240090784,3275.3388836259837,,,,,,271957,A,2024-12-11_11h11.08.394,EPIDM,2023.1.2,None,
3102.jpg,F032.jpg,1 Point,1 Point,457 Points,PS1_L8.csv,,,,,,,,,,,,,,,,,,,,,,,,,,,,,0,7,7,7,0,15,15,15,,,,,,,,,,,,,,,,,,,3279.5885992090043,p,1.0166381240123883,3280.7119075839873,,,,,,271957,A,2024-12-11_11h11.08.394,EPIDM,2023.1.2,None,
4100.jpg,6570.2.jpg,3 Points,3 Points,460 Points,PS1_L8.csv,,,,,,,,,,,,,,,,,,,,,,,,,,,,,0,7,7,7,0,16,16,16,,,,,,,,,,,,,,,,,,,3284.9251154589874,q,1.2243476250150707,3286.2756627920025,,,,,,271957,A,2024-12-11_11h11.08.394,EPIDM,2023.1.2,None,
2650.jpg,4531.jpg,5 Points,5 Points,465 Points,PS1_L8.csv,,,,,,,,,,,,,,,,,,,,,,,,,,,,,0,7,7,7,0,17,17,17,,,,,,,,,,,,,,,,,,,3290.484852416994,p,2.6643813330156263,3293.2249685839924,,,,,,271957,A,2024-12-11_11h11.08.394,EPIDM,2023.1.2,None,
9320.jpg,9007.jpg,0 Points,0 Points,465 Points,PS1_L8.csv,,,,,,,,,,,,,,,,,,,,,,,,,,,,,0,7,7,7,0,18,18,18,,,,,,,,,,,,,,,,,,,3297.4678424590093,p,1.6244326240266673,3299.1726753760013,,,,,,271957,A,2024-12-11_11h11.08.394,EPIDM,2023.1.2,None,
8460.jpg,8330.jpg,0 Points,0 Points,465 Points,PS1_L8.csv,,,,,,,,,,,,,,,,,,,,,,,,,,,,,0,7,7,7,0,19,19,19,,,,,,,,,,,,,,,,,,,3303.4165470009902,p,0.7401826239947695,3304.2211885009892,,,,,,271957,A,2024-12-11_11h11.08.394,EPIDM,2023.1.2,None,
2570.jpg,5500.jpg,3 Points,3 Points,468 Points,PS1_L8.csv,,,,,,,,,,,,,,,,,,,,,,,,,,,,,0,7,7,7,0,20,20,20,,,,,,,,,,,,,,,,,,,3308.476846876001,q,1.1506123740109615,3309.697979250981,,,,,,271957,A,2024-12-11_11h11.08.394,EPIDM,2023.1.2,None,
6190.jpg,3120.jpg,5 Points,5 Points,473 Points,PS1_L8.csv,,,,,,,,,,,,,,,,,,,,,,,,,,,,,0,7,7,7,0,21,21,21,,,,,,,,,,,,,,,,,,,3313.9477795840066,q,1.0887601239955984,3315.119839750987,,,,,,271957,A,2024-12-11_11h11.08.394,EPIDM,2023.1.2,None,
2200.jpg,4598.jpg,1 Point,1 Point,474 Points,PS1_L8.csv,,,,,,,,,,,,,,,,,,,,,,,,,,,,,0,7,7,7,0,22,22,22,,,,,,,,,,,,,,,,,,,3319.360346458998,q,1.3798660410102457,3320.8144417919975,,,,,,271957,A,2024-12-11_11h11.08.394,EPIDM,2023.1.2,None,
1303.jpg,2000.jpg,0 Points,0 Points,474 Points,PS1_L8.csv,,,,,,,,,,,,,,,,,,,,,,,,,,,,,0,7,7,7,0,23,23,23,,,,,,,,,,,,,,,,,,,3325.057703333994,q,1.6185265409876592,3326.7487551670056,,,3337.240032458998,space,3.2359514990239404,271957,A,2024-12-11_11h11.08.394,EPIDM,2023.1.2,None,
9010.jpg,9253.jpg,0 Points,0 Points,474 Points,PS1_L9.csv,,,,,,,,,,,,,,,,,,,,,,,,,,,,,0,8,8,8,0,0,0,0,,,,,,,,,,,,,,,,,,,3343.7929861260054,p,2.419135707023088,3346.281849500985,,,,,,271957,A,2024-12-11_11h11.08.394,EPIDM,2023.1.2,None,
1302.jpg,2700.jpg,3 Points,3 Points,477 Points,PS1_L9.csv,,,,,,,,,,,,,,,,,,,,,,,,,,,,,0,8,8,8,0,1,1,1,,,,,,,,,,,,,,,,,,,3350.5366876260086,p,1.338420790998498,3351.9555405009887,3,1.301568582013715,,,,271957,A,2024-12-11_11h11.08.394,EPIDM,2023.1.2,None,
2030.jpg,2495.jpg,0 Points,0 Points,477 Points,PS1_L9.csv,,,,,,,,,,,,,,,,,,,,,,,,,,,,,0,8,8,8,0,2,2,2,,,,,,,,,,,,,,,,,,,3357.576025376009,p,1.1317297910281923,3358.7742089589883,,,,,,271957,A,2024-12-11_11h11.08.394,EPIDM,2023.1.2,None,
2110.jpg,7260.jpg,5 Points,5 Points,482 Points,PS1_L9.csv,,,,,,,,,,,,,,,,,,,,,,,,,,,,,0,8,8,8,0,3,3,3,,,,,,,,,,,,,,,,,,,3363.0160903759825,p,1.2590754990233108,3364.3460909590067,,,,,,271957,A,2024-12-11_11h11.08.394,EPIDM,2023.1.2,None,
2053.jpg,9415.jpg,4 Points,4 Points,486 Points,PS1_L9.csv,,,,,,,,,,,,,,,,,,,,,,,,,,,,,0,8,8,8,0,4,4,4,,,,,,,,,,,,,,,,,,,3368.589747750986,q,0.9497698750055861,3369.6032637509925,,,,,,271957,A,2024-12-11_11h11.08.394,EPIDM,2023.1.2,None,
6211.jpg,9611.jpg,3 Points,3 Points,489 Points,PS1_L9.csv,,,,,,,,,,,,,,,,,,,,,,,,,,,,,0,8,8,8,0,5,5,5,,,,,,,,,,,,,,,,,,,3373.847892500984,p,0.7163076239812654,3374.6295446669974,,,,,,271957,A,2024-12-11_11h11.08.394,EPIDM,2023.1.2,None,
8350.jpg,7190.jpg,5 Points,5 Points,494 Points,PS1_L9.csv,,,,,,,,,,,,,,,,,,,,,,,,,,,,,0,8,8,8,0,6,6,6,,,,,,,,,,,,,,,,,,,3378.8866342089896,p,1.5394640409795102,3380.504947751004,,,,,,271957,A,2024-12-11_11h11.08.394,EPIDM,2023.1.2,None,
9340.jpg,6910.jpg,0 Points,0 Points,494 Points,PS1_L9.csv,,,,,,,,,,,,,,,,,,,,,,,,,,,,,0,8,8,8,0,7,7,7,,,,,,,,,,,,,,,,,,,3384.7454786669987,q,2.002069373993436,3386.8144877089944,,,,,,271957,A,2024-12-11_11h11.08.394,EPIDM,2023.1.2,None,
4533.jpg,2385.jpg,3 Points,3 Points,497 Points,PS1_L9.csv,,,,,,,,,,,,,,,,,,,,,,,,,,,,,0,8,8,8,0,8,8,8,,,,,,,,,,,,,,,,,,,3391.0635931669967,q,1.51618149902788,3392.6547643759986,,,,,,271957,A,2024-12-11_11h11.08.394,EPIDM,2023.1.2,None,
5940.jpg,9411.jpg,0 Points,0 Points,497 Points,PS1_L9.csv,,,,,,,,,,,,,,,,,,,,,,,,,,,,,0,8,8,8,0,9,9,9,,,,,,,,,,,,,,,,,,,3396.8919235009816,q,1.5660215820244048,3398.5300721259846,,,,,,271957,A,2024-12-11_11h11.08.394,EPIDM,2023.1.2,None,
2220.jpg,2010.jpg,5 Points,5 Points,502 Points,PS1_L9.csv,,,,,,,,,,,,,,,,,,,,,,,,,,,,,0,8,8,8,0,10,10,10,,,,,,,,,,,,,,,,,,,3402.768010708998,q,1.0662347500037868,3403.916974958993,,,,,,271957,A,2024-12-11_11h11.08.394,EPIDM,2023.1.2,None,
9500.jpg,6360.jpg,1 Point,1 Point,503 Points,PS1_L9.csv,,,,,,,,,,,,,,,,,,,,,,,,,,,,,0,8,8,8,0,11,11,11,,,,,,,,,,,,,,,,,,,3408.165125250991,q,1.8047888329892885,3410.036872750992,,,,,,271957,A,2024-12-11_11h11.08.394,EPIDM,2023.1.2,None,
2092.jpg,2210.jpg,0 Points,0 Points,503 Points,PS1_L9.csv,,,,,,,,,,,,,,,,,,,,,,,,,,,,,0,8,8,8,0,12,12,12,,,,,,,,,,,,,,,,,,,3414.2898571259866,q,0.9434639570245054,3415.3095034169964,,,,,,271957,A,2024-12-11_11h11.08.394,EPIDM,2023.1.2,None,
9530.jpg,9220.jpg,1 Point,1 Point,504 Points,PS1_L9.csv,,,,,,,,,,,,,,,,,,,,,,,,,,,,,0,8,8,8,0,13,13,13,,,,,,,,,,,,,,,,,,,3419.5626233759976,p,0.7436532069987152,3420.3640306669986,1,1.1298774990136735,,,,271957,A,2024-12-11_11h11.08.394,EPIDM,2023.1.2,None,
9254.jpg,9290.jpg,2 Points,2 Points,506 Points,PS1_L9.csv,,,,,,,,,,,,,,,,,,,,,,,,,,,,,0,8,8,8,0,14,14,14,,,,,,,,,,,,,,,,,,,3425.8188365839887,q,1.5112134160008281,3427.3930993760005,,,,,,271957,A,2024-12-11_11h11.08.394,EPIDM,2023.1.2,None,
4608.jpg,8320.jpg,1 Point,1 Point,507 Points,PS1_L9.csv,,,,,,,,,,,,,,,,,,,,,,,,,,,,,0,8,8,8,0,15,15,15,,,,,,,,,,,,,,,,,,,3431.655055292009,q,1.5788542490045074,3433.3072765420075,,,,,,271957,A,2024-12-11_11h11.08.394,EPIDM,2023.1.2,None,
7237.jpg,8510.jpg,4 Points,4 Points,511 Points,PS1_L9.csv,,,,,,,,,,,,,,,,,,,,,,,,,,,,,0,8,8,8,0,16,16,16,,,,,,,,,,,,,,,,,,,3437.5611670009966,p,0.9690279159985948,3438.603434458986,,,,,,271957,A,2024-12-11_11h11.08.394,EPIDM,2023.1.2,None,
9417.jpg,6530.jpg,1 Point,1 Point,512 Points,PS1_L9.csv,,,,,,,,,,,,,,,,,,,,,,,,,,,,,0,8,8,8,0,17,17,17,,,,,,,,,,,,,,,,,,,3442.854380000994,q,1.835023916006321,3444.758768000989,,,,,,271957,A,2024-12-11_11h11.08.394,EPIDM,2023.1.2,None,
6831.jpg,2141.jpg,5 Points,5 Points,517 Points,PS1_L9.csv,,,,,,,,,,,,,,,,,,,,,,,,,,,,,0,8,8,8,0,18,18,18,,,,,,,,,,,,,,,,,,,3449.008436876,q,1.50461966599687,3450.5799094169925,,,,,,271957,A,2024-12-11_11h11.08.394,EPIDM,2023.1.2,None,
4689.jpg,7009.jpg,5 Points,5 Points,522 Points,PS1_L9.csv,,,,,,,,,,,,,,,,,,,,,,,,,,,,,0,8,8,8,0,19,19,19,,,,,,,,,,,,,,,,,,,3454.826059751009,q,1.2789247909968253,3456.169594417006,,,,,,271957,A,2024-12-11_11h11.08.394,EPIDM,2023.1.2,None,
2751.jpg,6313.jpg,3 Points,3 Points,525 Points,PS1_L9.csv,,,,,,,,,,,,,,,,,,,,,,,,,,,,,0,8,8,8,0,20,20,20,,,,,,,,,,,,,,,,,,,3460.420585916989,p,2.3972232910164166,3462.8843720419973,,,,,,271957,A,2024-12-11_11h11.08.394,EPIDM,2023.1.2,None,
4621.jpg,3550.jpg,2 Points,2 Points,527 Points,PS1_L9.csv,,,,,,,,,,,,,,,,,,,,,,,,,,,,,0,8,8,8,0,21,21,21,,,,,,,,,,,,,,,,,,,3467.127223458985,p,1.4581082079967018,3468.6618409169896,,,,,,271957,A,2024-12-11_11h11.08.394,EPIDM,2023.1.2,None,
8220.jpg,2410.jpg,4 Points,4 Points,531 Points,PS1_L9.csv,,,,,,,,,,,,,,,,,,,,,,,,,,,,,0,8,8,8,0,22,22,22,,,,,,,,,,,,,,,,,,,3472.905995334004,p,2.1427304160024505,3475.122141875996,,,,,,271957,A,2024-12-11_11h11.08.394,EPIDM,2023.1.2,None,
1113.jpg,1240.jpg,3 Points,3 Points,534 Points,PS1_L9.csv,,,,,,,,,,,,,,,,,,,,,,,,,,,,,0,8,8,8,0,23,23,23,,,,,,,,,,,,,,,,,,,3479.3730612509826,p,1.3389248739986215,3480.793256709003,,,3491.2636581670085,space,6.024496582016582,271957,A,2024-12-11_11h11.08.394,EPIDM,2023.1.2,None,
2750.jpg,9050.jpg,4 Points,4 Points,538 Points,PS1_L10.csv,,,,,,,,,,,,,,,,,,,,,,,,,,,,,0,9,9,9,0,0,0,0,,,,,,,,,,,,,,,,,,,3500.606997083989,q,1.9701386660162825,3502.6610357509926,,,,,,271957,A,2024-12-11_11h11.08.394,EPIDM,2023.1.2,None,
2312.jpg,2722.jpg,1 Points,1 Points,539 Points,PS1_L10.csv,,,,,,,,,,,,,,,,,,,,,,,,,,,,,0,9,9,9,0,1,1,1,,,,,,,,,,,,,,,,,,,3506.9077490420023,p,1.0269137489958666,3508.0077910420077,1,1.2762099570245482,,,,271957,A,2024-12-11_11h11.08.394,EPIDM,2023.1.2,None,
8232.jpg,4279.jpg,5 Points,5 Points,544 Points,PS1_L10.csv,,,,,,,,,,,,,,,,,,,,,,,,,,,,,0,9,9,9,0,2,2,2,,,,,,,,,,,,,,,,,,,3513.591900291998,q,1.8877004160021897,3515.559496458998,,,,,,271957,A,2024-12-11_11h11.08.394,EPIDM,2023.1.2,None,
6000.jpg,6836.jpg,4 Points,4 Points,548 Points,PS1_L10.csv,,,,,,,,,,,,,,,,,,,,,,,,,,,,,0,9,9,9,0,3,3,3,,,,,,,,,,,,,,,,,,,3519.8100790839817,p,0.988869541004533,3520.8776515839854,,,,,,271957,A,2024-12-11_11h11.08.394,EPIDM,2023.1.2,None,
4536.jpg,2280.jpg,4 Points,4 Points,552 Points,PS1_L10.csv,,,,,,,,,,,,,,,,,,,,,,,,,,,,,0,9,9,9,0,4,4,4,,,,,,,,,,,,,,,,,,,3525.1215687090007,q,2.413741623982787,3527.593504126009,,,,,,271957,A,2024-12-11_11h11.08.394,EPIDM,2023.1.2,None,
6241.jpg,9561.jpg,3 Points,3 Points,555 Points,PS1_L10.csv,,,,,,,,,,,,,,,,,,,,,,,,,,,,,0,9,9,9,0,5,5,5,,,,,,,,,,,,,,,,,,,3531.8520717089996,p,0.851132416020846,3532.773277792003,,,,,,271957,A,2024-12-11_11h11.08.394,EPIDM,2023.1.2,None,
1942.jpg,2890.jpg,1 Points,1 Points,556 Points,PS1_L10.csv,,,,,,,,,,,,,,,,,,,,,,,,,,,,,0,9,9,9,0,6,6,6,,,,,,,,,,,,,,,,,,,3537.0146927509923,q,1.8880387489916757,3538.9592230420094,,,,,,271957,A,2024-12-11_11h11.08.394,EPIDM,2023.1.2,None,
6020.jpg,6300.jpg,2 Points,2 Points,558 Points,PS1_L10.csv,,,,,,,,,,,,,,,,,,,,,,,,,,,,,0,9,9,9,0,7,7,7,,,,,,,,,,,,,,,,,,,3543.2184357089864,q,1.6125950409914367,3544.901127166988,,,,,,271957,A,2024-12-11_11h11.08.394,EPIDM,2023.1.2,None,
7170.jpg,2170.jpg,2 Points,2 Points,560 Points,PS1_L10.csv,,,,,,,,,,,,,,,,,,,,,,,,,,,,,0,9,9,9,0,8,8,8,,,,,,,,,,,,,,,,,,,3549.1626554589893,p,1.1717190830095205,3550.397227501002,,,,,,271957,A,2024-12-11_11h11.08.394,EPIDM,2023.1.2,None,
5510.jpg,2514.jpg,5 Points,5 Points,565 Points,PS1_L10.csv,,,,,,,,,,,,,,,,,,,,,,,,,,,,,0,9,9,9,0,9,9,9,,,,,,,,,,,,,,,,,,,3554.6516458340047,p,1.666886749007972,3556.3901262919826,,,,,,271957,A,2024-12-11_11h11.08.394,EPIDM,2023.1.2,None,
6840.jpg,3080.jpg,1 Points,1 Points,566 Points,PS1_L10.csv,,,,,,,,,,,,,,,,,,,,,,,,,,,,,0,9,9,9,0,10,10,10,,,,,,,,,,,,,,,,,,,3560.638215209008,p,1.7283549570129253,3562.4375929170055,,,,,,271957,A,2024-12-11_11h11.08.394,EPIDM,2023.1.2,None,
7195.jpg,2487.jpg,2 Points,2 Points,568 Points,PS1_L10.csv,,,,,,,,,,,,,,,,,,,,,,,,,,,,,0,9,9,9,0,11,11,11,,,,,,,,,,,,,,,,,,,3566.698722166999,q,0.9151971249957569,3567.6846515419893,,,,,,271957,A,2024-12-11_11h11.08.394,EPIDM,2023.1.2,None,
5971.jpg,9912.jpg,5 Points,5 Points,573 Points,PS1_L10.csv,,,,,,,,,,,,,,,,,,,,,,,,,,,,,0,9,9,9,0,12,12,12,,,,,,,,,,,,,,,,,,,3571.931884625985,p,1.3539846249914262,3573.3542656670033,,,,,,271957,A,2024-12-11_11h11.08.394,EPIDM,2023.1.2,None,
2520.jpg,8503.jpg,2 Points,2 Points,575 Points,PS1_L10.csv,,,,,,,,,,,,,,,,,,,,,,,,,,,,,0,9,9,9,0,13,13,13,,,,,,,,,,,,,,,,,,,3577.607627083984,p,0.9678099570155609,3578.6544718759833,2,1.2001326660101768,,,,271957,A,2024-12-11_11h11.08.394,EPIDM,2023.1.2,None,
5480.jpg,8200.jpg,4 Points,4 Points,579 Points,PS1_L10.csv,,,,,,,,,,,,,,,,,,,,,,,,,,,,,0,9,9,9,0,14,14,14,,,,,,,,,,,,,,,,,,,3584.1778804170026,p,1.8282113320019562,3586.0851621259935,,,,,,271957,A,2024-12-11_11h11.08.394,EPIDM,2023.1.2,None,
6370.jpg,1270.jpg,4 Points,4 Points,583 Points,PS1_L10.csv,,,,,,,,,,,,,,,,,,,,,,,,,,,,,0,9,9,9,0,15,15,15,,,,,,,,,,,,,,,,,,,3590.3207109170035,q,0.9243926659983117,3591.3235438340052,,,,,,271957,A,2024-12-11_11h11.08.394,EPIDM,2023.1.2,None,
5130.jpg,1810.jpg,3 Points,3 Points,586 Points,PS1_L10.csv,,,,,,,,,,,,,,,,,,,,,,,,,,,,,0,9,9,9,0,16,16,16,,,,,,,,,,,,,,,,,,,3595.5728307089885,p,1.3361347499885596,3596.990381376003,,,,,,271957,A,2024-12-11_11h11.08.394,EPIDM,2023.1.2,None,
4250.jpg,7060.jpg,5 Points,5 Points,591 Points,PS1_L10.csv,,,,,,,,,,,,,,,,,,,,,,,,,,,,,0,9,9,9,0,17,17,17,,,,,,,,,,,,,,,,,,,3601.2236774589983,p,1.6461128740338609,3602.9431156670034,,,,,,271957,A,2024-12-11_11h11.08.394,EPIDM,2023.1.2,None,
9373.jpg,9410.jpg,0 Points,0 Points,591 Points,PS1_L10.csv,,,,,,,,,,,,,,,,,,,,,,,,,,,,,0,9,9,9,0,18,18,18,,,,,,,,,,,,,,,,,,,3607.187707375997,p,2.633701958024176,3609.889592458989,,,,,,271957,A,2024-12-11_11h11.08.394,EPIDM,2023.1.2,None,
2221.jpg,2270.jpg,2 Points,2 Points,593 Points,PS1_L10.csv,,,,,,,,,,,,,,,,,,,,,,,,,,,,,0,9,9,9,0,19,19,19,,,,,,,,,,,,,,,,,,,3614.1394470839878,p,1.906091248994926,3616.119222542009,,,,,,271957,A,2024-12-11_11h11.08.394,EPIDM,2023.1.2,None,
1650.jpg,2130.jpg,1 Points,1 Points,594 Points,PS1_L10.csv,,,,,,,,,,,,,,,,,,,,,,,,,,,,,0,9,9,9,0,20,20,20,,,,,,,,,,,,,,,,,,,3620.3669214590045,q,0.9585514159989543,3621.397396958986,,,,,,271957,A,2024-12-11_11h11.08.394,EPIDM,2023.1.2,None,
1280.jpg,9402.jpg,2 Points,2 Points,596 Points,PS1_L10.csv,,,,,,,,,,,,,,,,,,,,,,,,,,,,,0,9,9,9,0,21,21,21,,,,,,,,,,,,,,,,,,,3625.6523460010067,p,1.952079124021111,3627.68054375099,,,,,,271957,A,2024-12-11_11h11.08.394,EPIDM,2023.1.2,None,
2214.jpg,4500.jpg,3 Points,3 Points,599 Points,PS1_L10.csv,,,,,,,,,,,,,,,,,,,,,,,,,,,,,0,9,9,9,0,22,22,22,,,,,,,,,,,,,,,,,,,3631.9395481669926,p,1.5772369990008883,3633.5896445009857,,,,,,271957,A,2024-12-11_11h11.08.394,EPIDM,2023.1.2,None,
7284.jpg,8021.jpg,4 Points,4 Points,603 Points,PS1_L10.csv,,,,,,,,,,,,,,,,,,,,,,,,,,,,,0,9,9,9,0,23,23,23,,,,,,,,,,,,,,,,,,,3637.8295541259868,q,1.1347847080032807,3639.0457388339855,,,3649.515067667002,space,9.377436291018967,271957,A,2024-12-11_11h11.08.394,EPIDM,2023.1.2,None,
