L_Scene,R_Scene,Points_L,Points_R,PtTotal,blockFile,Instructions_Loop.thisRepN,Instructions_Loop.thisTrialN,Instructions_Loop.thisN,Instructions_Loop.thisIndex,Redo_Instructions_Loop.thisRepN,Redo_Instructions_Loop.thisTrialN,Redo_Instructions_Loop.thisN,Redo_Instructions_Loop.thisIndex,Practice_Encoding_Loop.thisRepN,Practice_Encoding_Loop.thisTrialN,Practice_Encoding_Loop.thisN,Practice_Encoding_Loop.thisIndex,Practice_Response_Fail_Loop.thisRepN,Practice_Response_Fail_Loop.thisTrialN,Practice_Response_Fail_Loop.thisN,Practice_Response_Fail_Loop.thisIndex,Practice_FB_Loop.thisRepN,Practice_FB_Loop.thisTrialN,Practice_FB_Loop.thisN,Practice_FB_Loop.thisIndex,Practice_Attention_Loop.thisRepN,Practice_Attention_Loop.thisTrialN,Practice_Attention_Loop.thisN,Practice_Attention_Loop.thisIndex,Practice_EncBrk_Loop.thisRepN,Practice_EncBrk_Loop.thisTrialN,Practice_EncBrk_Loop.thisN,Practice_EncBrk_Loop.thisIndex,Encoding_Loop.thisRepN,Encoding_Loop.thisTrialN,Encoding_Loop.thisN,Encoding_Loop.thisIndex,EncStim_Loop.thisRepN,EncStim_Loop.thisTrialN,EncStim_Loop.thisN,EncStim_Loop.thisIndex,Response_Fail_Loop.thisRepN,Response_Fail_Loop.thisTrialN,Response_Fail_Loop.thisN,Response_Fail_Loop.thisIndex,FB_Loop.thisRepN,FB_Loop.thisTrialN,FB_Loop.thisN,FB_Loop.thisIndex,Attention_Loop.thisRepN,Attention_Loop.thisTrialN,Attention_Loop.thisN,Attention_Loop.thisIndex,EncBrk_Loop.thisRepN,EncBrk_Loop.thisTrialN,EncBrk_Loop.thisN,EncBrk_Loop.thisIndex,Transition_Enc.keys,Transition_Enc.rt,Encoding_Resp.started,Encoding_Resp.keys,Encoding_Resp.rt,R_Point_FB_Stim.started,Attn_resp.keys,Attn_resp.rt,Progress_Tracker.started,EncBrk_Resp.keys,EncBrk_Resp.rt,participant,Group,date,expName,psychopyVersion,frameRate,
,,,,,,,,,,,,,,,,,,,,,,,,,,,,,,,,,,,,,,,,,,,,,,,,,,,,,,,,,,space,5.3202022920013405,,,,,,,,,,272777,B,2024-12-12_09h34.36.036,EPIDM,2023.1.2,60.17770476672857,
A060.jpg,F041.jpg,5 Points,5 Points,5 Points,,,,,,,,,,0,0,0,0,,,,,,,,,,,,,,,,,,,,,,,,,,,,,,,,,,,,,,,,,,,140.4998935420008,p,1.354770500009181,141.99500075000105,,,,,,272777,B,2024-12-12_09h34.36.036,EPIDM,2023.1.2,60.17770476672857,
O161.jpg,1812.jpg,2 Points,2 Points,7 Points,,,,,,,,,,0,1,1,1,,,,,,,,,,,,,,,,,,,,,,,,,,,,,,,,,,,,,,,,,,,146.17945704198792,p,0.9803532079968136,147.30080724999425,,,,,,272777,B,2024-12-12_09h34.36.036,EPIDM,2023.1.2,60.17770476672857,
O013.jpg,A001.jpg,3 Points,3 Points,10 Points,,,,,,,,,,0,2,2,2,,,,,,,,,,,,,,,,,,,,,,,,,,,,,,,,,,,,,,,,,,,151.4698792079871,p,1.36923041701084,153.01222699999926,,,,,,272777,B,2024-12-12_09h34.36.036,EPIDM,2023.1.2,60.17770476672857,
P036.jpg,F273.jpg,5 Points,5 Points,15 Points,,,,,,,,,,0,3,3,3,,,,,,,,,,,,,,,,,,,,,,,,,,,,,,,,,,,,,,,,,,,157.15515608299756,p,2.02133766701445,159.35359345798497,,,,,,272777,B,2024-12-12_09h34.36.036,EPIDM,2023.1.2,60.17770476672857,
L130.jpg,2393.jpg,0 Points,0 Points,15 Points,,,,,,,,,,0,4,4,4,,,,,,,,,,,,,,,,,,,,,,,,,,,,,,,,,,,,,,,,,,,163.4980700419983,q,1.4455574589956086,165.09154791699257,0,3.601907582982676,,,,272777,B,2024-12-12_09h34.36.036,EPIDM,2023.1.2,60.17770476672857,
F279.jpg,P033.jpg,3 Points,3 Points,18 Points,,,,,,,,,,0,5,5,5,,,,,,,,,,,,,,,,,,,,,,,,,,,,,,,,,,,,,,,,,,,172.96884358298848,p,2.876799416990252,176.02138937500422,,,,,,272777,B,2024-12-12_09h34.36.036,EPIDM,2023.1.2,60.17770476672857,
A104.jpg,2593.jpg,2 Points,2 Points,20 Points,,,,,,,,,,0,6,6,6,,,,,,,,,,,,,,,,,,,,,,,,,,,,,,,,,,,,,,,,,,,180.16059774998575,q,2.200214209005935,182.5044984999986,,,,,,272777,B,2024-12-12_09h34.36.036,EPIDM,2023.1.2,60.17770476672857,
2598.jpg,2605.jpg,0 Points,0 Points,20 Points,,,,,,,,,,0,7,7,7,,,,,,,,,,,,,,,,,,,,,,,,,,,,,,,,,,,,,,,,,,,186.67971591700916,p,1.7423518750001676,188.5259079170064,,,,,,272777,B,2024-12-12_09h34.36.036,EPIDM,2023.1.2,60.17770476672857,
L005.jpg,O011.jpg,1 Points,1 Points,21 Points,,,,,,,,,,0,8,8,8,,,,,,,,,,,,,,,,,,,,,,,,,,,,,,,,,,,,,,,,,,,192.7455090000003,p,0.7492603760038037,193.63944349999656,,,,,,272777,B,2024-12-12_09h34.36.036,EPIDM,2023.1.2,60.17770476672857,
8186.jpg,F078.jpg,2 Points,2 Points,23 Points,,,,,,,,,,0,9,9,9,,,,,,,,,,,,,,,,,,,,,,,,,,,,,,,,,,,,,,,,,,,197.81047487500473,q,1.3490599999786355,199.29186833300628,2,3.35442629197496,212.84558720799396,space,21.672617292002542,272777,B,2024-12-12_09h34.36.036,EPIDM,2023.1.2,60.17770476672857,
,,,,,,,,,,,,,,,,,,,,,,,,,,,,,,,,,,,,,,,,,,,,,,,,,,,,,,,,,,space,3.089241709007183,,,,,,,,,,272777,B,2024-12-12_09h34.36.036,EPIDM,2023.1.2,60.17770476672857,
7284.jpg,8021.jpg,4 Points,4 Points,4 Points,PS2_L1.csv,,,,,,,,,,,,,,,,,,,,,,,,,,,,,0,0,0,0,0,0,0,0,,,,,,,,,,,,,,,,,,,249.3886336669966,p,1.7871319170226343,251.2758072919969,,,,,,272777,B,2024-12-12_09h34.36.036,EPIDM,2023.1.2,60.17770476672857,
2214.jpg,4500.jpg,3 Points,3 Points,7 points,PS2_L1.csv,,,,,,,,,,,,,,,,,,,,,,,,,,,,,0,0,0,0,0,1,1,1,,,,,,,,,,,,,,,,,,,255.501247667009,p,1.1524818759935442,256.73335279198363,3,1.6252389590081293,,,,272777,B,2024-12-12_09h34.36.036,EPIDM,2023.1.2,60.17770476672857,
1280.jpg,9402.jpg,2 Points,2 Points,9 points,PS2_L1.csv,,,,,,,,,,,,,,,,,,,,,,,,,,,,,0,0,0,0,0,2,2,2,,,,,,,,,,,,,,,,,,,262.6870032919978,q,2.926205541996751,265.68248691700865,,,,,,272777,B,2024-12-12_09h34.36.036,EPIDM,2023.1.2,60.17770476672857,
1650.jpg,2130.jpg,1 Points,1 Points,10 points,PS2_L1.csv,,,,,,,,,,,,,,,,,,,,,,,,,,,,,0,0,0,0,0,3,3,3,,,,,,,,,,,,,,,,,,,269.9241272500076,q,2.235034541983623,272.23454775000573,,,,,,272777,B,2024-12-12_09h34.36.036,EPIDM,2023.1.2,60.17770476672857,
2221.jpg,2270.jpg,2 Points,2 Points,12 points,PS2_L1.csv,,,,,,,,,,,,,,,,,,,,,,,,,,,,,0,0,0,0,0,4,4,4,,,,,,,,,,,,,,,,,,,276.47811566700693,q,1.9898815840133466,278.53129675000673,,,,,,272777,B,2024-12-12_09h34.36.036,EPIDM,2023.1.2,60.17770476672857,
9373.jpg,9410.jpg,0 Points,0 Points,12 points,PS2_L1.csv,,,,,,,,,,,,,,,,,,,,,,,,,,,,,0,0,0,0,0,5,5,5,,,,,,,,,,,,,,,,,,,282.7809557080036,p,1.8486910420178901,284.69946579198586,,,,,,272777,B,2024-12-12_09h34.36.036,EPIDM,2023.1.2,60.17770476672857,
4250.jpg,7060.jpg,5 Points,5 Points,17 points,PS2_L1.csv,,,,,,,,,,,,,,,,,,,,,,,,,,,,,0,0,0,0,0,6,6,6,,,,,,,,,,,,,,,,,,,288.9410169580078,p,1.5846604999969713,290.6184001250076,,,,,,272777,B,2024-12-12_09h34.36.036,EPIDM,2023.1.2,60.17770476672857,
5130.jpg,1810.jpg,3 Points,3 Points,20 points,PS2_L1.csv,,,,,,,,,,,,,,,,,,,,,,,,,,,,,0,0,0,0,0,7,7,7,,,,,,,,,,,,,,,,,,,294.8466934580065,p,1.0701780010131188,296.00328270799946,,,,,,272777,B,2024-12-12_09h34.36.036,EPIDM,2023.1.2,60.17770476672857,
6370.jpg,1270.jpg,4 Points,4 Points,24 points,PS2_L1.csv,,,,,,,,,,,,,,,,,,,,,,,,,,,,,0,0,0,0,0,8,8,8,,,,,,,,,,,,,,,,,,,300.2264425419853,q,0.7630112499755342,301.06757620800636,,,,,,272777,B,2024-12-12_09h34.36.036,EPIDM,2023.1.2,60.17770476672857,
5480.jpg,8200.jpg,4 Points,4 Points,28 points,PS2_L1.csv,,,,,,,,,,,,,,,,,,,,,,,,,,,,,0,0,0,0,0,9,9,9,,,,,,,,,,,,,,,,,,,305.3077569169982,q,2.3377306670008693,307.73071529198205,,,,,,272777,B,2024-12-12_09h34.36.036,EPIDM,2023.1.2,60.17770476672857,
2520.jpg,8503.jpg,2 Points,2 Points,30 points,PS2_L1.csv,,,,,,,,,,,,,,,,,,,,,,,,,,,,,0,0,0,0,0,10,10,10,,,,,,,,,,,,,,,,,,,311.97063525000704,q,1.5871416250010952,313.6329312080052,,,,,,272777,B,2024-12-12_09h34.36.036,EPIDM,2023.1.2,60.17770476672857,
5971.jpg,9912.jpg,5 Points,5 Points,35 points,PS2_L1.csv,,,,,,,,,,,,,,,,,,,,,,,,,,,,,0,0,0,0,0,11,11,11,,,,,,,,,,,,,,,,,,,317.87143920798553,p,1.2206914590205997,319.1601016249915,,,,,,272777,B,2024-12-12_09h34.36.036,EPIDM,2023.1.2,60.17770476672857,
7195.jpg,2487.jpg,2 Points,2 Points,37 points,PS2_L1.csv,,,,,,,,,,,,,,,,,,,,,,,,,,,,,0,0,0,0,0,12,12,12,,,,,,,,,,,,,,,,,,,323.40033416700317,p,1.435385042015696,324.9068768330035,,,,,,272777,B,2024-12-12_09h34.36.036,EPIDM,2023.1.2,60.17770476672857,
6840.jpg,3080.jpg,1 Points,1 Points,38 points,PS2_L1.csv,,,,,,,,,,,,,,,,,,,,,,,,,,,,,0,0,0,0,0,13,13,13,,,,,,,,,,,,,,,,,,,329.15043066701037,p,0.686282625014428,329.9012138329854,1,1.6565778749936726,,,,272777,B,2024-12-12_09h34.36.036,EPIDM,2023.1.2,60.17770476672857,
5510.jpg,2514.jpg,5 Points,5 Points,43 points,PS2_L1.csv,,,,,,,,,,,,,,,,,,,,,,,,,,,,,0,0,0,0,0,14,14,14,,,,,,,,,,,,,,,,,,,335.8672240419837,q,0.7212365839804988,336.6521964579879,,,,,,272777,B,2024-12-12_09h34.36.036,EPIDM,2023.1.2,60.17770476672857,
7170.jpg,2170.jpg,2 Points,2 Points,45 points,PS2_L1.csv,,,,,,,,,,,,,,,,,,,,,,,,,,,,,0,0,0,0,0,15,15,15,,,,,,,,,,,,,,,,,,,340.8905120420095,p,1.4177362920017913,342.38334462500643,,,,,,272777,B,2024-12-12_09h34.36.036,EPIDM,2023.1.2,60.17770476672857,
6020.jpg,6300.jpg,2 Points,2 Points,47 points,PS2_L1.csv,,,,,,,,,,,,,,,,,,,,,,,,,,,,,0,0,0,0,0,16,16,16,,,,,,,,,,,,,,,,,,,346.61966166700586,p,1.7709696669771802,348.4627024169895,,,,,,272777,B,2024-12-12_09h34.36.036,EPIDM,2023.1.2,60.17770476672857,
1942.jpg,2890.jpg,1 Points,1 Points,48 points,PS2_L1.csv,,,,,,,,,,,,,,,,,,,,,,,,,,,,,0,0,0,0,0,17,17,17,,,,,,,,,,,,,,,,,,,352.710079624987,q,1.7826037509948947,354.551569208008,,,,,,272777,B,2024-12-12_09h34.36.036,EPIDM,2023.1.2,60.17770476672857,
6241.jpg,9561.jpg,3 Points,3 Points,51 points,PS2_L1.csv,,,,,,,,,,,,,,,,,,,,,,,,,,,,,0,0,0,0,0,18,18,18,,,,,,,,,,,,,,,,,,,358.7971994999971,p,1.6074544170114677,360.47150275000604,,,,,,272777,B,2024-12-12_09h34.36.036,EPIDM,2023.1.2,60.17770476672857,
4536.jpg,2280.jpg,4 Points,4 Points,55 points,PS2_L1.csv,,,,,,,,,,,,,,,,,,,,,,,,,,,,,0,0,0,0,0,19,19,19,,,,,,,,,,,,,,,,,,,364.72543129199767,q,1.4864588330092374,366.2900132079958,,,,,,272777,B,2024-12-12_09h34.36.036,EPIDM,2023.1.2,60.17770476672857,
6000.jpg,6836.jpg,4 Points,4 Points,59 points,PS2_L1.csv,,,,,,,,,,,,,,,,,,,,,,,,,,,,,0,0,0,0,0,20,20,20,,,,,,,,,,,,,,,,,,,370.53636533298413,p,1.4914891259977594,372.0964738749899,,,,,,272777,B,2024-12-12_09h34.36.036,EPIDM,2023.1.2,60.17770476672857,
8232.jpg,4279.jpg,5 Points,5 Points,64 points,PS2_L1.csv,,,,,,,,,,,,,,,,,,,,,,,,,,,,,0,0,0,0,0,21,21,21,,,,,,,,,,,,,,,,,,,376.3343365830078,p,0.9324730419903062,377.34956354199676,,,,,,272777,B,2024-12-12_09h34.36.036,EPIDM,2023.1.2,60.17770476672857,
2312.jpg,2722.jpg,1 Points,1 Points,65 points,PS2_L1.csv,,,,,,,,,,,,,,,,,,,,,,,,,,,,,0,0,0,0,0,22,22,22,,,,,,,,,,,,,,,,,,,381.5835145000019,p,1.0351708749949466,382.69960116699804,,,,,,272777,B,2024-12-12_09h34.36.036,EPIDM,2023.1.2,60.17770476672857,
2750.jpg,9050.jpg,4 Points,4 Points,69 points,PS2_L1.csv,,,,,,,,,,,,,,,,,,,,,,,,,,,,,0,0,0,0,0,23,23,23,,,,,,,,,,,,,,,,,,,386.932830167003,q,0.7265693329973146,387.7208897919918,,,398.19867829198483,space,2.9163777500216383,272777,B,2024-12-12_09h34.36.036,EPIDM,2023.1.2,60.17770476672857,
1113.jpg,1240.jpg,3 Points,3 Points,72 points,PS2_L2.csv,,,,,,,,,,,,,,,,,,,,,,,,,,,,,0,1,1,1,0,0,0,0,,,,,,,,,,,,,,,,,,,404.41907529198215,q,1.5596359169867355,406.0572943330044,,,,,,272777,B,2024-12-12_09h34.36.036,EPIDM,2023.1.2,60.17770476672857,
8220.jpg,2410.jpg,4 Points,4 Points,76 points,PS2_L2.csv,,,,,,,,,,,,,,,,,,,,,,,,,,,,,0,1,1,1,0,1,1,1,,,,,,,,,,,,,,,,,,,410.28922437501024,p,1.4335733340121806,411.8084333750012,4,1.5067762089893222,,,,272777,B,2024-12-12_09h34.36.036,EPIDM,2023.1.2,60.17770476672857,
4621.jpg,3550.jpg,2 Points,2 Points,78 points,PS2_L2.csv,,,,,,,,,,,,,,,,,,,,,,,,,,,,,0,1,1,1,0,2,2,2,,,,,,,,,,,,,,,,,,,417.6220503329823,p,1.551150042010704,419.23804816699703,,,,,,272777,B,2024-12-12_09h34.36.036,EPIDM,2023.1.2,60.17770476672857,
2751.jpg,6313.jpg,3 Points,3 Points,81 points,PS2_L2.csv,,,,,,,,,,,,,,,,,,,,,,,,,,,,,0,1,1,1,0,3,3,3,,,,,,,,,,,,,,,,,,,423.47616220798227,q,1.3503626669989899,424.8969877079944,,,,,,272777,B,2024-12-12_09h34.36.036,EPIDM,2023.1.2,60.17770476672857,
4689.jpg,7009.jpg,5 Points,5 Points,86 points,PS2_L2.csv,,,,,,,,,,,,,,,,,,,,,,,,,,,,,0,1,1,1,0,4,4,4,,,,,,,,,,,,,,,,,,,429.142539708002,q,1.6600926670071203,430.8705916249892,,,,,,272777,B,2024-12-12_09h34.36.036,EPIDM,2023.1.2,60.17770476672857,
6831.jpg,2141.jpg,5 Points,5 Points,91 points,PS2_L2.csv,,,,,,,,,,,,,,,,,,,,,,,,,,,,,0,1,1,1,0,5,5,5,,,,,,,,,,,,,,,,,,,435.1052464999957,p,1.8502340000122786,437.0199112079863,,,,,,272777,B,2024-12-12_09h34.36.036,EPIDM,2023.1.2,60.17770476672857,
9417.jpg,6530.jpg,1 Point,1 Point,92 points,PS2_L2.csv,,,,,,,,,,,,,,,,,,,,,,,,,,,,,0,1,1,1,0,6,6,6,,,,,,,,,,,,,,,,,,,441.25903133300017,p,2.614711832982721,443.9549441249983,,,,,,272777,B,2024-12-12_09h34.36.036,EPIDM,2023.1.2,60.17770476672857,
7237.jpg,8510.jpg,4 Points,4 Points,96 points,PS2_L2.csv,,,,,,,,,,,,,,,,,,,,,,,,,,,,,0,1,1,1,0,7,7,7,,,,,,,,,,,,,,,,,,,448.18940241698874,q,1.4041031259985175,449.67204604198923,,,,,,272777,B,2024-12-12_09h34.36.036,EPIDM,2023.1.2,60.17770476672857,
4608.jpg,8320.jpg,1 Point,1 Point,97 points,PS2_L2.csv,,,,,,,,,,,,,,,,,,,,,,,,,,,,,0,1,1,1,0,8,8,8,,,,,,,,,,,,,,,,,,,453.9148245829856,q,0.31087975000264123,454.2941554999852,,,,,,272777,B,2024-12-12_09h34.36.036,EPIDM,2023.1.2,60.17770476672857,
9254.jpg,9290.jpg,2 Points,2 Points,99 points,PS2_L2.csv,,,,,,,,,,,,,,,,,,,,,,,,,,,,,0,1,1,1,0,9,9,9,,,,,,,,,,,,,,,,,,,458.54430074998527,q,1.6115994169958867,460.2240441250033,,,,,,272777,B,2024-12-12_09h34.36.036,EPIDM,2023.1.2,60.17770476672857,
9530.jpg,9220.jpg,1 Point,1 Point,100 points,PS2_L2.csv,,,,,,,,,,,,,,,,,,,,,,,,,,,,,0,1,1,1,0,10,10,10,,,,,,,,,,,,,,,,,,,464.4909529169963,p,1.919348124996759,466.4724695830082,,,,,,272777,B,2024-12-12_09h34.36.036,EPIDM,2023.1.2,60.17770476672857,
2092.jpg,2210.jpg,0 Points,0 Points,100 points,PS2_L2.csv,,,,,,,,,,,,,,,,,,,,,,,,,,,,,0,1,1,1,0,11,11,11,,,,,,,,,,,,,,,,,,,470.7220760000055,q,1.4338070829981007,472.22375195799395,,,,,,272777,B,2024-12-12_09h34.36.036,EPIDM,2023.1.2,60.17770476672857,
9500.jpg,6360.jpg,1 Point,1 Point,101 points,PS2_L2.csv,,,,,,,,,,,,,,,,,,,,,,,,,,,,,0,1,1,1,0,12,12,12,,,,,,,,,,,,,,,,,,,476.4743002500036,p,0.7681979579792824,477.31456520798383,,,,,,272777,B,2024-12-12_09h34.36.036,EPIDM,2023.1.2,60.17770476672857,
2220.jpg,2010.jpg,5 Points,5 Points,106 points,PS2_L2.csv,,,,,,,,,,,,,,,,,,,,,,,,,,,,,0,1,1,1,0,13,13,13,,,,,,,,,,,,,,,,,,,481.5606875419908,q,0.8968189999868628,482.5323598329851,5,1.5782143760006875,,,,272777,B,2024-12-12_09h34.36.036,EPIDM,2023.1.2,60.17770476672857,
5940.jpg,9411.jpg,0 Points,0 Points,106 points,PS2_L2.csv,,,,,,,,,,,,,,,,,,,,,,,,,,,,,0,1,1,1,0,14,14,14,,,,,,,,,,,,,,,,,,,488.43087270800606,p,1.0349134590069298,489.534245457995,,,,,,272777,B,2024-12-12_09h34.36.036,EPIDM,2023.1.2,60.17770476672857,
4533.jpg,2385.jpg,3 Points,3 Points,109 points,PS2_L2.csv,,,,,,,,,,,,,,,,,,,,,,,,,,,,,0,1,1,1,0,15,15,15,,,,,,,,,,,,,,,,,,,493.7708576669975,q,0.8708324580220506,494.7173842499906,,,,,,272777,B,2024-12-12_09h34.36.036,EPIDM,2023.1.2,60.17770476672857,
9340.jpg,6910.jpg,0 Points,0 Points,109 points,PS2_L2.csv,,,,,,,,,,,,,,,,,,,,,,,,,,,,,0,1,1,1,0,16,16,16,,,,,,,,,,,,,,,,,,,498.94458879198646,q,1.0565120419778395,500.07173150000744,,,,,,272777,B,2024-12-12_09h34.36.036,EPIDM,2023.1.2,60.17770476672857,
8350.jpg,7190.jpg,5 Points,5 Points,114 points,PS2_L2.csv,,,,,,,,,,,,,,,,,,,,,,,,,,,,,0,1,1,1,0,17,17,17,,,,,,,,,,,,,,,,,,,504.31733162500313,p,0.556371417012997,504.94942058299785,,,,,,272777,B,2024-12-12_09h34.36.036,EPIDM,2023.1.2,60.17770476672857,
6211.jpg,9611.jpg,3 Points,3 Points,117 points ,PS2_L2.csv,,,,,,,,,,,,,,,,,,,,,,,,,,,,,0,1,1,1,0,18,18,18,,,,,,,,,,,,,,,,,,,509.18354795800406,p,0.9049122500000522,510.15334266700665,,,,,,272777,B,2024-12-12_09h34.36.036,EPIDM,2023.1.2,60.17770476672857,
2053.jpg,9415.jpg,4 Points,4 Points,121 points,PS2_L2.csv,,,,,,,,,,,,,,,,,,,,,,,,,,,,,0,1,1,1,0,19,19,19,,,,,,,,,,,,,,,,,,,514.3941177079978,q,1.5669286669872236,516.0213495829958,,,,,,272777,B,2024-12-12_09h34.36.036,EPIDM,2023.1.2,60.17770476672857,
2110.jpg,7260.jpg,5 Points,5 Points,126 points,PS2_L2.csv,,,,,,,,,,,,,,,,,,,,,,,,,,,,,0,1,1,1,0,20,20,20,,,,,,,,,,,,,,,,,,,520.2738356670015,q,0.9747610829945188,521.3299023750005,,,,,,272777,B,2024-12-12_09h34.36.036,EPIDM,2023.1.2,60.17770476672857,
2030.jpg,2495.jpg,0 Points,0 Points,126 points,PS2_L2.csv,,,,,,,,,,,,,,,,,,,,,,,,,,,,,0,1,1,1,0,21,21,21,,,,,,,,,,,,,,,,,,,525.5604481670016,q,1.5368145419924986,527.1667872499966,,,,,,272777,B,2024-12-12_09h34.36.036,EPIDM,2023.1.2,60.17770476672857,
1302.jpg,2700.jpg,3 Points,3 Points,129 points,PS2_L2.csv,,,,,,,,,,,,,,,,,,,,,,,,,,,,,0,1,1,1,0,22,22,22,,,,,,,,,,,,,,,,,,,531.4073966669966,q,0.9695528759912122,532.4438099580002,,,,,,272777,B,2024-12-12_09h34.36.036,EPIDM,2023.1.2,60.17770476672857,
9010.jpg,9253.jpg,0 Points,0 Points,129 points,PS2_L2.csv,,,,,,,,,,,,,,,,,,,,,,,,,,,,,0,1,1,1,0,23,23,23,,,,,,,,,,,,,,,,,,,536.6907010829891,p,1.6952977509936318,538.4552888330072,,,548.938396374986,space,5.766336291999323,272777,B,2024-12-12_09h34.36.036,EPIDM,2023.1.2,60.17770476672857,
1303.jpg,2000.jpg,0 Points,0 Points,129 points,PS2_L3.csv,,,,,,,,,,,,,,,,,,,,,,,,,,,,,0,2,2,2,0,0,0,0,,,,,,,,,,,,,,,,,,,558.0136123329867,q,0.9629773330234457,559.0437942919962,,,,,,272777,B,2024-12-12_09h34.36.036,EPIDM,2023.1.2,60.17770476672857,
2200.jpg,4598.jpg,1 Point,1 Point,130 points,PS2_L3.csv,,,,,,,,,,,,,,,,,,,,,,,,,,,,,0,2,2,2,0,1,1,1,,,,,,,,,,,,,,,,,,,563.2871814999962,q,1.066492207988631,564.4378957919835,1,1.221892375004245,,,,272777,B,2024-12-12_09h34.36.036,EPIDM,2023.1.2,60.17770476672857,
6190.jpg,3120.jpg,5 Points,5 Points,135 points,PS2_L3.csv,,,,,,,,,,,,,,,,,,,,,,,,,,,,,0,2,2,2,0,2,2,2,,,,,,,,,,,,,,,,,,,569.9563833329885,p,1.1080315010040067,571.1344212919939,,,,,,272777,B,2024-12-12_09h34.36.036,EPIDM,2023.1.2,60.17770476672857,
2570.jpg,5500.jpg,3 Points,3 Points,138 points,PS2_L3.csv,,,,,,,,,,,,,,,,,,,,,,,,,,,,,0,2,2,2,0,3,3,3,,,,,,,,,,,,,,,,,,,575.3647431670106,p,0.6517892090196256,576.0865489169955,,,,,,272777,B,2024-12-12_09h34.36.036,EPIDM,2023.1.2,60.17770476672857,
8460.jpg,8330.jpg,0 Points,0 Points,138 points,PS2_L3.csv,,,,,,,,,,,,,,,,,,,,,,,,,,,,,0,2,2,2,0,4,4,4,,,,,,,,,,,,,,,,,,,580.3287813749921,p,0.7026853330025915,581.0890578329854,,,,,,272777,B,2024-12-12_09h34.36.036,EPIDM,2023.1.2,60.17770476672857,
9320.jpg,9007.jpg,0 Points,0 Points,138 points,PS2_L3.csv,,,,,,,,,,,,,,,,,,,,,,,,,,,,,0,2,2,2,0,5,5,5,,,,,,,,,,,,,,,,,,,585.3360702079954,q,1.3513753760198597,586.761587874993,,,,,,272777,B,2024-12-12_09h34.36.036,EPIDM,2023.1.2,60.17770476672857,
2650.jpg,4531.jpg,5 Points,5 Points,143 points,PS2_L3.csv,,,,,,,,,,,,,,,,,,,,,,,,,,,,,0,2,2,2,0,6,6,6,,,,,,,,,,,,,,,,,,,590.9997595419991,p,1.0084173749783076,592.0927852079913,,,,,,272777,B,2024-12-12_09h34.36.036,EPIDM,2023.1.2,60.17770476672857,
4100.jpg,6570.2.jpg,3 Points,3 Points,146 points,PS2_L3.csv,,,,,,,,,,,,,,,,,,,,,,,,,,,,,0,2,2,2,0,7,7,7,,,,,,,,,,,,,,,,,,,596.3344614999951,p,1.0973199589934666,597.5122376249928,,,,,,272777,B,2024-12-12_09h34.36.036,EPIDM,2023.1.2,60.17770476672857,
3102.jpg,F032.jpg,1 Point,1 Point,147 points,PS2_L3.csv,,,,,,,,,,,,,,,,,,,,,,,,,,,,,0,2,2,2,0,8,8,8,,,,,,,,,,,,,,,,,,,601.7420929579821,p,0.8335471670143306,602.6823782499996,,,,,,272777,B,2024-12-12_09h34.36.036,EPIDM,2023.1.2,60.17770476672857,
2240.jpg,5010.jpg,5 Points,5 Points,152 points,PS2_L3.csv,,,,,,,,,,,,,,,,,,,,,,,,,,,,,0,2,2,2,0,9,9,9,,,,,,,,,,,,,,,,,,,606.8808171249984,q,1.0630207920039538,608.0535938329995,,,,,,272777,B,2024-12-12_09h34.36.036,EPIDM,2023.1.2,60.17770476672857,
4605.jpg,1510.jpg,4 Points,4 Points,156 points,PS2_L3.csv,,,,,,,,,,,,,,,,,,,,,,,,,,,,,0,2,2,2,0,10,10,10,,,,,,,,,,,,,,,,,,,612.2521511669911,p,0.7867167920048814,613.1162555420015,,,,,,272777,B,2024-12-12_09h34.36.036,EPIDM,2023.1.2,60.17770476672857,
9490.jpg,9210.jpg,1 Point,1 Point,157 points,PS2_L3.csv,,,,,,,,,,,,,,,,,,,,,,,,,,,,,0,2,2,2,0,11,11,11,,,,,,,,,,,,,,,,,,,617.3521663749998,q,1.271648334019119,618.6866802499862,,,,,,272777,B,2024-12-12_09h34.36.036,EPIDM,2023.1.2,60.17770476672857,
6821.jpg,9622.jpg,2 Points,2 Points,159 points,PS2_L3.csv,,,,,,,,,,,,,,,,,,,,,,,,,,,,,0,2,2,2,0,12,12,12,,,,,,,,,,,,,,,,,,,622.9281398750027,p,0.8071007500111591,623.7961373330036,,,,,,272777,B,2024-12-12_09h34.36.036,EPIDM,2023.1.2,60.17770476672857,
2681.jpg,7100.jpg,3 Points,3 Points,162 points,PS2_L3.csv,,,,,,,,,,,,,,,,,,,,,,,,,,,,,0,2,2,2,0,13,13,13,,,,,,,,,,,,,,,,,,,628.0461074170016,q,1.9528133340063505,630.0680177919858,3,1.0036244170041755,,,,272777,B,2024-12-12_09h34.36.036,EPIDM,2023.1.2,60.17770476672857,
5622.jpg,9156.jpg,4 Points,4 Points,166 points,PS2_L3.csv,,,,,,,,,,,,,,,,,,,,,,,,,,,,,0,2,2,2,0,14,14,14,,,,,,,,,,,,,,,,,,,635.3980167499976,p,2.1286269999982323,637.5986826249864,,,,,,272777,B,2024-12-12_09h34.36.036,EPIDM,2023.1.2,60.17770476672857,
1111.jpg,1040.jpg,0 Points,0 Points,166 points,PS2_L3.csv,,,,,,,,,,,,,,,,,,,,,,,,,,,,,0,2,2,2,0,15,15,15,,,,,,,,,,,,,,,,,,,641.834645875002,p,0.8125506250071339,642.7281976249942,,,,,,272777,B,2024-12-12_09h34.36.036,EPIDM,2023.1.2,60.17770476672857,
1112.jpg,6230.jpg,3 Points,3 Points,169 points,PS2_L3.csv,,,,,,,,,,,,,,,,,,,,,,,,,,,,,0,2,2,2,0,16,16,16,,,,,,,,,,,,,,,,,,,646.9683551669877,q,1.2778920010023285,648.3266241670062,,,,,,272777,B,2024-12-12_09h34.36.036,EPIDM,2023.1.2,60.17770476672857,
8161.jpg,1900.jpg,4 Points,4 Points,173 points,PS2_L3.csv,,,,,,,,,,,,,,,,,,,,,,,,,,,,,0,2,2,2,0,17,17,17,,,,,,,,,,,,,,,,,,,652.5624519999838,p,0.9896345830056816,653.6240629999957,,,,,,272777,B,2024-12-12_09h34.36.036,EPIDM,2023.1.2,60.17770476672857,
9800.jpg,9433.jpg,1 Point,1 Point,174 points,PS2_L3.csv,,,,,,,,,,,,,,,,,,,,,,,,,,,,,0,2,2,2,0,18,18,18,,,,,,,,,,,,,,,,,,,657.8559105829918,q,0.8946526670188177,658.8157712079992,,,,,,272777,B,2024-12-12_09h34.36.036,EPIDM,2023.1.2,60.17770476672857,
1390.jpg,9421.jpg,2 Points,2 Points,176 points,PS2_L3.csv,,,,,,,,,,,,,,,,,,,,,,,,,,,,,0,2,2,2,0,19,19,19,,,,,,,,,,,,,,,,,,,663.0672279169958,p,0.8597319590044208,664.0010335829866,,,,,,272777,B,2024-12-12_09h34.36.036,EPIDM,2023.1.2,60.17770476672857,
2850.jpg,4532.jpg,3 Points,3 Points,179 points,PS2_L3.csv,,,,,,,,,,,,,,,,,,,,,,,,,,,,,0,2,2,2,0,20,20,20,,,,,,,,,,,,,,,,,,,668.2443733330001,p,0.8824909169925377,669.2022484579938,,,,,,272777,B,2024-12-12_09h34.36.036,EPIDM,2023.1.2,60.17770476672857,
1560.jpg,8185.jpg,0 Points,0 Points,179 points,PS2_L3.csv,,,,,,,,,,,,,,,,,,,,,,,,,,,,,0,2,2,2,0,21,21,21,,,,,,,,,,,,,,,,,,,673.4481362919905,q,0.9586032090010121,674.470635042002,,,,,,272777,B,2024-12-12_09h34.36.036,EPIDM,2023.1.2,60.17770476672857,
6314.jpg,O022.jpg,2 Points,2 Points,181 points,PS2_L3.csv,,,,,,,,,,,,,,,,,,,,,,,,,,,,,0,2,2,2,0,22,22,22,,,,,,,,,,,,,,,,,,,678.7192685419868,p,1.5814507500035688,680.4110148329928,,,,,,272777,B,2024-12-12_09h34.36.036,EPIDM,2023.1.2,60.17770476672857,
4274.jpg,8160.jpg,2 Points,2 Points,183 points,PS2_L3.csv,,,,,,,,,,,,,,,,,,,,,,,,,,,,,0,2,2,2,0,23,23,23,,,,,,,,,,,,,,,,,,,684.6136179169989,p,0.8808627499965951,685.5567333330109,,,696.0516679169959,space,2.562129958998412,272777,B,2024-12-12_09h34.36.036,EPIDM,2023.1.2,60.17770476672857,
8117.jpg,2880.jpg,5 Points,5 Points,188 points,PS2_L4.csv,,,,,,,,,,,,,,,,,,,,,,,,,,,,,0,3,3,3,0,0,0,0,,,,,,,,,,,,,,,,,,,701.9141612499952,p,1.507841707993066,703.5029232919915,,,,,,272777,B,2024-12-12_09h34.36.036,EPIDM,2023.1.2,60.17770476672857,
3220.jpg,3063.jpg,5 Points,5 Points,193 points,PS2_L4.csv,,,,,,,,,,,,,,,,,,,,,,,,,,,,,0,3,3,3,0,1,1,1,,,,,,,,,,,,,,,,,,,707.7290278750006,q,2.0283111260214355,709.8178183749842,5,1.1697650009882636,,,,272777,B,2024-12-12_09h34.36.036,EPIDM,2023.1.2,60.17770476672857,
9040.jpg,1120.jpg,3 Points,3 Points,196 points,PS2_L4.csv,,,,,,,,,,,,,,,,,,,,,,,,,,,,,0,3,3,3,0,2,2,2,,,,,,,,,,,,,,,,,,,715.2798766669875,p,1.1092441259825137,716.4596794579993,,,,,,272777,B,2024-12-12_09h34.36.036,EPIDM,2023.1.2,60.17770476672857,
5030.jpg,1670.jpg,3 Points,3 Points,199 points,PS2_L4.csv,,,,,,,,,,,,,,,,,,,,,,,,,,,,,0,3,3,3,0,3,3,3,,,,,,,,,,,,,,,,,,,720.7064262079948,p,0.9946033339947462,721.7685054999893,,,,,,272777,B,2024-12-12_09h34.36.036,EPIDM,2023.1.2,60.17770476672857,
2276.jpg,6540.jpg,3 Points,3 Points,202 points,PS2_L4.csv,,,,,,,,,,,,,,,,,,,,,,,,,,,,,0,3,3,3,0,4,4,4,,,,,,,,,,,,,,,,,,,726.0199387499888,p,1.4408788759901654,727.5230535419832,,,,,,272777,B,2024-12-12_09h34.36.036,EPIDM,2023.1.2,60.17770476672857,
1540.jpg,2600.jpg,1 Point,1 Point,203 points,PS2_L4.csv,,,,,,,,,,,,,,,,,,,,,,,,,,,,,0,3,3,3,0,5,5,5,,,,,,,,,,,,,,,,,,,731.7660819169832,q,1.0623488340061158,732.897296332987,,,,,,272777,B,2024-12-12_09h34.36.036,EPIDM,2023.1.2,60.17770476672857,
8465.jpg,8400.jpg,1 Point,1 Point,204 points,PS2_L4.csv,,,,,,,,,,,,,,,,,,,,,,,,,,,,,0,3,3,3,0,6,6,6,,,,,,,,,,,,,,,,,,,737.1471286249871,p,0.8972610420023557,738.1074275829887,,,,,,272777,B,2024-12-12_09h34.36.036,EPIDM,2023.1.2,60.17770476672857,
3110.jpg,9000.jpg,4 Points,4 Points,208 points,PS2_L4.csv,,,,,,,,,,,,,,,,,,,,,,,,,,,,,0,3,3,3,0,7,7,7,,,,,,,,,,,,,,,,,,,742.3692407920025,p,1.019416376017034,743.45536945801,,,,,,272777,B,2024-12-12_09h34.36.036,EPIDM,2023.1.2,60.17770476672857,
9570.jpg,6610.jpg,0 Points,0 Points,208 points,PS2_L4.csv,,,,,,,,,,,,,,,,,,,,,,,,,,,,,0,3,3,3,0,8,8,8,,,,,,,,,,,,,,,,,,,747.7095879580011,p,0.4064901670208201,748.1897231249895,,,,,,272777,B,2024-12-12_09h34.36.036,EPIDM,2023.1.2,60.17770476672857,
2690.jpg,9360.jpg,1 Point,1 Point,209 points,PS2_L4.csv,,,,,,,,,,,,,,,,,,,,,,,,,,,,,0,3,3,3,0,9,9,9,,,,,,,,,,,,,,,,,,,752.4390852919896,q,0.5970960419799667,753.105429541989,,,,,,272777,B,2024-12-12_09h34.36.036,EPIDM,2023.1.2,60.17770476672857,
8250.jpg,1313.jpg,4 Points,4 Points,213 points,PS2_L4.csv,,,,,,,,,,,,,,,,,,,,,,,,,,,,,0,3,3,3,0,10,10,10,,,,,,,,,,,,,,,,,,,757.342492249998,q,1.0855319170223083,758.5080468750093,,,,,,272777,B,2024-12-12_09h34.36.036,EPIDM,2023.1.2,60.17770476672857,
3022.jpg,2352.2.jpg,0 Points,0 Points,213 points,PS2_L4.csv,,,,,,,,,,,,,,,,,,,,,,,,,,,,,0,3,3,3,0,11,11,11,,,,,,,,,,,,,,,,,,,762.7496290419949,p,1.3271698329772335,764.1508542500087,,,,,,272777,B,2024-12-12_09h34.36.036,EPIDM,2023.1.2,60.17770476672857,
9920.jpg,3068.jpg,5 Points,5 Points,218 points,PS2_L4.csv,,,,,,,,,,,,,,,,,,,,,,,,,,,,,0,3,3,3,0,12,12,12,,,,,,,,,,,,,,,,,,,768.3921256249887,q,1.5401699589856435,769.9979711670021,,,,,,272777,B,2024-12-12_09h34.36.036,EPIDM,2023.1.2,60.17770476672857,
7234.jpg,5533.jpg,3 Points,3 Points,221 points,PS2_L4.csv,,,,,,,,,,,,,,,,,,,,,,,,,,,,,0,3,3,3,0,13,13,13,,,,,,,,,,,,,,,,,,,774.2454049169901,q,1.398038292012643,775.7059409579961,3,1.20879104200867,,,,272777,B,2024-12-12_09h34.36.036,EPIDM,2023.1.2,60.17770476672857,
6250.1.jpg,3301.jpg,0 Points,0 Points,221 points,PS2_L4.csv,,,,,,,,,,,,,,,,,,,,,,,,,,,,,0,3,3,3,0,14,14,14,,,,,,,,,,,,,,,,,,,781.2249239579833,q,1.0589021670166403,782.3656112919853,,,,,,272777,B,2024-12-12_09h34.36.036,EPIDM,2023.1.2,60.17770476672857,
2518.jpg,2381.jpg,1 Point,1 Point,222 points,PS2_L4.csv,,,,,,,,,,,,,,,,,,,,,,,,,,,,,0,3,3,3,0,15,15,15,,,,,,,,,,,,,,,,,,,786.6085113330046,p,0.5068833340192214,787.1818502499955,,,,,,272777,B,2024-12-12_09h34.36.036,EPIDM,2023.1.2,60.17770476672857,
1910.jpg,2575.jpg,2 Points,2 Points,224 points,PS2_L4.csv,,,,,,,,,,,,,,,,,,,,,,,,,,,,,0,3,3,3,0,16,16,16,,,,,,,,,,,,,,,,,,,791.4327316249837,p,0.9548767920059618,792.4488547499932,,,,,,272777,B,2024-12-12_09h34.36.036,EPIDM,2023.1.2,60.17770476672857,
1275.jpg,3150.jpg,1 Point,1 Point,225 points,PS2_L4.csv,,,,,,,,,,,,,,,,,,,,,,,,,,,,,0,3,3,3,0,17,17,17,,,,,,,,,,,,,,,,,,,796.7051225829928,q,0.434222833981039,797.1988422499853,,,,,,272777,B,2024-12-12_09h34.36.036,EPIDM,2023.1.2,60.17770476672857,
2702.jpg,1590.jpg,5 Points,5 Points,230 points,PS2_L4.csv,,,,,,,,,,,,,,,,,,,,,,,,,,,,,0,3,3,3,0,18,18,18,,,,,,,,,,,,,,,,,,,801.4420230829855,q,1.0172992919979151,802.5276089170075,,,,,,272777,B,2024-12-12_09h34.36.036,EPIDM,2023.1.2,60.17770476672857,
8480.jpg,6410.jpg,1 Point,1 Point,231 points,PS2_L4.csv,,,,,,,,,,,,,,,,,,,,,,,,,,,,,0,3,3,3,0,19,19,19,,,,,,,,,,,,,,,,,,,806.7667552919884,q,0.8047912500042003,807.645446791983,,,,,,272777,B,2024-12-12_09h34.36.036,EPIDM,2023.1.2,60.17770476672857,
5621.jpg,5534.jpg,3 Points,3 Points,234 points,PS2_L4.csv,,,,,,,,,,,,,,,,,,,,,,,,,,,,,0,3,3,3,0,20,20,20,,,,,,,,,,,,,,,,,,,811.8816230419907,q,0.6172702919866424,812.5766142919892,,,,,,272777,B,2024-12-12_09h34.36.036,EPIDM,2023.1.2,60.17770476672857,
5972.jpg,6838.jpg,5 Points,5 Points,239 points,PS2_L4.csv,,,,,,,,,,,,,,,,,,,,,,,,,,,,,0,3,3,3,0,21,21,21,,,,,,,,,,,,,,,,,,,816.818117332994,p,1.7300124999892432,818.6092717499996,,,,,,272777,B,2024-12-12_09h34.36.036,EPIDM,2023.1.2,60.17770476672857,
2580.jpg,8300.jpg,3 Points,3 Points,242 points,PS2_L4.csv,,,,,,,,,,,,,,,,,,,,,,,,,,,,,0,3,3,3,0,22,22,22,,,,,,,,,,,,,,,,,,,822.8502919999883,p,0.9683895840134937,823.8924961249868,,,,,,272777,B,2024-12-12_09h34.36.036,EPIDM,2023.1.2,60.17770476672857,
7280.jpg,7160.jpg,0 Points,0 Points,242 points,PS2_L4.csv,,,,,,,,,,,,,,,,,,,,,,,,,,,,,0,3,3,3,0,23,23,23,,,,,,,,,,,,,,,,,,,828.1345801249845,q,0.6047841669933405,828.8260569169943,,,839.2968114999821,space,1.719213584001409,272777,B,2024-12-12_09h34.36.036,EPIDM,2023.1.2,60.17770476672857,
6243.jpg,2752.jpg,2 Points,2 Points,244 points,PS2_L5.csv,,,,,,,,,,,,,,,,,,,,,,,,,,,,,0,4,4,4,0,0,0,0,,,,,,,,,,,,,,,,,,,844.3320674579882,p,0.9415760419797152,845.3280070830078,,,,,,272777,B,2024-12-12_09h34.36.036,EPIDM,2023.1.2,60.17770476672857,
8340.jpg,7546.jpg,2 Points,2 Points,246 points,PS2_L5.csv,,,,,,,,,,,,,,,,,,,,,,,,,,,,,0,4,4,4,0,1,1,1,,,,,,,,,,,,,,,,,,,849.58038566701,p,1.2134648759965785,850.8337270829943,2,0.9642242089903448,,,,272777,B,2024-12-12_09h34.36.036,EPIDM,2023.1.2,60.17770476672857,
1022.jpg,6930.jpg,1 Point,1 Point,247 points,PS2_L5.csv,,,,,,,,,,,,,,,,,,,,,,,,,,,,,0,4,4,4,0,2,2,2,,,,,,,,,,,,,,,,,,,856.1145370829909,p,1.662738791987067,857.8235825419833,,,,,,272777,B,2024-12-12_09h34.36.036,EPIDM,2023.1.2,60.17770476672857,
7230.jpg,7570.jpg,5 Points,5 Points,252 points,PS2_L5.csv,,,,,,,,,,,,,,,,,,,,,,,,,,,,,0,4,4,4,0,3,3,3,,,,,,,,,,,,,,,,,,,862.0988814999873,p,1.070301458996255,863.229257583007,,,,,,272777,B,2024-12-12_09h34.36.036,EPIDM,2023.1.2,60.17770476672857,
5760.jpg,1602.jpg,1 Point,1 Point,253 points,PS2_L5.csv,,,,,,,,,,,,,,,,,,,,,,,,,,,,,0,4,4,4,0,4,4,4,,,,,,,,,,,,,,,,,,,867.4895332919841,q,0.9117292919836473,868.4511046670086,,,,,,272777,B,2024-12-12_09h34.36.036,EPIDM,2023.1.2,60.17770476672857,
9584.jpg,3400.jpg,2 Points,2 Points,255 points,PS2_L5.csv,,,,,,,,,,,,,,,,,,,,,,,,,,,,,0,4,4,4,0,5,5,5,,,,,,,,,,,,,,,,,,,872.7188437499863,q,1.8421637499995995,874.6081269170099,,,,,,272777,B,2024-12-12_09h34.36.036,EPIDM,2023.1.2,60.17770476672857,
2560.jpg,5270.jpg,4 Points,4 Points,259 points,PS2_L5.csv,,,,,,,,,,,,,,,,,,,,,,,,,,,,,0,4,4,4,0,6,6,6,,,,,,,,,,,,,,,,,,,878.8726506670064,p,1.384112334024394,880.3062726669887,,,,,,272777,B,2024-12-12_09h34.36.036,EPIDM,2023.1.2,60.17770476672857,
3350.jpg,3210.jpg,1 Point,1 Point,260 points,PS2_L5.csv,,,,,,,,,,,,,,,,,,,,,,,,,,,,,0,4,4,4,0,7,7,7,,,,,,,,,,,,,,,,,,,884.5722016250074,p,1.2204084999975748,885.8323642080068,,,,,,272777,B,2024-12-12_09h34.36.036,EPIDM,2023.1.2,60.17770476672857,
5455.jpg,5220.jpg,0 Points,0 Points,260 points,PS2_L5.csv,,,,,,,,,,,,,,,,,,,,,,,,,,,,,0,4,4,4,0,8,8,8,,,,,,,,,,,,,,,,,,,890.1071120419947,q,2.0454331260116305,892.1883559169946,,,,,,272777,B,2024-12-12_09h34.36.036,EPIDM,2023.1.2,60.17770476672857,
7920.jpg,9102.jpg,3 Points,3 Points,263 points,PS2_L5.csv,,,,,,,,,,,,,,,,,,,,,,,,,,,,,0,4,4,4,0,9,9,9,,,,,,,,,,,,,,,,,,,896.4566421670024,p,1.6235780010174494,898.1337868749979,,,,,,272777,B,2024-12-12_09h34.36.036,EPIDM,2023.1.2,60.17770476672857,
1301.jpg,1070.jpg,2 Points,2 Points,265 points,PS2_L5.csv,,,,,,,,,,,,,,,,,,,,,,,,,,,,,0,4,4,4,0,10,10,10,,,,,,,,,,,,,,,,,,,902.3901695419918,q,0.8505710000172257,903.2982958329958,,,,,,272777,B,2024-12-12_09h34.36.036,EPIDM,2023.1.2,60.17770476672857,
5982.jpg,5260.jpg,5 Points,5 Points,270 points,PS2_L5.csv,,,,,,,,,,,,,,,,,,,,,,,,,,,,,0,4,4,4,0,11,11,11,,,,,,,,,,,,,,,,,,,907.5574004169903,q,0.9380499999970198,908.5512126669928,,,,,,272777,B,2024-12-12_09h34.36.036,EPIDM,2023.1.2,60.17770476672857,
5000.jpg,8180.jpg,4 Points,4 Points,274 points,PS2_L5.csv,,,,,,,,,,,,,,,,,,,,,,,,,,,,,0,4,4,4,0,12,12,12,,,,,,,,,,,,,,,,,,,912.8077504170069,p,1.4638142090116162,914.3497143749846,,,,,,272777,B,2024-12-12_09h34.36.036,EPIDM,2023.1.2,60.17770476672857,
6244.jpg,9265.jpg,0 Points,0 Points,274 points,PS2_L5.csv,,,,,,,,,,,,,,,,,,,,,,,,,,,,,0,4,4,4,0,13,13,13,,,,,,,,,,,,,,,,,,,918.5827019999851,q,2.153251084004296,920.811290291982,0,1.3866133760020602,,,,272777,B,2024-12-12_09h34.36.036,EPIDM,2023.1.2,60.17770476672857,
5990.jpg,5780.jpg,3 Points,3 Points,277 points,PS2_L5.csv,,,,,,,,,,,,,,,,,,,,,,,,,,,,,0,4,4,4,0,14,14,14,,,,,,,,,,,,,,,,,,,926.507056167,p,1.1723712919920217,927.7496217080043,,,,,,272777,B,2024-12-12_09h34.36.036,EPIDM,2023.1.2,60.17770476672857,
9440.jpg,6350.jpg,4 Points,4 Points,281 points,PS2_L5.csv,,,,,,,,,,,,,,,,,,,,,,,,,,,,,0,4,4,4,0,15,15,15,,,,,,,,,,,,,,,,,,,931.9916504170105,q,1.7267606249952223,933.7788963330095,,,,,,272777,B,2024-12-12_09h34.36.036,EPIDM,2023.1.2,60.17770476672857,
1850.jpg,5623.jpg,5 Points,5 Points,286 points,PS2_L5.csv,,,,,,,,,,,,,,,,,,,,,,,,,,,,,0,4,4,4,0,16,16,16,,,,,,,,,,,,,,,,,,,938.0338554999908,q,1.8776459170039743,939.9829256669909,,,,,,272777,B,2024-12-12_09h34.36.036,EPIDM,2023.1.2,60.17770476672857,
5200.jpg,5020.jpg,0 Points,0 Points,286 points,PS2_L5.csv,,,,,,,,,,,,,,,,,,,,,,,,,,,,,0,4,4,4,0,17,17,17,,,,,,,,,,,,,,,,,,,944.2300221670012,p,0.6489380419952795,944.9500952920062,,,,,,272777,B,2024-12-12_09h34.36.036,EPIDM,2023.1.2,60.17770476672857,
P211.jpg,9041.jpg,4 Points,4 Points,290 points,PS2_L5.csv,,,,,,,,,,,,,,,,,,,,,,,,,,,,,0,4,4,4,0,18,18,18,,,,,,,,,,,,,,,,,,,949.1924120420008,p,0.47784975098329596,949.7898968329828,,,,,,272777,B,2024-12-12_09h34.36.036,EPIDM,2023.1.2,60.17770476672857,
5600.jpg,9080.jpg,5 Points,5 Points,295 points,PS2_L5.csv,,,,,,,,,,,,,,,,,,,,,,,,,,,,,0,4,4,4,0,19,19,19,,,,,,,,,,,,,,,,,,,953.9778561249841,q,0.6355234169750474,954.6942644579976,,,,,,272777,B,2024-12-12_09h34.36.036,EPIDM,2023.1.2,60.17770476672857,
6800.jpg,9190.jpg,0 Points,0 Points,295 points,PS2_L5.csv,,,,,,,,,,,,,,,,,,,,,,,,,,,,,0,4,4,4,0,20,20,20,,,,,,,,,,,,,,,,,,,958.9455347500043,p,2.0927423339744564,961.1194057500106,,,,,,272777,B,2024-12-12_09h34.36.036,EPIDM,2023.1.2,60.17770476672857,
3280.jpg,9270.jpg,0 Points,0 Points,295 points,PS2_L5.csv,,,,,,,,,,,,,,,,,,,,,,,,,,,,,0,4,4,4,0,21,21,21,,,,,,,,,,,,,,,,,,,965.3581006669847,p,1.2869885000109207,966.7130613329937,,,,,,272777,B,2024-12-12_09h34.36.036,EPIDM,2023.1.2,60.17770476672857,
4613.jpg,2720.jpg,4 Points,4 Points,299 points,PS2_L5.csv,,,,,,,,,,,,,,,,,,,,,,,,,,,,,0,4,4,4,0,22,22,22,,,,,,,,,,,,,,,,,,,970.9603822499921,q,1.6127664169762284,972.6390745000099,,,,,,272777,B,2024-12-12_09h34.36.036,EPIDM,2023.1.2,60.17770476672857,
1930.jpg,9008.jpg,1 Point,1 Point,300 points,PS2_L5.csv,,,,,,,,,,,,,,,,,,,,,,,,,,,,,0,4,4,4,0,23,23,23,,,,,,,,,,,,,,,,,,,976.8855555829941,q,1.712083624996012,978.6505096670007,,,989.1206056670053,space,1.4047222090011928,272777,B,2024-12-12_09h34.36.036,EPIDM,2023.1.2,60.17770476672857,
2190.jpg,7503.jpg,2 Points,2 Points,302 points,PS2_L6.csv,,,,,,,,,,,,,,,,,,,,,,,,,,,,,0,5,5,5,0,0,0,0,,,,,,,,,,,,,,,,,,,993.8274458750093,p,1.0486193750111852,994.9258161250036,,,,,,272777,B,2024-12-12_09h34.36.036,EPIDM,2023.1.2,60.17770476672857,
2490.jpg,2590.jpg,4 Points,4 Points,306 points,PS2_L6.csv,,,,,,,,,,,,,,,,,,,,,,,,,,,,,0,5,5,5,0,1,1,1,,,,,,,,,,,,,,,,,,,999.1897167499992,p,1.918665917008184,1001.1600576250057,4,1.156000542017864,,,,272777,B,2024-12-12_09h34.36.036,EPIDM,2023.1.2,60.17770476672857,
9592.jpg,1300.jpg,2 Points,2 Points,308 points,PS2_L6.csv,,,,,,,,,,,,,,,,,,,,,,,,,,,,,0,5,5,5,0,2,2,2,,,,,,,,,,,,,,,,,,,1006.6273195419926,p,1.0422497089894023,1007.7340916669928,,,,,,272777,B,2024-12-12_09h34.36.036,EPIDM,2023.1.2,60.17770476672857,
8230.jpg,2682.jpg,5 Points,5 Points,313 points,PS2_L6.csv,,,,,,,,,,,,,,,,,,,,,,,,,,,,,0,5,5,5,0,3,3,3,,,,,,,,,,,,,,,,,,,1011.981351082999,q,0.9764848760096356,1013.005958291993,,,,,,272777,B,2024-12-12_09h34.36.036,EPIDM,2023.1.2,60.17770476672857,
9090.jpg,7580.jpg,3 Points,3 Points,316 points,PS2_L6.csv,,,,,,,,,,,,,,,,,,,,,,,,,,,,,0,5,5,5,0,4,4,4,,,,,,,,,,,,,,,,,,,1017.2741015829961,p,0.8982499999983702,1018.2314660830016,,,,,,272777,B,2024-12-12_09h34.36.036,EPIDM,2023.1.2,60.17770476672857,
3530.jpg,6213.jpg,1 Point,1 Point,317 points,PS2_L6.csv,,,,,,,,,,,,,,,,,,,,,,,,,,,,,0,5,5,5,0,5,5,5,,,,,,,,,,,,,,,,,,,1022.4964991250017,p,0.7954269170004409,1023.341889125004,,,,,,272777,B,2024-12-12_09h34.36.036,EPIDM,2023.1.2,60.17770476672857,
1640.jpg,5531.jpg,3 Points,3 Points,320 points,PS2_L6.csv,,,,,,,,,,,,,,,,,,,,,,,,,,,,,0,5,5,5,0,6,6,6,,,,,,,,,,,,,,,,,,,1027.6053831249883,q,0.9986752079857979,1028.6693359169876,,,,,,272777,B,2024-12-12_09h34.36.036,EPIDM,2023.1.2,60.17770476672857,
3064.jpg,3168.jpg,4 Points,4 Points,324 points,PS2_L6.csv,,,,,,,,,,,,,,,,,,,,,,,,,,,,,0,5,5,5,0,7,7,7,,,,,,,,,,,,,,,,,,,1032.9457630830002,p,1.0574833339778706,1034.0802104169852,,,,,,272777,B,2024-12-12_09h34.36.036,EPIDM,2023.1.2,60.17770476672857,
2710.jpg,9252.jpg,1 Point,1 Point,325 points,PS2_L6.csv,,,,,,,,,,,,,,,,,,,,,,,,,,,,,0,5,5,5,0,8,8,8,,,,,,,,,,,,,,,,,,,1038.326571832993,q,2.1158099999884143,1040.4976685000001,,,,,,272777,B,2024-12-12_09h34.36.036,EPIDM,2023.1.2,60.17770476672857,
2260.jpg,2830.jpg,5 Points,5 Points,330 points,PS2_L6.csv,,,,,,,,,,,,,,,,,,,,,,,,,,,,,0,5,5,5,0,9,9,9,,,,,,,,,,,,,,,,,,,1044.757296625001,q,0.8136391250009183,1045.6197303329827,,,,,,272777,B,2024-12-12_09h34.36.036,EPIDM,2023.1.2,60.17770476672857,
6510.jpg,A074.jpg,2 Points,2 Points,332 points,PS2_L6.csv,,,,,,,,,,,,,,,,,,,,,,,,,,,,,0,5,5,5,0,10,10,10,,,,,,,,,,,,,,,,,,,1049.8842947499943,p,2.125731917010853,1052.1039726249874,,,,,,272777,B,2024-12-12_09h34.36.036,EPIDM,2023.1.2,60.17770476672857,
5300.jpg,2372.jpg,1 Point,1 Point,333 points,PS2_L6.csv,,,,,,,,,,,,,,,,,,,,,,,,,,,,,0,5,5,5,0,11,11,11,,,,,,,,,,,,,,,,,,,1056.31844641699,q,0.9548062510148156,1057.3567069169949,,,,,,272777,B,2024-12-12_09h34.36.036,EPIDM,2023.1.2,60.17770476672857,
2749.jpg,7282.jpg,3 Points,3 Points,336 points,PS2_L6.csv,,,,,,,,,,,,,,,,,,,,,,,,,,,,,0,5,5,5,0,12,12,12,,,,,,,,,,,,,,,,,,,1061.574890332995,p,0.8160446670081001,1062.5016778749996,,,,,,272777,B,2024-12-12_09h34.36.036,EPIDM,2023.1.2,60.17770476672857,
3130.jpg,3500.jpg,4 Points,4 Points,340 points,PS2_L6.csv,,,,,,,,,,,,,,,,,,,,,,,,,,,,,0,5,5,5,0,13,13,13,,,,,,,,,,,,,,,,,,,1066.7047543329827,q,0.840573041990865,1067.608657832985,4,1.1105887919839006,,,,272777,B,2024-12-12_09h34.36.036,EPIDM,2023.1.2,60.17770476672857,
6312.jpg,3230.jpg,2 Points,2 Points,342 points,PS2_L6.csv,,,,,,,,,,,,,,,,,,,,,,,,,,,,,0,5,5,5,0,14,14,14,,,,,,,,,,,,,,,,,,,1073.0292164999992,q,1.157089251006255,1074.2294170419918,,,,,,272777,B,2024-12-12_09h34.36.036,EPIDM,2023.1.2,60.17770476672857,
2597.jpg,5870.jpg,5 Points,5 Points,347 points,PS2_L6.csv,,,,,,,,,,,,,,,,,,,,,,,,,,,,,0,5,5,5,0,15,15,15,,,,,,,,,,,,,,,,,,,1078.4951395000098,p,0.4574377080134582,1079.003276042,,,,,,272777,B,2024-12-12_09h34.36.036,EPIDM,2023.1.2,60.17770476672857,
8033.jpg,7270.jpg,3 Points,3 Points,350 points,PS2_L6.csv,,,,,,,,,,,,,,,,,,,,,,,,,,,,,0,5,5,5,0,16,16,16,,,,,,,,,,,,,,,,,,,1083.2581837500038,p,0.750710791995516,1084.0859556669893,,,,,,272777,B,2024-12-12_09h34.36.036,EPIDM,2023.1.2,60.17770476672857,
3170.jpg,6560.jpg,2 Points,2 Points,352 points,PS2_L6.csv,,,,,,,,,,,,,,,,,,,,,,,,,,,,,0,5,5,5,0,17,17,17,,,,,,,,,,,,,,,,,,,1088.3177942080074,p,1.898869751021266,1090.2818514170067,,,,,,272777,B,2024-12-12_09h34.36.036,EPIDM,2023.1.2,60.17770476672857,
6242.jpg,F034.jpg,4 Points,4 Points,356 points,PS2_L6.csv,,,,,,,,,,,,,,,,,,,,,,,,,,,,,0,5,5,5,0,18,18,18,,,,,,,,,,,,,,,,,,,1094.536298082996,p,1.1436189590021968,1095.794414999982,,,,,,272777,B,2024-12-12_09h34.36.036,EPIDM,2023.1.2,60.17770476672857,
2485.jpg,7350.jpg,0 Points,0 Points,356 points,PS2_L6.csv,,,,,,,,,,,,,,,,,,,,,,,,,,,,,0,5,5,5,0,19,19,19,,,,,,,,,,,,,,,,,,,1099.998303291999,q,2.2025305010029115,1102.3048185420048,,,,,,272777,B,2024-12-12_09h34.36.036,EPIDM,2023.1.2,60.17770476672857,
2900.jpg,1101.jpg,3 Points,3 Points,359 points,PS2_L6.csv,,,,,,,,,,,,,,,,,,,,,,,,,,,,,0,5,5,5,0,20,20,20,,,,,,,,,,,,,,,,,,,1106.513953124988,p,0.7903664170007687,1107.3730546250008,,,,,,272777,B,2024-12-12_09h34.36.036,EPIDM,2023.1.2,60.17770476672857,
7002.jpg,4660.jpg,4 Points,4 Points,363 points,PS2_L6.csv,,,,,,,,,,,,,,,,,,,,,,,,,,,,,0,5,5,5,0,21,21,21,,,,,,,,,,,,,,,,,,,1111.6095029579883,p,0.702432249992853,1112.396096749988,,,,,,272777,B,2024-12-12_09h34.36.036,EPIDM,2023.1.2,60.17770476672857,
A025.jpg,1051.jpg,0 Points,0 Points,363 points,PS2_L6.csv,,,,,,,,,,,,,,,,,,,,,,,,,,,,,0,5,5,5,0,22,22,22,,,,,,,,,,,,,,,,,,,1116.6323248749832,q,1.591938499972457,1118.3467142919835,,,,,,272777,B,2024-12-12_09h34.36.036,EPIDM,2023.1.2,60.17770476672857,
4510.jpg,2230.jpg,5 Points,5 Points,368 points,PS2_L6.csv,,,,,,,,,,,,,,,,,,,,,,,,,,,,,0,5,5,5,0,23,23,23,,,,,,,,,,,,,,,,,,,1122.5424298750004,p,0.4964920839993283,1123.1520566249965,,,1133.5586680420092,space,1.0644604999979492,272777,B,2024-12-12_09h34.36.036,EPIDM,2023.1.2,60.17770476672857,
2383.jpg,1616.jpg,2 Points,2 Points,370 points,PS2_L7.csv,,,,,,,,,,,,,,,,,,,,,,,,,,,,,0,6,6,6,0,0,0,0,,,,,,,,,,,,,,,,,,,1137.942254041991,p,0.9370422079809941,1138.9550556250033,,,,,,272777,B,2024-12-12_09h34.36.036,EPIDM,2023.1.2,60.17770476672857,
1310.jpg,3181.jpg,4 Points,4 Points,374 points,PS2_L7.csv,,,,,,,,,,,,,,,,,,,,,,,,,,,,,0,6,6,6,0,1,1,1,,,,,,,,,,,,,,,,,,,1143.1953615829989,p,1.3232753759948537,1144.576695708005,4,1.0540897510072682,,,,272777,B,2024-12-12_09h34.36.036,EPIDM,2023.1.2,60.17770476672857,
7289.jpg,4534.jpg,0 Points,0 Points,374 points,PS2_L7.csv,,,,,,,,,,,,,,,,,,,,,,,,,,,,,0,6,6,6,0,2,2,2,,,,,,,,,,,,,,,,,,,1149.9588860420045,p,1.1119627080042847,1151.1426740000024,,,,,,272777,B,2024-12-12_09h34.36.036,EPIDM,2023.1.2,60.17770476672857,
6010.jpg,7361.jpg,2 Points,2 Points,376 points,PS2_L7.csv,,,,,,,,,,,,,,,,,,,,,,,,,,,,,0,6,6,6,0,3,3,3,,,,,,,,,,,,,,,,,,,1155.3807467499864,p,1.633984749991214,1157.0923749580106,,,,,,272777,B,2024-12-12_09h34.36.036,EPIDM,2023.1.2,60.17770476672857,
2661.jpg,2870.jpg,5 Points,5 Points,381 points,PS2_L7.csv,,,,,,,,,,,,,,,,,,,,,,,,,,,,,0,6,6,6,0,4,4,4,,,,,,,,,,,,,,,,,,,1161.3290663329826,p,1.2527150420064572,1162.64764333301,,,,,,272777,B,2024-12-12_09h34.36.036,EPIDM,2023.1.2,60.17770476672857,
7220.jpg,8090.jpg,2 Points,2 Points,383 points,PS2_L7.csv,,,,,,,,,,,,,,,,,,,,,,,,,,,,,0,6,6,6,0,5,5,5,,,,,,,,,,,,,,,,,,,1166.8966349999828,p,1.3014718340127729,1168.2616909169883,,,,,,272777,B,2024-12-12_09h34.36.036,EPIDM,2023.1.2,60.17770476672857,
9140.jpg,2810.jpg,3 Points,3 Points,386 points,PS2_L7.csv,,,,,,,,,,,,,,,,,,,,,,,,,,,,,0,6,6,6,0,6,6,6,,,,,,,,,,,,,,,,,,,1172.5072708750085,p,2.490493166988017,1175.0565200829878,,,,,,272777,B,2024-12-12_09h34.36.036,EPIDM,2023.1.2,60.17770476672857,
2516.jpg,8500.jpg,4 Points,4 Points,390 points,PS2_L7.csv,,,,,,,,,,,,,,,,,,,,,,,,,,,,,0,6,6,6,0,7,7,7,,,,,,,,,,,,,,,,,,,1179.3041264580097,p,0.9806898329989053,1180.3481326669862,,,,,,272777,B,2024-12-12_09h34.36.036,EPIDM,2023.1.2,60.17770476672857,
9070.jpg,9420.jpg,2 Points,2 Points,392 points,PS2_L7.csv,,,,,,,,,,,,,,,,,,,,,,,,,,,,,0,6,6,6,0,8,8,8,,,,,,,,,,,,,,,,,,,1184.5840953750012,q,0.7806899590068497,1185.4410499169899,,,,,,272777,B,2024-12-12_09h34.36.036,EPIDM,2023.1.2,60.17770476672857,
6561.jpg,1525.jpg,2 Points,2 Points,394 points,PS2_L7.csv,,,,,,,,,,,,,,,,,,,,,,,,,,,,,0,6,6,6,0,9,9,9,,,,,,,,,,,,,,,,,,,1189.673672667006,q,1.5878124169830699,1191.3234847919957,,,,,,272777,B,2024-12-12_09h34.36.036,EPIDM,2023.1.2,60.17770476672857,
7175.jpg,7490.jpg,2 Points,2 Points,396 points,PS2_L7.csv,,,,,,,,,,,,,,,,,,,,,,,,,,,,,0,6,6,6,0,10,10,10,,,,,,,,,,,,,,,,,,,1195.5710550829826,p,1.6488784170069266,1197.2981822919974,,,,,,272777,B,2024-12-12_09h34.36.036,EPIDM,2023.1.2,60.17770476672857,
8010.jpg,2630.jpg,0 Points,0 Points,396 points,PS2_L7.csv,,,,,,,,,,,,,,,,,,,,,,,,,,,,,0,6,6,6,0,11,11,11,,,,,,,,,,,,,,,,,,,1201.5349336669897,p,1.4054774579999503,1202.9919352080033,,,,,,272777,B,2024-12-12_09h34.36.036,EPIDM,2023.1.2,60.17770476672857,
F174.jpg,9404.jpg,5 Points,5 Points,401 points,PS2_L7.csv,,,,,,,,,,,,,,,,,,,,,,,,,,,,,0,6,6,6,0,12,12,12,,,,,,,,,,,,,,,,,,,1207.2687879999867,q,0.9831090420193505,1208.353527500003,,,,,,272777,B,2024-12-12_09h34.36.036,EPIDM,2023.1.2,60.17770476672857,
2692.jpg,8231.jpg,4 Points,4 Points,405 points,PS2_L7.csv,,,,,,,,,,,,,,,,,,,,,,,,,,,,,0,6,6,6,0,13,13,13,,,,,,,,,,,,,,,,,,,1212.5646387079905,p,0.8080428749963176,1213.4792202500103,4,1.2796380420040805,,,,272777,B,2024-12-12_09h34.36.036,EPIDM,2023.1.2,60.17770476672857,
5994.jpg,5390.jpg,0 Points,0 Points,405 points,PS2_L7.csv,,,,,,,,,,,,,,,,,,,,,,,,,,,,,0,6,6,6,0,14,14,14,,,,,,,,,,,,,,,,,,,1219.01961829199,q,0.5762393339828122,1219.6591461249918,,,,,,272777,B,2024-12-12_09h34.36.036,EPIDM,2023.1.2,60.17770476672857,
9560.jpg,3071.jpg,1 Point,1 Point,406 points,PS2_L7.csv,,,,,,,,,,,,,,,,,,,,,,,,,,,,,0,6,6,6,0,15,15,15,,,,,,,,,,,,,,,,,,,1223.9189175830106,p,0.6686903339868877,1224.6611582920013,,,,,,272777,B,2024-12-12_09h34.36.036,EPIDM,2023.1.2,60.17770476672857,
9330.jpg,3015.jpg,5 Points,5 Points,411 points,PS2_L7.csv,,,,,,,,,,,,,,,,,,,,,,,,,,,,,0,6,6,6,0,16,16,16,,,,,,,,,,,,,,,,,,,1228.918263917003,p,0.7484490420029033,1229.7322968750086,,,,,,272777,B,2024-12-12_09h34.36.036,EPIDM,2023.1.2,60.17770476672857,
2389.jpg,7320.jpg,0 Points,0 Points,411 points,PS2_L7.csv,,,,,,,,,,,,,,,,,,,,,,,,,,,,,0,6,6,6,0,17,17,17,,,,,,,,,,,,,,,,,,,1233.9818000829837,q,1.4850937919982243,1235.5402608749864,,,,,,272777,B,2024-12-12_09h34.36.036,EPIDM,2023.1.2,60.17770476672857,
6570.1.jpg,9432.jpg,5 Points,5 Points,416 points,PS2_L7.csv,,,,,,,,,,,,,,,,,,,,,,,,,,,,,0,6,6,6,0,18,18,18,,,,,,,,,,,,,,,,,,,1239.772601707984,q,1.0789269999950193,1240.9297533750068,,,,,,272777,B,2024-12-12_09h34.36.036,EPIDM,2023.1.2,60.17770476672857,
9452.jpg,7184.jpg,4 Points,4 Points,420 points,PS2_L7.csv,,,,,,,,,,,,,,,,,,,,,,,,,,,,,0,6,6,6,0,19,19,19,,,,,,,,,,,,,,,,,,,1245.1725806249888,p,1.1427647090167738,1246.3865429169964,,,,,,272777,B,2024-12-12_09h34.36.036,EPIDM,2023.1.2,60.17770476672857,
5120.jpg,5520.jpg,2 Points,2 Points,422 points,PS2_L7.csv,,,,,,,,,,,,,,,,,,,,,,,,,,,,,0,6,6,6,0,20,20,20,,,,,,,,,,,,,,,,,,,1250.6220332079974,p,0.5564843760221265,1251.2527699999919,,,,,,272777,B,2024-12-12_09h34.36.036,EPIDM,2023.1.2,60.17770476672857,
5970.jpg,3300.jpg,0 Points,0 Points,422 points,PS2_L7.csv,,,,,,,,,,,,,,,,,,,,,,,,,,,,,0,6,6,6,0,21,21,21,,,,,,,,,,,,,,,,,,,1255.4926539169974,p,1.6871175419946667,1257.2525144169922,,,,,,272777,B,2024-12-12_09h34.36.036,EPIDM,2023.1.2,60.17770476672857,
7620.jpg,5395.jpg,1 Point,1 Point,423 points,PS2_L7.csv,,,,,,,,,,,,,,,,,,,,,,,,,,,,,0,6,6,6,0,22,22,22,,,,,,,,,,,,,,,,,,,1261.4830073750054,p,1.2162023340060841,1262.7490726250107,,,,,,272777,B,2024-12-12_09h34.36.036,EPIDM,2023.1.2,60.17770476672857,
P019.jpg,F158.jpg,3 Points,3 Points,426 points,PS2_L7.csv,,,,,,,,,,,,,,,,,,,,,,,,,,,,,0,6,6,6,0,23,23,23,,,,,,,,,,,,,,,,,,,1267.0168934579997,q,1.0326490419975016,1268.1762657079962,,,1278.5852364579914,space,1.8811594589788,272777,B,2024-12-12_09h34.36.036,EPIDM,2023.1.2,60.17770476672857,
2620.jpg,2594.jpg,0 Points,0 Points,426 points,PS2_L8.csv,,,,,,,,,,,,,,,,,,,,,,,,,,,,,0,7,7,7,0,0,0,0,,,,,,,,,,,,,,,,,,,1283.7806154999998,p,0.4769133340159897,1284.3610192920023,,,,,,272777,B,2024-12-12_09h34.36.036,EPIDM,2023.1.2,60.17770476672857,
F369.jpg,3100.jpg,2 Points,2 Points,428 points,PS2_L8.csv,,,,,,,,,,,,,,,,,,,,,,,,,,,,,0,7,7,7,0,1,1,1,,,,,,,,,,,,,,,,,,,1288.5585778749955,p,0.6029629590047989,1289.2519230830076,2,1.1880030420143157,,,,272777,B,2024-12-12_09h34.36.036,EPIDM,2023.1.2,60.17770476672857,
1052.jpg,1201.jpg,3 Points,3 Points,431 points,PS2_L8.csv,,,,,,,,,,,,,,,,,,,,,,,,,,,,,0,7,7,7,0,2,2,2,,,,,,,,,,,,,,,,,,,1294.7507094999892,p,0.8910576250054874,1295.7487822920084,,,,,,272777,B,2024-12-12_09h34.36.036,EPIDM,2023.1.2,60.17770476672857,
2606.jpg,2480.jpg,1 Point,1 Point,432 points,PS2_L8.csv,,,,,,,,,,,,,,,,,,,,,,,,,,,,,0,7,7,7,0,3,3,3,,,,,,,,,,,,,,,,,,,1299.959134042001,q,0.8023861249967013,1300.8002299169893,,,,,,272777,B,2024-12-12_09h34.36.036,EPIDM,2023.1.2,60.17770476672857,
9594.jpg,1080.jpg,4 Points,4 Points,436 points,PS2_L8.csv,,,,,,,,,,,,,,,,,,,,,,,,,,,,,0,7,7,7,0,4,4,4,,,,,,,,,,,,,,,,,,,1305.0685079169925,q,0.5730362919857726,1305.7164758750005,,,,,,272777,B,2024-12-12_09h34.36.036,EPIDM,2023.1.2,60.17770476672857,
4770.jpg,4275.jpg,3 Points,3 Points,439 points,PS2_L8.csv,,,,,,,,,,,,,,,,,,,,,,,,,,,,,0,7,7,7,0,5,5,5,,,,,,,,,,,,,,,,,,,1309.972995832999,q,0.4759974170010537,1310.5154285419849,,,,,,272777,B,2024-12-12_09h34.36.036,EPIDM,2023.1.2,60.17770476672857,
P077.jpg,A041.jpg,1 Point,1 Point,440 points,PS2_L8.csv,,,,,,,,,,,,,,,,,,,,,,,,,,,,,0,7,7,7,0,6,6,6,,,,,,,,,,,,,,,,,,,1314.7645960829977,p,1.4036793750128709,1316.2859400000016,,,,,,272777,B,2024-12-12_09h34.36.036,EPIDM,2023.1.2,60.17770476672857,
6550.jpg,9582.jpg,5 Points,5 Points,445 points,PS2_L8.csv,,,,,,,,,,,,,,,,,,,,,,,,,,,,,0,7,7,7,0,7,7,7,,,,,,,,,,,,,,,,,,,1320.4830997079844,q,1.470009291981114,1322.0386212079902,,,,,,272777,B,2024-12-12_09h34.36.036,EPIDM,2023.1.2,60.17770476672857,
8040.jpg,7185.jpg,1 Point,1 Point,446 points,PS2_L8.csv,,,,,,,,,,,,,,,,,,,,,,,,,,,,,0,7,7,7,0,8,8,8,,,,,,,,,,,,,,,,,,,1326.2750053330092,q,1.7981300419778563,1328.1514796669944,,,,,,272777,B,2024-12-12_09h34.36.036,EPIDM,2023.1.2,60.17770476672857,
P233.jpg,3060.jpg,1 Point,1 Point,447 points,PS2_L8.csv,,,,,,,,,,,,,,,,,,,,,,,,,,,,,0,7,7,7,0,9,9,9,,,,,,,,,,,,,,,,,,,1332.3981015000027,p,1.290014500002144,1333.8081737080065,,,,,,272777,B,2024-12-12_09h34.36.036,EPIDM,2023.1.2,60.17770476672857,
1090.jpg,P217.jpg,5 Points,5 Points,452 points,PS2_L8.csv,,,,,,,,,,,,,,,,,,,,,,,,,,,,,0,7,7,7,0,10,10,10,,,,,,,,,,,,,,,,,,,1337.9985474580026,p,1.2648820830218028,1339.4155492919963,,,,,,272777,B,2024-12-12_09h34.36.036,EPIDM,2023.1.2,60.17770476672857,
9405.jpg,6250.2.jpg,3 Points,3 Points,455 points,PS2_L8.csv,,,,,,,,,,,,,,,,,,,,,,,,,,,,,0,7,7,7,0,11,11,11,,,,,,,,,,,,,,,,,,,1343.5809800419956,p,0.858653625997249,1344.5207617499982,,,,,,272777,B,2024-12-12_09h34.36.036,EPIDM,2023.1.2,60.17770476672857,
1610.jpg,F203.jpg,0 Points,0 Points,455 points,PS2_L8.csv,,,,,,,,,,,,,,,,,,,,,,,,,,,,,0,7,7,7,0,12,12,12,,,,,,,,,,,,,,,,,,,1348.7588002499833,p,1.136727750999853,1349.991535374982,,,,,,272777,B,2024-12-12_09h34.36.036,EPIDM,2023.1.2,60.17770476672857,
P222.jpg,9401.jpg,2 Points,2 Points,457 points,PS2_L8.csv,,,,,,,,,,,,,,,,,,,,,,,,,,,,,0,7,7,7,0,13,13,13,,,,,,,,,,,,,,,,,,,1354.2140907919966,q,0.8334592090104707,1355.156946083007,2,1.1156668330077082,,,,272777,B,2024-12-12_09h34.36.036,EPIDM,2023.1.2,60.17770476672857,
5471.jpg,7352.jpg,2 Points,2 Points,459 points,PS2_L8.csv,,,,,,,,,,,,,,,,,,,,,,,,,,,,,0,7,7,7,0,14,14,14,,,,,,,,,,,,,,,,,,,1360.564685749996,p,0.5785490839916747,1361.2206952080014,,,,,,272777,B,2024-12-12_09h34.36.036,EPIDM,2023.1.2,60.17770476672857,
9042.jpg,2753.jpg,0 Points,0 Points,459 points,PS2_L8.csv,,,,,,,,,,,,,,,,,,,,,,,,,,,,,0,7,7,7,0,15,15,15,,,,,,,,,,,,,,,,,,,1365.446085167001,p,2.7128357919864357,1368.204918375006,,,,,,272777,B,2024-12-12_09h34.36.036,EPIDM,2023.1.2,60.17770476672857,
8311.jpg,4609.jpg,2 Points,2 Points,461 points,PS2_L8.csv,,,,,,,,,,,,,,,,,,,,,,,,,,,,,0,7,7,7,0,16,16,16,,,,,,,,,,,,,,,,,,,1372.4773073749966,q,1.489221458992688,1374.008580624999,,,,,,272777,B,2024-12-12_09h34.36.036,EPIDM,2023.1.2,60.17770476672857,
2320.jpg,2791.jpg,4 Points,4 Points,465 points,PS2_L8.csv,,,,,,,,,,,,,,,,,,,,,,,,,,,,,0,7,7,7,0,17,17,17,,,,,,,,,,,,,,,,,,,1378.2724079999898,p,0.6936661670042668,1379.0303213330044,,,,,,272777,B,2024-12-12_09h34.36.036,EPIDM,2023.1.2,60.17770476672857,
F365.jpg,3180.jpg,5 Points,5 Points,470 points,PS2_L8.csv,,,,,,,,,,,,,,,,,,,,,,,,,,,,,0,7,7,7,0,18,18,18,,,,,,,,,,,,,,,,,,,1383.2803315829951,q,0.9906571669853292,1384.3742570829927,,,,,,272777,B,2024-12-12_09h34.36.036,EPIDM,2023.1.2,60.17770476672857,
9300.jpg,1050.jpg,4 Points,4 Points,474 points,PS2_L8.csv,,,,,,,,,,,,,,,,,,,,,,,,,,,,,0,7,7,7,0,19,19,19,,,,,,,,,,,,,,,,,,,1388.5792803329823,p,0.7624669169890694,1389.4140738749993,,,,,,272777,B,2024-12-12_09h34.36.036,EPIDM,2023.1.2,60.17770476672857,
6150.jpg,2206.jpg,0 Points,0 Points,474 points,PS2_L8.csv,,,,,,,,,,,,,,,,,,,,,,,,,,,,,0,7,7,7,0,20,20,20,,,,,,,,,,,,,,,,,,,1393.6562537919963,p,0.9821126259921584,1394.6840281249897,,,,,,272777,B,2024-12-12_09h34.36.036,EPIDM,2023.1.2,60.17770476672857,
6260.jpg,3062.jpg,3 Points,3 Points,477 points,PS2_L8.csv,,,,,,,,,,,,,,,,,,,,,,,,,,,,,0,7,7,7,0,21,21,21,,,,,,,,,,,,,,,,,,,1398.9375982079946,q,0.7800080419983715,1399.7691313329851,,,,,,272777,B,2024-12-12_09h34.36.036,EPIDM,2023.1.2,60.17770476672857,
6571.jpg,P237.jpg,2 Points,2 Points,479 points,PS2_L8.csv,,,,,,,,,,,,,,,,,,,,,,,,,,,,,0,7,7,7,0,22,22,22,,,,,,,,,,,,,,,,,,,1404.0371250830067,q,2.456339416996343,1406.5773419580073,,,,,,272777,B,2024-12-12_09h34.36.036,EPIDM,2023.1.2,60.17770476672857,
7283.jpg,1720.jpg,4 Points,4 Points,483 points,PS2_L8.csv,,,,,,,,,,,,,,,,,,,,,,,,,,,,,0,7,7,7,0,23,23,23,,,,,,,,,,,,,,,,,,,1410.8132944999961,p,0.8320195419946685,1411.7023100829974,,,1422.1912989169941,space,2.9179830420180224,272777,B,2024-12-12_09h34.36.036,EPIDM,2023.1.2,60.17770476672857,
3160.jpg,6210.jpg,1 Point,1 Point,484 points,PS2_L9.csv,,,,,,,,,,,,,,,,,,,,,,,,,,,,,0,8,8,8,0,0,0,0,,,,,,,,,,,,,,,,,,,1428.4207365000038,q,0.7111552089918405,1429.1828569580102,,,,,,272777,B,2024-12-12_09h34.36.036,EPIDM,2023.1.2,60.17770476672857,
2100.jpg,7205.jpg,5 Points,5 Points,489 points,PS2_L9.csv,,,,,,,,,,,,,,,,,,,,,,,,,,,,,0,8,8,8,0,1,1,1,,,,,,,,,,,,,,,,,,,1433.4433482919994,p,0.3842052920081187,1433.8788724170008,5,1.0920597089861985,,,,272777,B,2024-12-12_09h34.36.036,EPIDM,2023.1.2,60.17770476672857,
9110.jpg,3051.jpg,1 Point,1 Point,490 points,PS2_L9.csv,,,,,,,,,,,,,,,,,,,,,,,,,,,,,0,8,8,8,0,2,2,2,,,,,,,,,,,,,,,,,,,1439.2988854580035,p,0.6432374999858439,1440.0044783749909,,,,,,272777,B,2024-12-12_09h34.36.036,EPIDM,2023.1.2,60.17770476672857,
9101.jpg,9571.jpg,2 Points,2 Points,492 points,PS2_L9.csv,,,,,,,,,,,,,,,,,,,,,,,,,,,,,0,8,8,8,0,3,3,3,,,,,,,,,,,,,,,,,,,1444.2590414169827,p,0.7611594579939265,1445.069755375007,,,,,,272777,B,2024-12-12_09h34.36.036,EPIDM,2023.1.2,60.17770476672857,
5410.jpg,1450.jpg,5 Points,5 Points,497 points,PS2_L9.csv,,,,,,,,,,,,,,,,,,,,,,,,,,,,,0,8,8,8,0,4,4,4,,,,,,,,,,,,,,,,,,,1449.3342140830064,p,0.7492650419881102,1450.1207935420098,,,,,,272777,B,2024-12-12_09h34.36.036,EPIDM,2023.1.2,60.17770476672857,
F149.jpg,3030.jpg,0 Points,0 Points,497 points,PS2_L9.csv,,,,,,,,,,,,,,,,,,,,,,,,,,,,,0,8,8,8,0,5,5,5,,,,,,,,,,,,,,,,,,,1454.389246332983,q,0.4695205000170972,1454.9344881669967,,,,,,272777,B,2024-12-12_09h34.36.036,EPIDM,2023.1.2,60.17770476672857,
3266.jpg,7360.jpg,1 Point,1 Point,498 points,PS2_L9.csv,,,,,,,,,,,,,,,,,,,,,,,,,,,,,0,8,8,8,0,6,6,6,,,,,,,,,,,,,,,,,,,1459.1721643749916,p,0.4873850009753369,1459.7443327920046,,,,,,272777,B,2024-12-12_09h34.36.036,EPIDM,2023.1.2,60.17770476672857,
5660.jpg,5201.jpg,0 Points,0 Points,498 points,PS2_L9.csv,,,,,,,,,,,,,,,,,,,,,,,,,,,,,0,8,8,8,0,7,7,7,,,,,,,,,,,,,,,,,,,1463.9753566669824,q,0.36360733400215395,1464.3905099169933,,,,,,272777,B,2024-12-12_09h34.36.036,EPIDM,2023.1.2,60.17770476672857,
1945.jpg,2800.jpg,4 Points,4 Points,502 points,PS2_L9.csv,,,,,,,,,,,,,,,,,,,,,,,,,,,,,0,8,8,8,0,8,8,8,,,,,,,,,,,,,,,,,,,1468.655552082986,p,0.8516458329977468,1469.5595823329932,,,,,,272777,B,2024-12-12_09h34.36.036,EPIDM,2023.1.2,60.17770476672857,
3000.jpg,6200.jpg,5 Points,5 Points,507 points,PS2_L9.csv,,,,,,,,,,,,,,,,,,,,,,,,,,,,,0,8,8,8,0,9,9,9,,,,,,,,,,,,,,,,,,,1473.8166883329977,p,0.6173387500166427,1474.4835473329877,,,,,,272777,B,2024-12-12_09h34.36.036,EPIDM,2023.1.2,60.17770476672857,
2215.jpg,2512.jpg,1 Point,1 Point,508 points,PS2_L9.csv,,,,,,,,,,,,,,,,,,,,,,,,,,,,,0,8,8,8,0,10,10,10,,,,,,,,,,,,,,,,,,,1478.750344583008,p,0.42807720898417756,1479.221379124996,,,,,,272777,B,2024-12-12_09h34.36.036,EPIDM,2023.1.2,60.17770476672857,
5460.jpg,5800.jpg,0 Points,0 Points,508 points,PS2_L9.csv,,,,,,,,,,,,,,,,,,,,,,,,,,,,,0,8,8,8,0,11,11,11,,,,,,,,,,,,,,,,,,,1483.488246791996,p,0.5133778759918641,1484.0508449999907,,,,,,272777,B,2024-12-12_09h34.36.036,EPIDM,2023.1.2,60.17770476672857,
3061.jpg,2717.jpg,4 Points,4 Points,512 points,PS2_L9.csv,,,,,,,,,,,,,,,,,,,,,,,,,,,,,0,8,8,8,0,12,12,12,,,,,,,,,,,,,,,,,,,1488.3098667500017,p,1.0929122079978697,1489.4508172080095,,,,,,272777,B,2024-12-12_09h34.36.036,EPIDM,2023.1.2,60.17770476672857,
7380.jpg,1220.jpg,1 Point,1 Point,513 points,PS2_L9.csv,,,,,,,,,,,,,,,,,,,,,,,,,,,,,0,8,8,8,0,13,13,13,,,,,,,,,,,,,,,,,,,1493.7181380419934,q,0.9151323759870138,1494.673799457989,1,0.9384558339952491,,,,272777,B,2024-12-12_09h34.36.036,EPIDM,2023.1.2,60.17770476672857,
1740.jpg,7480.jpg,0 Points,0 Points,513 points,PS2_L9.csv,,,,,,,,,,,,,,,,,,,,,,,,,,,,,0,8,8,8,0,14,14,14,,,,,,,,,,,,,,,,,,,1499.9360426249914,q,0.5047347919899039,1500.4881520000054,,,,,,272777,B,2024-12-12_09h34.36.036,EPIDM,2023.1.2,60.17770476672857,
7285.jpg,4233.jpg,5 Points,5 Points,518 points,PS2_L9.csv,,,,,,,,,,,,,,,,,,,,,,,,,,,,,0,8,8,8,0,15,15,15,,,,,,,,,,,,,,,,,,,1504.7493767499982,p,0.6679291669861414,1505.4637459579972,,,,,,272777,B,2024-12-12_09h34.36.036,EPIDM,2023.1.2,60.17770476672857,
6830.jpg,6212.jpg,4 Points,4 Points,522 points,PS2_L9.csv,,,,,,,,,,,,,,,,,,,,,,,,,,,,,0,8,8,8,0,16,16,16,,,,,,,,,,,,,,,,,,,1509.7341365829925,q,0.9630627509905025,1510.7428599580016,,,,,,272777,B,2024-12-12_09h34.36.036,EPIDM,2023.1.2,60.17770476672857,
7830.jpg,2499.jpg,3 Points,3 Points,525 points,PS2_L9.csv,,,,,,,,,,,,,,,,,,,,,,,,,,,,,0,8,8,8,0,17,17,17,,,,,,,,,,,,,,,,,,,1515.0059044579975,p,0.5788684170111082,1515.6340244169987,,,,,,272777,B,2024-12-12_09h34.36.036,EPIDM,2023.1.2,60.17770476672857,
9520.jpg,1931.jpg,3 Points,3 Points,528 points,PS2_L9.csv,,,,,,,,,,,,,,,,,,,,,,,,,,,,,0,8,8,8,0,18,18,18,,,,,,,,,,,,,,,,,,,1519.903509374999,p,0.5131924580200575,1520.458712291991,,,,,,272777,B,2024-12-12_09h34.36.036,EPIDM,2023.1.2,60.17770476672857,
9160.jpg,1200.jpg,4 Points,4 Points,532 points,PS2_L9.csv,,,,,,,,,,,,,,,,,,,,,,,,,,,,,0,8,8,8,0,19,19,19,,,,,,,,,,,,,,,,,,,1524.7275212079985,p,0.5212729170161765,1525.3078783329984,,,,,,272777,B,2024-12-12_09h34.36.036,EPIDM,2023.1.2,60.17770476672857,
2020.jpg,1947.jpg,5 Points,5 Points,537 points,PS2_L9.csv,,,,,,,,,,,,,,,,,,,,,,,,,,,,,0,8,8,8,0,20,20,20,,,,,,,,,,,,,,,,,,,1529.5722095829842,p,0.5797827920177951,1530.2028730419988,,,,,,272777,B,2024-12-12_09h34.36.036,EPIDM,2023.1.2,60.17770476672857,
4535.jpg,1811.jpg,1 Point,1 Point,538 points,PS2_L9.csv,,,,,,,,,,,,,,,,,,,,,,,,,,,,,0,8,8,8,0,21,21,21,,,,,,,,,,,,,,,,,,,1534.4637710829847,q,1.1043245419859886,1535.614859207999,,,,,,272777,B,2024-12-12_09h34.36.036,EPIDM,2023.1.2,60.17770476672857,
9910.jpg,6940.jpg,2 Points,2 Points,540 points,PS2_L9.csv,,,,,,,,,,,,,,,,,,,,,,,,,,,,,0,8,8,8,0,22,22,22,,,,,,,,,,,,,,,,,,,1539.8711509580025,p,0.287743376014987,1540.209701041982,,,,,,272777,B,2024-12-12_09h34.36.036,EPIDM,2023.1.2,60.17770476672857,
9480.jpg,9250.jpg,0 Points,0 Points,540 points,PS2_L9.csv,,,,,,,,,,,,,,,,,,,,,,,,,,,,,0,8,8,8,0,23,23,23,,,,,,,,,,,,,,,,,,,1544.4758224170073,p,0.8995122919732239,1545.4171139579848,,,1555.9491645829985,space,1.3297238759987522,272777,B,2024-12-12_09h34.36.036,EPIDM,2023.1.2,60.17770476672857,
1660.jpg,2840.jpg,2 Points,2 Points,542 points,PS2_L10.csv,,,,,,,,,,,,,,,,,,,,,,,,,,,,,0,9,9,9,0,0,0,0,,,,,,,,,,,,,,,,,,,1560.5876683749957,q,0.899262541992357,1561.538730041997,,,,,,272777,B,2024-12-12_09h34.36.036,EPIDM,2023.1.2,60.17770476672857,
2691.jpg,7640.jpg,0 Points,0 Points,542 points,PS2_L10.csv,,,,,,,,,,,,,,,,,,,,,,,,,,,,,0,9,9,9,0,1,1,1,,,,,,,,,,,,,,,,,,,1565.7925942919974,p,0.27705341699765995,1566.1197664169886,0,1.1070069169800263,,,,272777,B,2024-12-12_09h34.36.036,EPIDM,2023.1.2,60.17770476672857,
9180.jpg,9046.jpg,3 Points,3 Points,545 points,PS2_L10.csv,,,,,,,,,,,,,,,,,,,,,,,,,,,,,0,9,9,9,0,2,2,2,,,,,,,,,,,,,,,,,,,1571.535361666989,q,0.4299079999909736,1572.0097502080025,,,,,,272777,B,2024-12-12_09h34.36.036,EPIDM,2023.1.2,60.17770476672857,
8041.jpg,2271.jpg,2 Points,2 Points,547 points,PS2_L10.csv,,,,,,,,,,,,,,,,,,,,,,,,,,,,,0,9,9,9,0,3,3,3,,,,,,,,,,,,,,,,,,,1576.2878013330046,p,0.29447408398846164,1576.6299875419936,,,,,,272777,B,2024-12-12_09h34.36.036,EPIDM,2023.1.2,60.17770476672857,
1661.jpg,1321.jpg,3 Points,3 Points,550 points,PS2_L10.csv,,,,,,,,,,,,,,,,,,,,,,,,,,,,,0,9,9,9,0,4,4,4,,,,,,,,,,,,,,,,,,,1580.9028855829965,p,0.5285825000028126,1581.4800054999941,,,,,,272777,B,2024-12-12_09h34.36.036,EPIDM,2023.1.2,60.17770476672857,
9430.jpg,3010.jpg,5 Points,5 Points,555 points,PS2_L10.csv,,,,,,,,,,,,,,,,,,,,,,,,,,,,,0,9,9,9,0,5,5,5,,,,,,,,,,,,,,,,,,,1585.7528792500088,p,0.37188629200682044,1586.1661714999937,,,,,,272777,B,2024-12-12_09h34.36.036,EPIDM,2023.1.2,60.17770476672857,
2616.jpg,7238.jpg,4 Points,4 Points,559 points,PS2_L10.csv,,,,,,,,,,,,,,,,,,,,,,,,,,,,,0,9,9,9,0,6,6,6,,,,,,,,,,,,,,,,,,,1590.440213791997,q,0.3891942499903962,1590.8758913330093,,,,,,272777,B,2024-12-12_09h34.36.036,EPIDM,2023.1.2,60.17770476672857,
9470.jpg,9400.jpg,3 Points,3 Points,562 points,PS2_L10.csv,,,,,,,,,,,,,,,,,,,,,,,,,,,,,0,9,9,9,0,7,7,7,,,,,,,,,,,,,,,,,,,1595.138312791998,p,0.4115101670031436,1595.5940815829963,,,,,,272777,B,2024-12-12_09h34.36.036,EPIDM,2023.1.2,60.17770476672857,
8260.jpg,8280.jpg,3 Points,3 Points,565 points,PS2_L10.csv,,,,,,,,,,,,,,,,,,,,,,,,,,,,,0,9,9,9,0,8,8,8,,,,,,,,,,,,,,,,,,,1599.863293292001,p,0.5009950840030797,1600.4001882919983,,,,,,272777,B,2024-12-12_09h34.36.036,EPIDM,2023.1.2,60.17770476672857,
9230.jpg,9181.jpg,0 Points,0 Points,565 points,PS2_L10.csv,,,,,,,,,,,,,,,,,,,,,,,,,,,,,0,9,9,9,0,9,9,9,,,,,,,,,,,,,,,,,,,1604.6744834999845,q,0.3622398760053329,1605.0765847080038,,,,,,272777,B,2024-12-12_09h34.36.036,EPIDM,2023.1.2,60.17770476672857,
6834.jpg,9120.jpg,5 Points,5 Points,570 points,PS2_L10.csv,,,,,,,,,,,,,,,,,,,,,,,,,,,,,0,9,9,9,0,10,10,10,,,,,,,,,,,,,,,,,,,1609.349100249994,p,0.5186771260050591,1609.9083650000102,,,,,,272777,B,2024-12-12_09h34.36.036,EPIDM,2023.1.2,60.17770476672857,
2440.jpg,7351.jpg,4 Points,4 Points,574 points,PS2_L10.csv,,,,,,,,,,,,,,,,,,,,,,,,,,,,,0,9,9,9,0,11,11,11,,,,,,,,,,,,,,,,,,,1614.1782785829855,q,1.009350332984468,1615.2425431250012,,,,,,272777,B,2024-12-12_09h34.36.036,EPIDM,2023.1.2,60.17770476672857,
9280.jpg,9390.jpg,1 Point,1 Point,575 points,PS2_L10.csv,,,,,,,,,,,,,,,,,,,,,,,,,,,,,0,9,9,9,0,12,12,12,,,,,,,,,,,,,,,,,,,1619.5013201249822,p,1.0385581259906758,1620.5842151670076,,,,,,272777,B,2024-12-12_09h34.36.036,EPIDM,2023.1.2,60.17770476672857,
7186.jpg,9182.jpg,2 Points,2 Points,577 points,PS2_L10.csv,,,,,,,,,,,,,,,,,,,,,,,,,,,,,0,9,9,9,0,13,13,13,,,,,,,,,,,,,,,,,,,1624.84561316701,p,0.9011987089761533,1625.8042335420032,2,1.4154360420070589,,,,272777,B,2024-12-12_09h34.36.036,EPIDM,2023.1.2,60.17770476672857,
7820.jpg,1121.jpg,0 Points,0 Points,577 points,PS2_L10.csv,,,,,,,,,,,,,,,,,,,,,,,,,,,,,0,9,9,9,0,14,14,14,,,,,,,,,,,,,,,,,,,1631.5429066669894,q,0.3245247089944314,1631.913868542004,,,,,,272777,B,2024-12-12_09h34.36.036,EPIDM,2023.1.2,60.17770476672857,
1110.jpg,9331.jpg,2 Points,2 Points,579 points,PS2_L10.csv,,,,,,,,,,,,,,,,,,,,,,,,,,,,,0,9,9,9,0,15,15,15,,,,,,,,,,,,,,,,,,,1636.1783614580054,p,0.36845662601990625,1636.6030229580065,,,,,,272777,B,2024-12-12_09h34.36.036,EPIDM,2023.1.2,60.17770476672857,
9001.jpg,9620.jpg,1 Point,1 Point,580 points,PS2_L10.csv,,,,,,,,,,,,,,,,,,,,,,,,,,,,,0,9,9,9,0,16,16,16,,,,,,,,,,,,,,,,,,,1640.8594232079922,p,0.32801062500220723,1641.2486789579852,,,,,,272777,B,2024-12-12_09h34.36.036,EPIDM,2023.1.2,60.17770476672857,
5535.jpg,8210.jpg,3 Points,3 Points,583 points,PS2_L10.csv,,,,,,,,,,,,,,,,,,,,,,,,,,,,,0,9,9,9,0,17,17,17,,,,,,,,,,,,,,,,,,,1645.5008271670085,q,0.18209970800671726,1645.7377354580094,,,,,,272777,B,2024-12-12_09h34.36.036,EPIDM,2023.1.2,60.17770476672857,
7950.jpg,7187.jpg,1 Point,1 Point,584 points,PS2_L10.csv,,,,,,,,,,,,,,,,,,,,,,,,,,,,,0,9,9,9,0,18,18,18,,,,,,,,,,,,,,,,,,,1649.9918471669953,q,0.3619362089957576,1650.3999603749835,,,,,,272777,B,2024-12-12_09h34.36.036,EPIDM,2023.1.2,60.17770476672857,
3250.jpg,A053.jpg,3 Points,3 Points,587 points,PS2_L10.csv,,,,,,,,,,,,,,,,,,,,,,,,,,,,,0,9,9,9,0,19,19,19,,,,,,,,,,,,,,,,,,,1654.6634915829927,q,1.0664247919921763,1655.8164744169917,,,,,,272777,B,2024-12-12_09h34.36.036,EPIDM,2023.1.2,60.17770476672857,
2205.jpg,3053.jpg,4 Points,4 Points,591 points,PS2_L10.csv,,,,,,,,,,,,,,,,,,,,,,,,,,,,,0,9,9,9,0,20,20,20,,,,,,,,,,,,,,,,,,,1660.0494948749838,p,0.7449447499820963,1660.8301734169945,,,,,,272777,B,2024-12-12_09h34.36.036,EPIDM,2023.1.2,60.17770476672857,
5594.jpg,5750.jpg,5 Points,5 Points,596 points,PS2_L10.csv,,,,,,,,,,,,,,,,,,,,,,,,,,,,,0,9,9,9,0,21,21,21,,,,,,,,,,,,,,,,,,,1665.09811958301,q,0.5910214589966927,1665.742805457994,,,,,,272777,B,2024-12-12_09h34.36.036,EPIDM,2023.1.2,60.17770476672857,
6900.jpg,8531.jpg,4 Points,4 Points,600 points,PS2_L10.csv,,,,,,,,,,,,,,,,,,,,,,,,,,,,,0,9,9,9,0,22,22,22,,,,,,,,,,,,,,,,,,,1670.0046825419995,p,0.7244806250091642,1670.780576374993,,,,,,272777,B,2024-12-12_09h34.36.036,EPIDM,2023.1.2,60.17770476672857,
1019.jpg,2120.jpg,0 Points,0 Points,600 points,PS2_L10.csv,,,,,,,,,,,,,,,,,,,,,,,,,,,,,0,9,9,9,0,23,23,23,,,,,,,,,,,,,,,,,,,1675.03856383299,q,1.2345294170081615,1676.322365208005,,,1686.8182629999937,space,2.6232475000142585,272777,B,2024-12-12_09h34.36.036,EPIDM,2023.1.2,60.17770476672857,
