L_Scene,R_Scene,Points_L,Points_R,PtTotal,blockFile,Instructions_Loop.thisRepN,Instructions_Loop.thisTrialN,Instructions_Loop.thisN,Instructions_Loop.thisIndex,Redo_Instructions_Loop.thisRepN,Redo_Instructions_Loop.thisTrialN,Redo_Instructions_Loop.thisN,Redo_Instructions_Loop.thisIndex,Practice_Encoding_Loop.thisRepN,Practice_Encoding_Loop.thisTrialN,Practice_Encoding_Loop.thisN,Practice_Encoding_Loop.thisIndex,Practice_Response_Fail_Loop.thisRepN,Practice_Response_Fail_Loop.thisTrialN,Practice_Response_Fail_Loop.thisN,Practice_Response_Fail_Loop.thisIndex,Practice_FB_Loop.thisRepN,Practice_FB_Loop.thisTrialN,Practice_FB_Loop.thisN,Practice_FB_Loop.thisIndex,Practice_Attention_Loop.thisRepN,Practice_Attention_Loop.thisTrialN,Practice_Attention_Loop.thisN,Practice_Attention_Loop.thisIndex,Practice_EncBrk_Loop.thisRepN,Practice_EncBrk_Loop.thisTrialN,Practice_EncBrk_Loop.thisN,Practice_EncBrk_Loop.thisIndex,Encoding_Loop.thisRepN,Encoding_Loop.thisTrialN,Encoding_Loop.thisN,Encoding_Loop.thisIndex,EncStim_Loop.thisRepN,EncStim_Loop.thisTrialN,EncStim_Loop.thisN,EncStim_Loop.thisIndex,Response_Fail_Loop.thisRepN,Response_Fail_Loop.thisTrialN,Response_Fail_Loop.thisN,Response_Fail_Loop.thisIndex,FB_Loop.thisRepN,FB_Loop.thisTrialN,FB_Loop.thisN,FB_Loop.thisIndex,Attention_Loop.thisRepN,Attention_Loop.thisTrialN,Attention_Loop.thisN,Attention_Loop.thisIndex,EncBrk_Loop.thisRepN,EncBrk_Loop.thisTrialN,EncBrk_Loop.thisN,EncBrk_Loop.thisIndex,Transition_Enc.keys,Transition_Enc.rt,Encoding_Resp.started,Encoding_Resp.keys,Encoding_Resp.rt,R_Point_FB_Stim.started,Attn_resp.keys,Attn_resp.rt,Progress_Tracker.started,EncBrk_Resp.keys,EncBrk_Resp.rt,participant,Group,date,expName,psychopyVersion,frameRate,
,,,,,,,,,,,,,,,,,,,,,,,,,,,,,,,,,,,,,,,,,,,,,,,,,,,,,,,,,,space,7.420528957998613,,,,,,,,,,272710,B,2024-12-14_12h41.06.939,EPIDM,2023.1.2,None,
A060.jpg,F041.jpg,5 Points,5 Points,5 Points,,,,,,,,,,0,0,0,0,,,,,,,,,,,,,,,,,,,,,,,,,,,,,,,,,,,,,,,,,,,959.088581582997,p,2.1899533749965485,961.4416065829864,,,,,,272710,B,2024-12-14_12h41.06.939,EPIDM,2023.1.2,None,
O161.jpg,1812.jpg,2 Points,2 Points,7 Points,,,,,,,,,,0,1,1,1,,,,,,,,,,,,,,,,,,,,,,,,,,,,,,,,,,,,,,,,,,,965.5956246249843,p,1.7223032910260372,967.4654252079781,,,,,,272710,B,2024-12-14_12h41.06.939,EPIDM,2023.1.2,None,
O013.jpg,A001.jpg,3 Points,3 Points,10 Points,,,,,,,,,,0,2,2,2,,,,,,,,,,,,,,,,,,,,,,,,,,,,,,,,,,,,,,,,,,,971.6306011249835,q,1.4401592499925755,973.2215942079783,,,,,,272710,B,2024-12-14_12h41.06.939,EPIDM,2023.1.2,None,
P036.jpg,F273.jpg,5 Points,5 Points,15 Points,,,,,,,,,,0,3,3,3,,,,,,,,,,,,,,,,,,,,,,,,,,,,,,,,,,,,,,,,,,,977.3695884999761,q,1.676293500000611,979.2169584159856,,,,,,272710,B,2024-12-14_12h41.06.939,EPIDM,2023.1.2,None,
L130.jpg,2393.jpg,0 Points,0 Points,15 Points,,,,,,,,,,0,4,4,4,,,,,,,,,,,,,,,,,,,,,,,,,,,,,,,,,,,,,,,,,,,983.364958332997,q,0.9385559170041233,984.4467466659844,0,7.884569499990903,,,,272710,B,2024-12-14_12h41.06.939,EPIDM,2023.1.2,None,
F279.jpg,P033.jpg,3 Points,3 Points,18 Points,,,,,,,,,,0,5,5,5,,,,,,,,,,,,,,,,,,,,,,,,,,,,,,,,,,,,,,,,,,,996.6077371249849,q,2.7126248329877853,999.4617448329809,,,,,,272710,B,2024-12-14_12h41.06.939,EPIDM,2023.1.2,None,
A104.jpg,2593.jpg,2 Points,2 Points,20 Points,,,,,,,,,,0,6,6,6,,,,,,,,,,,,,,,,,,,,,,,,,,,,,,,,,,,,,,,,,,,1003.625937957986,p,1.2771264170005452,1005.0396625829744,,,,,,272710,B,2024-12-14_12h41.06.939,EPIDM,2023.1.2,None,
2598.jpg,2605.jpg,0 Points,0 Points,20 Points,,,,,,,,,,0,7,7,7,,,,,,,,,,,,,,,,,,,,,,,,,,,,,,,,,,,,,,,,,,,1009.2125944999862,q,1.107354707986815,1010.376691374986,,,,,,272710,B,2024-12-14_12h41.06.939,EPIDM,2023.1.2,None,
L005.jpg,O011.jpg,1 Points,1 Points,21 Points,,,,,,,,,,0,8,8,8,,,,,,,,,,,,,,,,,,,,,,,,,,,,,,,,,,,,,,,,,,,1014.6390484159929,q,1.6628072500170674,1016.4430200829811,,,,,,272710,B,2024-12-14_12h41.06.939,EPIDM,2023.1.2,None,
8186.jpg,F078.jpg,2 Points,2 Points,23 Points,,,,,,,,,,0,9,9,9,,,,,,,,,,,,,,,,,,,,,,,,,,,,,,,,,,,,,,,,,,,1020.6097809159837,p,1.0843866250070278,1021.8251762909931,2,2.856773917010287,1034.9108277909982,space,18.03127275002771,272710,B,2024-12-14_12h41.06.939,EPIDM,2023.1.2,None,
,,,,,,,,,,,,,,,,,,,,,,,,,,,,,,,,,,,,,,,,,,,,,,,,,,,,,,,,,,space,2.623281208012486,,,,,,,,,,272710,B,2024-12-14_12h41.06.939,EPIDM,2023.1.2,None,
7284.jpg,8021.jpg,4 Points,4 Points,4 Points,PS2_L1.csv,,,,,,,,,,,,,,,,,,,,,,,,,,,,,0,0,0,0,0,0,0,0,,,,,,,,,,,,,,,,,,,1066.9299955409952,p,1.5790996669966262,1068.5943637079909,,,,,,272710,B,2024-12-14_12h41.06.939,EPIDM,2023.1.2,None,
2214.jpg,4500.jpg,3 Points,3 Points,7 points,PS2_L1.csv,,,,,,,,,,,,,,,,,,,,,,,,,,,,,0,0,0,0,0,1,1,1,,,,,,,,,,,,,,,,,,,1072.8209555409849,q,1.4558946659963112,1074.354758374975,3,2.894178707996616,,,,272710,B,2024-12-14_12h41.06.939,EPIDM,2023.1.2,None,
1280.jpg,9402.jpg,2 Points,2 Points,9 points,PS2_L1.csv,,,,,,,,,,,,,,,,,,,,,,,,,,,,,0,0,0,0,0,2,2,2,,,,,,,,,,,,,,,,,,,1081.5752045829722,p,2.4614307500014547,1084.1091945829976,,,,,,272710,B,2024-12-14_12h41.06.939,EPIDM,2023.1.2,None,
1650.jpg,2130.jpg,1 Points,1 Points,10 points,PS2_L1.csv,,,,,,,,,,,,,,,,,,,,,,,,,,,,,0,0,0,0,0,3,3,3,,,,,,,,,,,,,,,,,,,1088.35191149998,q,1.0205222080112435,1089.443042125,,,,,,272710,B,2024-12-14_12h41.06.939,EPIDM,2023.1.2,None,
2221.jpg,2270.jpg,2 Points,2 Points,12 points,PS2_L1.csv,,,,,,,,,,,,,,,,,,,,,,,,,,,,,0,0,0,0,0,4,4,4,,,,,,,,,,,,,,,,,,,1093.6786904999753,q,1.518543749989476,1095.2573655829765,,,,,,272710,B,2024-12-14_12h41.06.939,EPIDM,2023.1.2,None,
9373.jpg,9410.jpg,0 Points,0 Points,12 points,PS2_L1.csv,,,,,,,,,,,,,,,,,,,,,,,,,,,,,0,0,0,0,0,5,5,5,,,,,,,,,,,,,,,,,,,1099.5145715829858,q,1.4507808340131305,1101.0398523329932,,,,,,272710,B,2024-12-14_12h41.06.939,EPIDM,2023.1.2,None,
4250.jpg,7060.jpg,5 Points,5 Points,17 points,PS2_L1.csv,,,,,,,,,,,,,,,,,,,,,,,,,,,,,0,0,0,0,0,6,6,6,,,,,,,,,,,,,,,,,,,1105.2872099579836,q,1.404880707996199,1106.767437582981,,,,,,272710,B,2024-12-14_12h41.06.939,EPIDM,2023.1.2,None,
5130.jpg,1810.jpg,3 Points,3 Points,20 points,PS2_L1.csv,,,,,,,,,,,,,,,,,,,,,,,,,,,,,0,0,0,0,0,7,7,7,,,,,,,,,,,,,,,,,,,1111.0003449579817,p,1.0516601249983069,1112.1329828329908,,,,,,272710,B,2024-12-14_12h41.06.939,EPIDM,2023.1.2,None,
6370.jpg,1270.jpg,4 Points,4 Points,24 points,PS2_L1.csv,,,,,,,,,,,,,,,,,,,,,,,,,,,,,0,0,0,0,0,8,8,8,,,,,,,,,,,,,,,,,,,1116.3630134999985,q,1.488208124996163,1117.9273397910001,,,,,,272710,B,2024-12-14_12h41.06.939,EPIDM,2023.1.2,None,
5480.jpg,8200.jpg,4 Points,4 Points,28 points,PS2_L1.csv,,,,,,,,,,,,,,,,,,,,,,,,,,,,,0,0,0,0,0,9,9,9,,,,,,,,,,,,,,,,,,,1122.160464457993,p,1.2201886670081876,1123.4513311249902,,,,,,272710,B,2024-12-14_12h41.06.939,EPIDM,2023.1.2,None,
2520.jpg,8503.jpg,2 Points,2 Points,30 points,PS2_L1.csv,,,,,,,,,,,,,,,,,,,,,,,,,,,,,0,0,0,0,0,10,10,10,,,,,,,,,,,,,,,,,,,1127.687454082974,p,1.8297336249961518,1129.6012663329893,,,,,,272710,B,2024-12-14_12h41.06.939,EPIDM,2023.1.2,None,
5971.jpg,9912.jpg,5 Points,5 Points,35 points,PS2_L1.csv,,,,,,,,,,,,,,,,,,,,,,,,,,,,,0,0,0,0,0,11,11,11,,,,,,,,,,,,,,,,,,,1133.8368192909984,p,1.2076307499955874,1135.120648332988,,,,,,272710,B,2024-12-14_12h41.06.939,EPIDM,2023.1.2,None,
7195.jpg,2487.jpg,2 Points,2 Points,37 points,PS2_L1.csv,,,,,,,,,,,,,,,,,,,,,,,,,,,,,0,0,0,0,0,12,12,12,,,,,,,,,,,,,,,,,,,1139.3627765409765,p,1.2892877499980386,1140.7263272079872,,,,,,272710,B,2024-12-14_12h41.06.939,EPIDM,2023.1.2,None,
6840.jpg,3080.jpg,1 Points,1 Points,38 points,PS2_L1.csv,,,,,,,,,,,,,,,,,,,,,,,,,,,,,0,0,0,0,0,13,13,13,,,,,,,,,,,,,,,,,,,1144.9762984159752,q,1.251232832990354,1146.2909644579922,1,1.9427740840183105,,,,272710,B,2024-12-14_12h41.06.939,EPIDM,2023.1.2,None,
5510.jpg,2514.jpg,5 Points,5 Points,43 points,PS2_L1.csv,,,,,,,,,,,,,,,,,,,,,,,,,,,,,0,0,0,0,0,14,14,14,,,,,,,,,,,,,,,,,,,1152.5327787909773,q,2.222050834010588,1154.8213897499954,,,,,,272710,B,2024-12-14_12h41.06.939,EPIDM,2023.1.2,None,
7170.jpg,2170.jpg,2 Points,2 Points,45 points,PS2_L1.csv,,,,,,,,,,,,,,,,,,,,,,,,,,,,,0,0,0,0,0,15,15,15,,,,,,,,,,,,,,,,,,,1159.0698369159945,p,0.9890377089905087,1160.1400739159726,,,,,,272710,B,2024-12-14_12h41.06.939,EPIDM,2023.1.2,None,
6020.jpg,6300.jpg,2 Points,2 Points,47 points,PS2_L1.csv,,,,,,,,,,,,,,,,,,,,,,,,,,,,,0,0,0,0,0,16,16,16,,,,,,,,,,,,,,,,,,,1164.3772824579792,p,1.6586167500063311,1166.096428082994,,,,,,272710,B,2024-12-14_12h41.06.939,EPIDM,2023.1.2,None,
1942.jpg,2890.jpg,1 Points,1 Points,48 points,PS2_L1.csv,,,,,,,,,,,,,,,,,,,,,,,,,,,,,0,0,0,0,0,17,17,17,,,,,,,,,,,,,,,,,,,1170.3401617079799,q,1.638077624986181,1172.0462250829733,,,,,,272710,B,2024-12-14_12h41.06.939,EPIDM,2023.1.2,None,
6241.jpg,9561.jpg,3 Points,3 Points,51 points,PS2_L1.csv,,,,,,,,,,,,,,,,,,,,,,,,,,,,,0,0,0,0,0,18,18,18,,,,,,,,,,,,,,,,,,,1176.2957376659906,p,1.6671327500080224,1178.0300792909984,,,,,,272710,B,2024-12-14_12h41.06.939,EPIDM,2023.1.2,None,
4536.jpg,2280.jpg,4 Points,4 Points,55 points,PS2_L1.csv,,,,,,,,,,,,,,,,,,,,,,,,,,,,,0,0,0,0,0,19,19,19,,,,,,,,,,,,,,,,,,,1182.2685731659876,q,1.454146749980282,1183.8014172499825,,,,,,272710,B,2024-12-14_12h41.06.939,EPIDM,2023.1.2,None,
6000.jpg,6836.jpg,4 Points,4 Points,59 points,PS2_L1.csv,,,,,,,,,,,,,,,,,,,,,,,,,,,,,0,0,0,0,0,20,20,20,,,,,,,,,,,,,,,,,,,1188.038874291,p,1.7235345000226516,1189.8279294999957,,,,,,272710,B,2024-12-14_12h41.06.939,EPIDM,2023.1.2,None,
8232.jpg,4279.jpg,5 Points,5 Points,64 points,PS2_L1.csv,,,,,,,,,,,,,,,,,,,,,,,,,,,,,0,0,0,0,0,21,21,21,,,,,,,,,,,,,,,,,,,1194.0675833749992,q,2.1830181250115857,1196.3252636249817,,,,,,272710,B,2024-12-14_12h41.06.939,EPIDM,2023.1.2,None,
2312.jpg,2722.jpg,1 Points,1 Points,65 points,PS2_L1.csv,,,,,,,,,,,,,,,,,,,,,,,,,,,,,0,0,0,0,0,22,22,22,,,,,,,,,,,,,,,,,,,1200.5587426659768,q,1.8744114160072058,1202.5026740409958,,,,,,272710,B,2024-12-14_12h41.06.939,EPIDM,2023.1.2,None,
2750.jpg,9050.jpg,4 Points,4 Points,69 points,PS2_L1.csv,,,,,,,,,,,,,,,,,,,,,,,,,,,,,0,0,0,0,0,23,23,23,,,,,,,,,,,,,,,,,,,1206.7436358749983,p,1.1311301660025492,1207.9469906249724,,,1218.4110327909875,space,2.096143167000264,272710,B,2024-12-14_12h41.06.939,EPIDM,2023.1.2,None,
1113.jpg,1240.jpg,3 Points,3 Points,72 points,PS2_L2.csv,,,,,,,,,,,,,,,,,,,,,,,,,,,,,0,1,1,1,0,0,0,0,,,,,,,,,,,,,,,,,,,1223.8223317499796,q,1.4602271660114639,1225.359747999988,,,,,,272710,B,2024-12-14_12h41.06.939,EPIDM,2023.1.2,None,
8220.jpg,2410.jpg,4 Points,4 Points,76 points,PS2_L2.csv,,,,,,,,,,,,,,,,,,,,,,,,,,,,,0,1,1,1,0,1,1,1,,,,,,,,,,,,,,,,,,,1229.6045830409857,p,1.4454063750163186,1231.1139808749722,4,1.939721125003416,,,,272710,B,2024-12-14_12h41.06.939,EPIDM,2023.1.2,None,
4621.jpg,3550.jpg,2 Points,2 Points,78 points,PS2_L2.csv,,,,,,,,,,,,,,,,,,,,,,,,,,,,,0,1,1,1,0,2,2,2,,,,,,,,,,,,,,,,,,,1237.3710922499886,q,1.81469445899711,1239.2446049159917,,,,,,272710,B,2024-12-14_12h41.06.939,EPIDM,2023.1.2,None,
2751.jpg,6313.jpg,3 Points,3 Points,81 points,PS2_L2.csv,,,,,,,,,,,,,,,,,,,,,,,,,,,,,0,1,1,1,0,3,3,3,,,,,,,,,,,,,,,,,,,1243.4938444159925,p,2.17150437500095,1245.7382729579986,,,,,,272710,B,2024-12-14_12h41.06.939,EPIDM,2023.1.2,None,
4689.jpg,7009.jpg,5 Points,5 Points,86 points,PS2_L2.csv,,,,,,,,,,,,,,,,,,,,,,,,,,,,,0,1,1,1,0,4,4,4,,,,,,,,,,,,,,,,,,,1249.974090874981,q,1.276322958030505,1251.3199267079763,,,,,,272710,B,2024-12-14_12h41.06.939,EPIDM,2023.1.2,None,
6831.jpg,2141.jpg,5 Points,5 Points,91 points,PS2_L2.csv,,,,,,,,,,,,,,,,,,,,,,,,,,,,,0,1,1,1,0,5,5,5,,,,,,,,,,,,,,,,,,,1255.5677696249913,p,2.081434708001325,1257.7132480409928,,,,,,272710,B,2024-12-14_12h41.06.939,EPIDM,2023.1.2,None,
9417.jpg,6530.jpg,1 Point,1 Point,92 points,PS2_L2.csv,,,,,,,,,,,,,,,,,,,,,,,,,,,,,0,1,1,1,0,6,6,6,,,,,,,,,,,,,,,,,,,1261.9514162079722,p,1.9473113330022898,1263.9726391659933,,,,,,272710,B,2024-12-14_12h41.06.939,EPIDM,2023.1.2,None,
7237.jpg,8510.jpg,4 Points,4 Points,96 points,PS2_L2.csv,,,,,,,,,,,,,,,,,,,,,,,,,,,,,0,1,1,1,0,7,7,7,,,,,,,,,,,,,,,,,,,1268.2041746249888,q,0.9652677920239512,1269.2455619579996,,,,,,272710,B,2024-12-14_12h41.06.939,EPIDM,2023.1.2,None,
4608.jpg,8320.jpg,1 Point,1 Point,97 points,PS2_L2.csv,,,,,,,,,,,,,,,,,,,,,,,,,,,,,0,1,1,1,0,8,8,8,,,,,,,,,,,,,,,,,,,1273.4738787909737,q,1.6630860000150278,1275.2077391249768,,,,,,272710,B,2024-12-14_12h41.06.939,EPIDM,2023.1.2,None,
9254.jpg,9290.jpg,2 Points,2 Points,99 points,PS2_L2.csv,,,,,,,,,,,,,,,,,,,,,,,,,,,,,0,1,1,1,0,9,9,9,,,,,,,,,,,,,,,,,,,1279.4580822909775,p,1.53500449997955,1281.0657825409726,,,,,,272710,B,2024-12-14_12h41.06.939,EPIDM,2023.1.2,None,
9530.jpg,9220.jpg,1 Point,1 Point,100 points,PS2_L2.csv,,,,,,,,,,,,,,,,,,,,,,,,,,,,,0,1,1,1,0,10,10,10,,,,,,,,,,,,,,,,,,,1285.3131813749787,p,1.5602760420006234,1286.9375323749846,,,,,,272710,B,2024-12-14_12h41.06.939,EPIDM,2023.1.2,None,
2092.jpg,2210.jpg,0 Points,0 Points,100 points,PS2_L2.csv,,,,,,,,,,,,,,,,,,,,,,,,,,,,,0,1,1,1,0,11,11,11,,,,,,,,,,,,,,,,,,,1291.193180082977,q,1.3603905419877265,1292.6156659999979,,,,,,272710,B,2024-12-14_12h41.06.939,EPIDM,2023.1.2,None,
9500.jpg,6360.jpg,1 Point,1 Point,101 points,PS2_L2.csv,,,,,,,,,,,,,,,,,,,,,,,,,,,,,0,1,1,1,0,12,12,12,,,,,,,,,,,,,,,,,,,1296.857293374982,p,1.8878405829891562,1298.8153336659889,,,,,,272710,B,2024-12-14_12h41.06.939,EPIDM,2023.1.2,None,
2220.jpg,2010.jpg,5 Points,5 Points,106 points,PS2_L2.csv,,,,,,,,,,,,,,,,,,,,,,,,,,,,,0,1,1,1,0,13,13,13,,,,,,,,,,,,,,,,,,,1303.0667847079749,p,1.1176983750192448,1304.253410165984,5,1.3415343750093598,,,,272710,B,2024-12-14_12h41.06.939,EPIDM,2023.1.2,None,
5940.jpg,9411.jpg,0 Points,0 Points,106 points,PS2_L2.csv,,,,,,,,,,,,,,,,,,,,,,,,,,,,,0,1,1,1,0,14,14,14,,,,,,,,,,,,,,,,,,,1309.9090579579934,q,1.3709809170104563,1311.3518928329868,,,,,,272710,B,2024-12-14_12h41.06.939,EPIDM,2023.1.2,None,
4533.jpg,2385.jpg,3 Points,3 Points,109 points,PS2_L2.csv,,,,,,,,,,,,,,,,,,,,,,,,,,,,,0,1,1,1,0,15,15,15,,,,,,,,,,,,,,,,,,,1315.5873493749823,p,1.3976429169997573,1317.0539061249874,,,,,,272710,B,2024-12-14_12h41.06.939,EPIDM,2023.1.2,None,
9340.jpg,6910.jpg,0 Points,0 Points,109 points,PS2_L2.csv,,,,,,,,,,,,,,,,,,,,,,,,,,,,,0,1,1,1,0,16,16,16,,,,,,,,,,,,,,,,,,,1321.292591415986,p,1.0590340000053402,1322.4282763329975,,,,,,272710,B,2024-12-14_12h41.06.939,EPIDM,2023.1.2,None,
8350.jpg,7190.jpg,5 Points,5 Points,114 points,PS2_L2.csv,,,,,,,,,,,,,,,,,,,,,,,,,,,,,0,1,1,1,0,17,17,17,,,,,,,,,,,,,,,,,,,1326.6592532499926,q,2.1160238749871496,1328.8595650409989,,,,,,272710,B,2024-12-14_12h41.06.939,EPIDM,2023.1.2,None,
6211.jpg,9611.jpg,3 Points,3 Points,117 points ,PS2_L2.csv,,,,,,,,,,,,,,,,,,,,,,,,,,,,,0,1,1,1,0,18,18,18,,,,,,,,,,,,,,,,,,,1333.089555499988,p,1.7509622919897083,1334.9082186659798,,,,,,272710,B,2024-12-14_12h41.06.939,EPIDM,2023.1.2,None,
2053.jpg,9415.jpg,4 Points,4 Points,121 points,PS2_L2.csv,,,,,,,,,,,,,,,,,,,,,,,,,,,,,0,1,1,1,0,19,19,19,,,,,,,,,,,,,,,,,,,1339.1524990409962,q,1.239993916999083,1340.4489578329958,,,,,,272710,B,2024-12-14_12h41.06.939,EPIDM,2023.1.2,None,
2110.jpg,7260.jpg,5 Points,5 Points,126 points,PS2_L2.csv,,,,,,,,,,,,,,,,,,,,,,,,,,,,,0,1,1,1,0,20,20,20,,,,,,,,,,,,,,,,,,,1344.7065043749753,p,1.9979182920069434,1346.7812054159876,,,,,,272710,B,2024-12-14_12h41.06.939,EPIDM,2023.1.2,None,
2030.jpg,2495.jpg,0 Points,0 Points,126 points,PS2_L2.csv,,,,,,,,,,,,,,,,,,,,,,,,,,,,,0,1,1,1,0,21,21,21,,,,,,,,,,,,,,,,,,,1351.022660540999,p,1.056823874998372,1352.1552695409919,,,,,,272710,B,2024-12-14_12h41.06.939,EPIDM,2023.1.2,None,
1302.jpg,2700.jpg,3 Points,3 Points,129 points,PS2_L2.csv,,,,,,,,,,,,,,,,,,,,,,,,,,,,,0,1,1,1,0,22,22,22,,,,,,,,,,,,,,,,,,,1356.3888260409876,q,1.0587521249835845,1357.5153555409925,,,,,,272710,B,2024-12-14_12h41.06.939,EPIDM,2023.1.2,None,
9010.jpg,9253.jpg,0 Points,0 Points,129 points,PS2_L2.csv,,,,,,,,,,,,,,,,,,,,,,,,,,,,,0,1,1,1,0,23,23,23,,,,,,,,,,,,,,,,,,,1361.7521618749888,p,1.6396687919914257,1363.468456707982,,,1373.9356724579993,space,0.7523498749942519,272710,B,2024-12-14_12h41.06.939,EPIDM,2023.1.2,None,
1303.jpg,2000.jpg,0 Points,0 Points,129 points,PS2_L3.csv,,,,,,,,,,,,,,,,,,,,,,,,,,,,,0,2,2,2,0,0,0,0,,,,,,,,,,,,,,,,,,,1378.0051371659792,q,0.6007557080010884,1378.6734919999726,,,,,,272710,B,2024-12-14_12h41.06.939,EPIDM,2023.1.2,None,
2200.jpg,4598.jpg,1 Point,1 Point,130 points,PS2_L3.csv,,,,,,,,,,,,,,,,,,,,,,,,,,,,,0,2,2,2,0,1,1,1,,,,,,,,,,,,,,,,,,,1382.9157541249879,p,1.147745541005861,1384.1513392079796,1,1.6791516249941196,,,,272710,B,2024-12-14_12h41.06.939,EPIDM,2023.1.2,None,
6190.jpg,3120.jpg,5 Points,5 Points,135 points,PS2_L3.csv,,,,,,,,,,,,,,,,,,,,,,,,,,,,,0,2,2,2,0,2,2,2,,,,,,,,,,,,,,,,,,,1390.1486162499932,q,3.3783735840115696,1393.601720457984,,,,,,272710,B,2024-12-14_12h41.06.939,EPIDM,2023.1.2,None,
2570.jpg,5500.jpg,3 Points,3 Points,138 points,PS2_L3.csv,,,,,,,,,,,,,,,,,,,,,,,,,,,,,0,2,2,2,0,3,3,3,,,,,,,,,,,,,,,,,,,1397.8347443329985,p,0.9632398340036161,1398.8779987079906,,,,,,272710,B,2024-12-14_12h41.06.939,EPIDM,2023.1.2,None,
8460.jpg,8330.jpg,0 Points,0 Points,138 points,PS2_L3.csv,,,,,,,,,,,,,,,,,,,,,,,,,,,,,0,2,2,2,0,4,4,4,,,,,,,,,,,,,,,,,,,1403.1143922079937,p,1.41971020802157,1404.6034322909836,,,,,,272710,B,2024-12-14_12h41.06.939,EPIDM,2023.1.2,None,
9320.jpg,9007.jpg,0 Points,0 Points,138 points,PS2_L3.csv,,,,,,,,,,,,,,,,,,,,,,,,,,,,,0,2,2,2,0,5,5,5,,,,,,,,,,,,,,,,,,,1408.8584632499842,q,2.5316212910111062,1411.460504290997,,,,,,272710,B,2024-12-14_12h41.06.939,EPIDM,2023.1.2,None,
2650.jpg,4531.jpg,5 Points,5 Points,143 points,PS2_L3.csv,,,,,,,,,,,,,,,,,,,,,,,,,,,,,0,2,2,2,0,6,6,6,,,,,,,,,,,,,,,,,,,1415.6982680409856,q,1.2517672500107437,1417.0273330409836,,,,,,272710,B,2024-12-14_12h41.06.939,EPIDM,2023.1.2,None,
4100.jpg,6570.2.jpg,3 Points,3 Points,146 points,PS2_L3.csv,,,,,,,,,,,,,,,,,,,,,,,,,,,,,0,2,2,2,0,7,7,7,,,,,,,,,,,,,,,,,,,1421.2575664579927,p,1.5243943750101607,1422.8528543749999,,,,,,272710,B,2024-12-14_12h41.06.939,EPIDM,2023.1.2,None,
3102.jpg,F032.jpg,1 Point,1 Point,147 points,PS2_L3.csv,,,,,,,,,,,,,,,,,,,,,,,,,,,,,0,2,2,2,0,8,8,8,,,,,,,,,,,,,,,,,,,1427.0887068329903,p,1.244864750013221,1428.448143290996,,,,,,272710,B,2024-12-14_12h41.06.939,EPIDM,2023.1.2,None,
2240.jpg,5010.jpg,5 Points,5 Points,152 points,PS2_L3.csv,,,,,,,,,,,,,,,,,,,,,,,,,,,,,0,2,2,2,0,9,9,9,,,,,,,,,,,,,,,,,,,1432.6472857079934,p,0.6643224580038805,1433.3822308329982,,,,,,272710,B,2024-12-14_12h41.06.939,EPIDM,2023.1.2,None,
4605.jpg,1510.jpg,4 Points,4 Points,156 points,PS2_L3.csv,,,,,,,,,,,,,,,,,,,,,,,,,,,,,0,2,2,2,0,10,10,10,,,,,,,,,,,,,,,,,,,1437.6154367079725,q,1.7659687499981374,1439.4595314579783,,,,,,272710,B,2024-12-14_12h41.06.939,EPIDM,2023.1.2,None,
9490.jpg,9210.jpg,1 Point,1 Point,157 points,PS2_L3.csv,,,,,,,,,,,,,,,,,,,,,,,,,,,,,0,2,2,2,0,11,11,11,,,,,,,,,,,,,,,,,,,1443.6930430409848,p,0.896945374988718,1444.647667415993,,,,,,272710,B,2024-12-14_12h41.06.939,EPIDM,2023.1.2,None,
6821.jpg,9622.jpg,2 Points,2 Points,159 points,PS2_L3.csv,,,,,,,,,,,,,,,,,,,,,,,,,,,,,0,2,2,2,0,12,12,12,,,,,,,,,,,,,,,,,,,1448.8969972499763,q,1.0041562920087017,1449.960454999993,,,,,,272710,B,2024-12-14_12h41.06.939,EPIDM,2023.1.2,None,
2681.jpg,7100.jpg,3 Points,3 Points,162 points,PS2_L3.csv,,,,,,,,,,,,,,,,,,,,,,,,,,,,,0,2,2,2,0,13,13,13,,,,,,,,,,,,,,,,,,,1454.2091441659722,p,1.4684847919852473,1455.7571469579998,3,1.5934059580031317,,,,272710,B,2024-12-14_12h41.06.939,EPIDM,2023.1.2,None,
5622.jpg,9156.jpg,4 Points,4 Points,166 points,PS2_L3.csv,,,,,,,,,,,,,,,,,,,,,,,,,,,,,0,2,2,2,0,14,14,14,,,,,,,,,,,,,,,,,,,1461.6504214159795,q,1.6668067910068203,1463.3893372909806,,,,,,272710,B,2024-12-14_12h41.06.939,EPIDM,2023.1.2,None,
1111.jpg,1040.jpg,0 Points,0 Points,166 points,PS2_L3.csv,,,,,,,,,,,,,,,,,,,,,,,,,,,,,0,2,2,2,0,15,15,15,,,,,,,,,,,,,,,,,,,1467.6220328329946,p,1.406166792003205,1469.1016951659985,,,,,,272710,B,2024-12-14_12h41.06.939,EPIDM,2023.1.2,None,
1112.jpg,6230.jpg,3 Points,3 Points,169 points,PS2_L3.csv,,,,,,,,,,,,,,,,,,,,,,,,,,,,,0,2,2,2,0,16,16,16,,,,,,,,,,,,,,,,,,,1473.3361596659815,q,2.1253120839828625,1475.5460257909726,,,,,,272710,B,2024-12-14_12h41.06.939,EPIDM,2023.1.2,None,
8161.jpg,1900.jpg,4 Points,4 Points,173 points,PS2_L3.csv,,,,,,,,,,,,,,,,,,,,,,,,,,,,,0,2,2,2,0,17,17,17,,,,,,,,,,,,,,,,,,,1479.782615040982,p,1.3662681250134483,1481.221345707978,,,,,,272710,B,2024-12-14_12h41.06.939,EPIDM,2023.1.2,None,
9800.jpg,9433.jpg,1 Point,1 Point,174 points,PS2_L3.csv,,,,,,,,,,,,,,,,,,,,,,,,,,,,,0,2,2,2,0,18,18,18,,,,,,,,,,,,,,,,,,,1485.466397790995,q,1.4657977090100758,1486.9992891250004,,,,,,272710,B,2024-12-14_12h41.06.939,EPIDM,2023.1.2,None,
1390.jpg,9421.jpg,2 Points,2 Points,176 points,PS2_L3.csv,,,,,,,,,,,,,,,,,,,,,,,,,,,,,0,2,2,2,0,19,19,19,,,,,,,,,,,,,,,,,,,1491.2536614159762,q,1.2712269999901764,1492.594084374985,,,,,,272710,B,2024-12-14_12h41.06.939,EPIDM,2023.1.2,None,
2850.jpg,4532.jpg,3 Points,3 Points,179 points,PS2_L3.csv,,,,,,,,,,,,,,,,,,,,,,,,,,,,,0,2,2,2,0,20,20,20,,,,,,,,,,,,,,,,,,,1496.8358899999876,p,1.416480624990072,1498.327248290996,,,,,,272710,B,2024-12-14_12h41.06.939,EPIDM,2023.1.2,None,
1560.jpg,8185.jpg,0 Points,0 Points,179 points,PS2_L3.csv,,,,,,,,,,,,,,,,,,,,,,,,,,,,,0,2,2,2,0,21,21,21,,,,,,,,,,,,,,,,,,,1502.5653654999915,p,1.4462286659982055,1504.0805449579784,,,,,,272710,B,2024-12-14_12h41.06.939,EPIDM,2023.1.2,None,
6314.jpg,O022.jpg,2 Points,2 Points,181 points,PS2_L3.csv,,,,,,,,,,,,,,,,,,,,,,,,,,,,,0,2,2,2,0,22,22,22,,,,,,,,,,,,,,,,,,,1508.3214204999967,p,1.5393518340133596,1509.961146665999,,,,,,272710,B,2024-12-14_12h41.06.939,EPIDM,2023.1.2,None,
4274.jpg,8160.jpg,2 Points,2 Points,183 points,PS2_L3.csv,,,,,,,,,,,,,,,,,,,,,,,,,,,,,0,2,2,2,0,23,23,23,,,,,,,,,,,,,,,,,,,1514.1689049999986,q,1.0988685000047553,1515.3709965409944,,,1525.8274619579897,space,1.087176333006937,272710,B,2024-12-14_12h41.06.939,EPIDM,2023.1.2,None,
8117.jpg,2880.jpg,5 Points,5 Points,188 points,PS2_L4.csv,,,,,,,,,,,,,,,,,,,,,,,,,,,,,0,3,3,3,0,0,0,0,,,,,,,,,,,,,,,,,,,1530.2281613749801,q,2.126618582988158,1532.4324627079768,,,,,,272710,B,2024-12-14_12h41.06.939,EPIDM,2023.1.2,None,
3220.jpg,3063.jpg,5 Points,5 Points,193 points,PS2_L4.csv,,,,,,,,,,,,,,,,,,,,,,,,,,,,,0,3,3,3,0,1,1,1,,,,,,,,,,,,,,,,,,,1536.676862290973,q,1.7033841670199763,1538.4505678749993,5,1.7790155000111554,,,,272710,B,2024-12-14_12h41.06.939,EPIDM,2023.1.2,None,
9040.jpg,1120.jpg,3 Points,3 Points,196 points,PS2_L4.csv,,,,,,,,,,,,,,,,,,,,,,,,,,,,,0,3,3,3,0,2,2,2,,,,,,,,,,,,,,,,,,,1544.5412523749983,p,1.461447167006554,1546.0670069159823,,,,,,272710,B,2024-12-14_12h41.06.939,EPIDM,2023.1.2,None,
5030.jpg,1670.jpg,3 Points,3 Points,199 points,PS2_L4.csv,,,,,,,,,,,,,,,,,,,,,,,,,,,,,0,3,3,3,0,3,3,3,,,,,,,,,,,,,,,,,,,1550.3078126249893,q,1.6711240420117974,1552.04876770798,,,,,,272710,B,2024-12-14_12h41.06.939,EPIDM,2023.1.2,None,
2276.jpg,6540.jpg,3 Points,3 Points,202 points,PS2_L4.csv,,,,,,,,,,,,,,,,,,,,,,,,,,,,,0,3,3,3,0,4,4,4,,,,,,,,,,,,,,,,,,,1556.2950989159872,q,1.292540333000943,1557.641693249985,,,,,,272710,B,2024-12-14_12h41.06.939,EPIDM,2023.1.2,None,
1540.jpg,2600.jpg,1 Point,1 Point,203 points,PS2_L4.csv,,,,,,,,,,,,,,,,,,,,,,,,,,,,,0,3,3,3,0,5,5,5,,,,,,,,,,,,,,,,,,,1561.8912469579955,q,0.7919222089985851,1562.7483932079922,,,,,,272710,B,2024-12-14_12h41.06.939,EPIDM,2023.1.2,None,
8465.jpg,8400.jpg,1 Point,1 Point,204 points,PS2_L4.csv,,,,,,,,,,,,,,,,,,,,,,,,,,,,,0,3,3,3,0,6,6,6,,,,,,,,,,,,,,,,,,,1566.9884512499848,p,1.2294409579772037,1568.280503832997,,,,,,272710,B,2024-12-14_12h41.06.939,EPIDM,2023.1.2,None,
3110.jpg,9000.jpg,4 Points,4 Points,208 points,PS2_L4.csv,,,,,,,,,,,,,,,,,,,,,,,,,,,,,0,3,3,3,0,7,7,7,,,,,,,,,,,,,,,,,,,1572.5271969999885,p,1.5477227920200676,1574.1509504159912,,,,,,272710,B,2024-12-14_12h41.06.939,EPIDM,2023.1.2,None,
9570.jpg,6610.jpg,0 Points,0 Points,208 points,PS2_L4.csv,,,,,,,,,,,,,,,,,,,,,,,,,,,,,0,3,3,3,0,8,8,8,,,,,,,,,,,,,,,,,,,1578.3940739579848,p,1.256241625000257,1579.7198654579988,,,,,,272710,B,2024-12-14_12h41.06.939,EPIDM,2023.1.2,None,
2690.jpg,9360.jpg,1 Point,1 Point,209 points,PS2_L4.csv,,,,,,,,,,,,,,,,,,,,,,,,,,,,,0,3,3,3,0,9,9,9,,,,,,,,,,,,,,,,,,,1583.9647092909727,q,0.9093350830080453,1584.9469175829727,,,,,,272710,B,2024-12-14_12h41.06.939,EPIDM,2023.1.2,None,
8250.jpg,1313.jpg,4 Points,4 Points,213 points,PS2_L4.csv,,,,,,,,,,,,,,,,,,,,,,,,,,,,,0,3,3,3,0,10,10,10,,,,,,,,,,,,,,,,,,,1589.1812938329822,p,1.2767216250067577,1590.5282022079919,,,,,,272710,B,2024-12-14_12h41.06.939,EPIDM,2023.1.2,None,
3022.jpg,2352.2.jpg,0 Points,0 Points,213 points,PS2_L4.csv,,,,,,,,,,,,,,,,,,,,,,,,,,,,,0,3,3,3,0,11,11,11,,,,,,,,,,,,,,,,,,,1594.7637504579907,q,1.1348758340172935,1595.9768468749826,,,,,,272710,B,2024-12-14_12h41.06.939,EPIDM,2023.1.2,None,
9920.jpg,3068.jpg,5 Points,5 Points,218 points,PS2_L4.csv,,,,,,,,,,,,,,,,,,,,,,,,,,,,,0,3,3,3,0,12,12,12,,,,,,,,,,,,,,,,,,,1600.2137666249764,q,1.3073704580310732,1601.5908874999732,,,,,,272710,B,2024-12-14_12h41.06.939,EPIDM,2023.1.2,None,
7234.jpg,5533.jpg,3 Points,3 Points,221 points,PS2_L4.csv,,,,,,,,,,,,,,,,,,,,,,,,,,,,,0,3,3,3,0,13,13,13,,,,,,,,,,,,,,,,,,,1605.836291124986,p,1.4715277079958469,1607.3693833749858,3,1.4613747080147732,,,,272710,B,2024-12-14_12h41.06.939,EPIDM,2023.1.2,None,
6250.1.jpg,3301.jpg,0 Points,0 Points,221 points,PS2_L4.csv,,,,,,,,,,,,,,,,,,,,,,,,,,,,,0,3,3,3,0,14,14,14,,,,,,,,,,,,,,,,,,,1613.1366745829873,p,0.9711330000136513,1614.169451499998,,,,,,272710,B,2024-12-14_12h41.06.939,EPIDM,2023.1.2,None,
2518.jpg,2381.jpg,1 Point,1 Point,222 points,PS2_L4.csv,,,,,,,,,,,,,,,,,,,,,,,,,,,,,0,3,3,3,0,15,15,15,,,,,,,,,,,,,,,,,,,1618.4142259579967,q,0.8352817920094822,1619.3148323749774,,,,,,272710,B,2024-12-14_12h41.06.939,EPIDM,2023.1.2,None,
1910.jpg,2575.jpg,2 Points,2 Points,224 points,PS2_L4.csv,,,,,,,,,,,,,,,,,,,,,,,,,,,,,0,3,3,3,0,16,16,16,,,,,,,,,,,,,,,,,,,1623.5688693329867,p,1.200644917000318,1624.8283780829806,,,,,,272710,B,2024-12-14_12h41.06.939,EPIDM,2023.1.2,None,
1275.jpg,3150.jpg,1 Point,1 Point,225 points,PS2_L4.csv,,,,,,,,,,,,,,,,,,,,,,,,,,,,,0,3,3,3,0,17,17,17,,,,,,,,,,,,,,,,,,,1629.0798861249932,q,0.6978556660178583,1629.8494195409876,,,,,,272710,B,2024-12-14_12h41.06.939,EPIDM,2023.1.2,None,
2702.jpg,1590.jpg,5 Points,5 Points,230 points,PS2_L4.csv,,,,,,,,,,,,,,,,,,,,,,,,,,,,,0,3,3,3,0,18,18,18,,,,,,,,,,,,,,,,,,,1634.0893444159883,q,1.160515084018698,1635.313576665998,,,,,,272710,B,2024-12-14_12h41.06.939,EPIDM,2023.1.2,None,
8480.jpg,6410.jpg,1 Point,1 Point,231 points,PS2_L4.csv,,,,,,,,,,,,,,,,,,,,,,,,,,,,,0,3,3,3,0,19,19,19,,,,,,,,,,,,,,,,,,,1639.5559881249792,q,1.5330085000023246,1641.1678350000002,,,,,,272710,B,2024-12-14_12h41.06.939,EPIDM,2023.1.2,None,
5621.jpg,5534.jpg,3 Points,3 Points,234 points,PS2_L4.csv,,,,,,,,,,,,,,,,,,,,,,,,,,,,,0,3,3,3,0,20,20,20,,,,,,,,,,,,,,,,,,,1645.4056046249752,p,2.196310375002213,1647.6719901249744,,,,,,272710,B,2024-12-14_12h41.06.939,EPIDM,2023.1.2,None,
5972.jpg,6838.jpg,5 Points,5 Points,239 points,PS2_L4.csv,,,,,,,,,,,,,,,,,,,,,,,,,,,,,0,3,3,3,0,21,21,21,,,,,,,,,,,,,,,,,,,1651.9084229999862,q,1.820338959019864,1653.808969124977,,,,,,272710,B,2024-12-14_12h41.06.939,EPIDM,2023.1.2,None,
2580.jpg,8300.jpg,3 Points,3 Points,242 points,PS2_L4.csv,,,,,,,,,,,,,,,,,,,,,,,,,,,,,0,3,3,3,0,22,22,22,,,,,,,,,,,,,,,,,,,1658.0393124999828,p,1.450071500003105,1659.5653409999795,,,,,,272710,B,2024-12-14_12h41.06.939,EPIDM,2023.1.2,None,
7280.jpg,7160.jpg,0 Points,0 Points,242 points,PS2_L4.csv,,,,,,,,,,,,,,,,,,,,,,,,,,,,,0,3,3,3,0,23,23,23,,,,,,,,,,,,,,,,,,,1663.803335665987,q,1.9734747909824364,1665.8600870409864,,,1676.299143457989,space,7.260841957991943,272710,B,2024-12-14_12h41.06.939,EPIDM,2023.1.2,None,
6243.jpg,2752.jpg,2 Points,2 Points,244 points,PS2_L5.csv,,,,,,,,,,,,,,,,,,,,,,,,,,,,,0,4,4,4,0,0,0,0,,,,,,,,,,,,,,,,,,,1686.8752657499863,q,1.9968787079851609,1688.9476109999814,,,,,,272710,B,2024-12-14_12h41.06.939,EPIDM,2023.1.2,None,
8340.jpg,7546.jpg,2 Points,2 Points,246 points,PS2_L5.csv,,,,,,,,,,,,,,,,,,,,,,,,,,,,,0,4,4,4,0,1,1,1,,,,,,,,,,,,,,,,,,,1693.1816346249834,q,1.0577291670197155,1694.3125194159802,2,1.6806656249973457,,,,272710,B,2024-12-14_12h41.06.939,EPIDM,2023.1.2,None,
1022.jpg,6930.jpg,1 Point,1 Point,247 points,PS2_L5.csv,,,,,,,,,,,,,,,,,,,,,,,,,,,,,0,4,4,4,0,2,2,2,,,,,,,,,,,,,,,,,,,1700.3062547079753,p,1.3338239580043592,1701.717553540977,,,,,,272710,B,2024-12-14_12h41.06.939,EPIDM,2023.1.2,None,
7230.jpg,7570.jpg,5 Points,5 Points,252 points,PS2_L5.csv,,,,,,,,,,,,,,,,,,,,,,,,,,,,,0,4,4,4,0,3,3,3,,,,,,,,,,,,,,,,,,,1705.9578431659902,p,1.305830833996879,1707.3355205409753,,,,,,272710,B,2024-12-14_12h41.06.939,EPIDM,2023.1.2,None,
5760.jpg,1602.jpg,1 Point,1 Point,253 points,PS2_L5.csv,,,,,,,,,,,,,,,,,,,,,,,,,,,,,0,4,4,4,0,4,4,4,,,,,,,,,,,,,,,,,,,1711.567366207979,p,1.4486606660066172,1713.0904494159913,,,,,,272710,B,2024-12-14_12h41.06.939,EPIDM,2023.1.2,None,
9584.jpg,3400.jpg,2 Points,2 Points,255 points,PS2_L5.csv,,,,,,,,,,,,,,,,,,,,,,,,,,,,,0,4,4,4,0,5,5,5,,,,,,,,,,,,,,,,,,,1717.3247682910005,p,1.8428117919829674,1719.2412172499753,,,,,,272710,B,2024-12-14_12h41.06.939,EPIDM,2023.1.2,None,
2560.jpg,5270.jpg,4 Points,4 Points,259 points,PS2_L5.csv,,,,,,,,,,,,,,,,,,,,,,,,,,,,,0,4,4,4,0,6,6,6,,,,,,,,,,,,,,,,,,,1723.4872571659798,p,1.1527294169936795,1724.7099945829832,,,,,,272710,B,2024-12-14_12h41.06.939,EPIDM,2023.1.2,None,
3350.jpg,3210.jpg,1 Point,1 Point,260 points,PS2_L5.csv,,,,,,,,,,,,,,,,,,,,,,,,,,,,,0,4,4,4,0,7,7,7,,,,,,,,,,,,,,,,,,,1728.9509492499928,q,1.2485794170061126,1730.262075290986,,,,,,272710,B,2024-12-14_12h41.06.939,EPIDM,2023.1.2,None,
5455.jpg,5220.jpg,0 Points,0 Points,260 points,PS2_L5.csv,,,,,,,,,,,,,,,,,,,,,,,,,,,,,0,4,4,4,0,8,8,8,,,,,,,,,,,,,,,,,,,1734.511074915994,p,1.0719910000043456,1735.646419540979,,,,,,272710,B,2024-12-14_12h41.06.939,EPIDM,2023.1.2,None,
7920.jpg,9102.jpg,3 Points,3 Points,263 points,PS2_L5.csv,,,,,,,,,,,,,,,,,,,,,,,,,,,,,0,4,4,4,0,9,9,9,,,,,,,,,,,,,,,,,,,1739.8939869999886,q,1.8487648340233136,1741.818676625,,,,,,272710,B,2024-12-14_12h41.06.939,EPIDM,2023.1.2,None,
1301.jpg,1070.jpg,2 Points,2 Points,265 points,PS2_L5.csv,,,,,,,,,,,,,,,,,,,,,,,,,,,,,0,4,4,4,0,10,10,10,,,,,,,,,,,,,,,,,,,1746.053978290991,q,1.5684652919881046,1747.7003684999945,,,,,,272710,B,2024-12-14_12h41.06.939,EPIDM,2023.1.2,None,
5982.jpg,5260.jpg,5 Points,5 Points,270 points,PS2_L5.csv,,,,,,,,,,,,,,,,,,,,,,,,,,,,,0,4,4,4,0,11,11,11,,,,,,,,,,,,,,,,,,,1751.9371261659835,p,1.046081165986834,1753.0647135409818,,,,,,272710,B,2024-12-14_12h41.06.939,EPIDM,2023.1.2,None,
5000.jpg,8180.jpg,4 Points,4 Points,274 points,PS2_L5.csv,,,,,,,,,,,,,,,,,,,,,,,,,,,,,0,4,4,4,0,12,12,12,,,,,,,,,,,,,,,,,,,1757.2998282909975,q,1.5075600830023177,1758.8851208329725,,,,,,272710,B,2024-12-14_12h41.06.939,EPIDM,2023.1.2,None,
6244.jpg,9265.jpg,0 Points,0 Points,274 points,PS2_L5.csv,,,,,,,,,,,,,,,,,,,,,,,,,,,,,0,4,4,4,0,13,13,13,,,,,,,,,,,,,,,,,,,1763.1201816659886,q,1.9422910000139382,1765.1290477079747,0,1.467544250015635,,,,272710,B,2024-12-14_12h41.06.939,EPIDM,2023.1.2,None,
5990.jpg,5780.jpg,3 Points,3 Points,277 points,PS2_L5.csv,,,,,,,,,,,,,,,,,,,,,,,,,,,,,0,4,4,4,0,14,14,14,,,,,,,,,,,,,,,,,,,1770.8834922909737,p,1.4907323750085197,1772.4439722909883,,,,,,272710,B,2024-12-14_12h41.06.939,EPIDM,2023.1.2,None,
9440.jpg,6350.jpg,4 Points,4 Points,281 points,PS2_L5.csv,,,,,,,,,,,,,,,,,,,,,,,,,,,,,0,4,4,4,0,15,15,15,,,,,,,,,,,,,,,,,,,1776.6823810409987,p,1.4680576249957085,1778.214129415981,,,,,,272710,B,2024-12-14_12h41.06.939,EPIDM,2023.1.2,None,
1850.jpg,5623.jpg,5 Points,5 Points,286 points,PS2_L5.csv,,,,,,,,,,,,,,,,,,,,,,,,,,,,,0,4,4,4,0,16,16,16,,,,,,,,,,,,,,,,,,,1782.4535848329833,p,1.4804250829911325,1783.9970277909888,,,,,,272710,B,2024-12-14_12h41.06.939,EPIDM,2023.1.2,None,
5200.jpg,5020.jpg,0 Points,0 Points,286 points,PS2_L5.csv,,,,,,,,,,,,,,,,,,,,,,,,,,,,,0,4,4,4,0,17,17,17,,,,,,,,,,,,,,,,,,,1788.2387818329735,q,2.3753287500003353,1790.6959197909746,,,,,,272710,B,2024-12-14_12h41.06.939,EPIDM,2023.1.2,None,
P211.jpg,9041.jpg,4 Points,4 Points,290 points,PS2_L5.csv,,,,,,,,,,,,,,,,,,,,,,,,,,,,,0,4,4,4,0,18,18,18,,,,,,,,,,,,,,,,,,,1794.9303992909845,p,1.0837409160158131,1796.125412124995,,,,,,272710,B,2024-12-14_12h41.06.939,EPIDM,2023.1.2,None,
5600.jpg,9080.jpg,5 Points,5 Points,295 points,PS2_L5.csv,,,,,,,,,,,,,,,,,,,,,,,,,,,,,0,4,4,4,0,19,19,19,,,,,,,,,,,,,,,,,,,1800.326692749979,q,1.3756373750220519,1801.7823685409967,,,,,,272710,B,2024-12-14_12h41.06.939,EPIDM,2023.1.2,None,
6800.jpg,9190.jpg,0 Points,0 Points,295 points,PS2_L5.csv,,,,,,,,,,,,,,,,,,,,,,,,,,,,,0,4,4,4,0,20,20,20,,,,,,,,,,,,,,,,,,,1806.021152457979,p,1.2167714170063846,1807.3170570829825,,,,,,272710,B,2024-12-14_12h41.06.939,EPIDM,2023.1.2,None,
3280.jpg,9270.jpg,0 Points,0 Points,295 points,PS2_L5.csv,,,,,,,,,,,,,,,,,,,,,,,,,,,,,0,4,4,4,0,21,21,21,,,,,,,,,,,,,,,,,,,1811.558700374997,q,1.1450122079986613,1812.757121832983,,,,,,272710,B,2024-12-14_12h41.06.939,EPIDM,2023.1.2,None,
4613.jpg,2720.jpg,4 Points,4 Points,299 points,PS2_L5.csv,,,,,,,,,,,,,,,,,,,,,,,,,,,,,0,4,4,4,0,22,22,22,,,,,,,,,,,,,,,,,,,1817.0160806659842,p,2.1330190830049105,1819.2128332909779,,,,,,272710,B,2024-12-14_12h41.06.939,EPIDM,2023.1.2,None,
1930.jpg,9008.jpg,1 Point,1 Point,300 points,PS2_L5.csv,,,,,,,,,,,,,,,,,,,,,,,,,,,,,0,4,4,4,0,23,23,23,,,,,,,,,,,,,,,,,,,1823.4619279999752,q,0.9420883329876233,1824.475026124972,,,1834.9597913749749,space,0.7734372910053935,272710,B,2024-12-14_12h41.06.939,EPIDM,2023.1.2,None,
2190.jpg,7503.jpg,2 Points,2 Points,302 points,PS2_L6.csv,,,,,,,,,,,,,,,,,,,,,,,,,,,,,0,5,5,5,0,0,0,0,,,,,,,,,,,,,,,,,,,1839.0418990829785,q,1.4825840000121389,1840.608650915994,,,,,,272710,B,2024-12-14_12h41.06.939,EPIDM,2023.1.2,None,
2490.jpg,2590.jpg,4 Points,4 Points,306 points,PS2_L6.csv,,,,,,,,,,,,,,,,,,,,,,,,,,,,,0,5,5,5,0,1,1,1,,,,,,,,,,,,,,,,,,,1844.8412272909773,p,1.7798125839908607,1846.705557749985,4,1.6611279589997139,,,,272710,B,2024-12-14_12h41.06.939,EPIDM,2023.1.2,None,
9592.jpg,1300.jpg,2 Points,2 Points,308 points,PS2_L6.csv,,,,,,,,,,,,,,,,,,,,,,,,,,,,,0,5,5,5,0,2,2,2,,,,,,,,,,,,,,,,,,,1852.6815447080007,p,1.5548707910056692,1854.2983414999908,,,,,,272710,B,2024-12-14_12h41.06.939,EPIDM,2023.1.2,None,
8230.jpg,2682.jpg,5 Points,5 Points,313 points,PS2_L6.csv,,,,,,,,,,,,,,,,,,,,,,,,,,,,,0,5,5,5,0,3,3,3,,,,,,,,,,,,,,,,,,,1858.5509112500004,q,1.412578791991109,1860.033320040995,,,,,,272710,B,2024-12-14_12h41.06.939,EPIDM,2023.1.2,None,
9090.jpg,7580.jpg,3 Points,3 Points,316 points,PS2_L6.csv,,,,,,,,,,,,,,,,,,,,,,,,,,,,,0,5,5,5,0,4,4,4,,,,,,,,,,,,,,,,,,,1864.2742062499747,p,1.5296691250114236,1865.8719919579744,,,,,,272710,B,2024-12-14_12h41.06.939,EPIDM,2023.1.2,None,
3530.jpg,6213.jpg,1 Point,1 Point,317 points,PS2_L6.csv,,,,,,,,,,,,,,,,,,,,,,,,,,,,,0,5,5,5,0,5,5,5,,,,,,,,,,,,,,,,,,,1870.1145675409934,q,2.089364499988733,1872.278388540988,,,,,,272710,B,2024-12-14_12h41.06.939,EPIDM,2023.1.2,None,
1640.jpg,5531.jpg,3 Points,3 Points,320 points,PS2_L6.csv,,,,,,,,,,,,,,,,,,,,,,,,,,,,,0,5,5,5,0,6,6,6,,,,,,,,,,,,,,,,,,,1876.5139407079841,p,0.6658812499954365,1877.2572682499886,,,,,,272710,B,2024-12-14_12h41.06.939,EPIDM,2023.1.2,None,
3064.jpg,3168.jpg,4 Points,4 Points,324 points,PS2_L6.csv,,,,,,,,,,,,,,,,,,,,,,,,,,,,,0,5,5,5,0,7,7,7,,,,,,,,,,,,,,,,,,,1881.4967482909851,q,1.9468588749878109,1883.5145917909977,,,,,,272710,B,2024-12-14_12h41.06.939,EPIDM,2023.1.2,None,
2710.jpg,9252.jpg,1 Point,1 Point,325 points,PS2_L6.csv,,,,,,,,,,,,,,,,,,,,,,,,,,,,,0,5,5,5,0,8,8,8,,,,,,,,,,,,,,,,,,,1887.750211540988,q,2.692627124983119,1890.5117819159932,,,,,,272710,B,2024-12-14_12h41.06.939,EPIDM,2023.1.2,None,
2260.jpg,2830.jpg,5 Points,5 Points,330 points,PS2_L6.csv,,,,,,,,,,,,,,,,,,,,,,,,,,,,,0,5,5,5,0,9,9,9,,,,,,,,,,,,,,,,,,,1894.750039290986,q,1.6379642910032999,1896.4600289159862,,,,,,272710,B,2024-12-14_12h41.06.939,EPIDM,2023.1.2,None,
6510.jpg,A074.jpg,2 Points,2 Points,332 points,PS2_L6.csv,,,,,,,,,,,,,,,,,,,,,,,,,,,,,0,5,5,5,0,10,10,10,,,,,,,,,,,,,,,,,,,1900.6952157909982,p,2.6674867090187036,1903.4803375409974,,,,,,272710,B,2024-12-14_12h41.06.939,EPIDM,2023.1.2,None,
5300.jpg,2372.jpg,1 Point,1 Point,333 points,PS2_L6.csv,,,,,,,,,,,,,,,,,,,,,,,,,,,,,0,5,5,5,0,11,11,11,,,,,,,,,,,,,,,,,,,1907.683043624973,q,0.6642235839972273,1908.4515879999963,,,,,,272710,B,2024-12-14_12h41.06.939,EPIDM,2023.1.2,None,
2749.jpg,7282.jpg,3 Points,3 Points,336 points,PS2_L6.csv,,,,,,,,,,,,,,,,,,,,,,,,,,,,,0,5,5,5,0,12,12,12,,,,,,,,,,,,,,,,,,,1912.6526559159975,q,1.0625457919959445,1913.7847139159858,,,,,,272710,B,2024-12-14_12h41.06.939,EPIDM,2023.1.2,None,
3130.jpg,3500.jpg,4 Points,4 Points,340 points,PS2_L6.csv,,,,,,,,,,,,,,,,,,,,,,,,,,,,,0,5,5,5,0,13,13,13,,,,,,,,,,,,,,,,,,,1918.0193262909888,q,0.7756479170056991,1918.8668037079915,4,1.3966627909976523,,,,272710,B,2024-12-14_12h41.06.939,EPIDM,2023.1.2,None,
6312.jpg,3230.jpg,2 Points,2 Points,342 points,PS2_L6.csv,,,,,,,,,,,,,,,,,,,,,,,,,,,,,0,5,5,5,0,14,14,14,,,,,,,,,,,,,,,,,,,1924.5624528749904,p,1.2567257920163684,1925.8898589579912,,,,,,272710,B,2024-12-14_12h41.06.939,EPIDM,2023.1.2,None,
2597.jpg,5870.jpg,5 Points,5 Points,347 points,PS2_L6.csv,,,,,,,,,,,,,,,,,,,,,,,,,,,,,0,5,5,5,0,15,15,15,,,,,,,,,,,,,,,,,,,1930.1223482909845,p,0.4239263749914244,1930.6242093749752,,,,,,272710,B,2024-12-14_12h41.06.939,EPIDM,2023.1.2,None,
8033.jpg,7270.jpg,3 Points,3 Points,350 points,PS2_L6.csv,,,,,,,,,,,,,,,,,,,,,,,,,,,,,0,5,5,5,0,16,16,16,,,,,,,,,,,,,,,,,,,1934.8590966249758,q,1.3435013749985956,1936.2820415409806,,,,,,272710,B,2024-12-14_12h41.06.939,EPIDM,2023.1.2,None,
3170.jpg,6560.jpg,2 Points,2 Points,352 points,PS2_L6.csv,,,,,,,,,,,,,,,,,,,,,,,,,,,,,0,5,5,5,0,17,17,17,,,,,,,,,,,,,,,,,,,1940.5231625829765,q,1.415909000003012,1942.0133534159977,,,,,,272710,B,2024-12-14_12h41.06.939,EPIDM,2023.1.2,None,
6242.jpg,F034.jpg,4 Points,4 Points,356 points,PS2_L6.csv,,,,,,,,,,,,,,,,,,,,,,,,,,,,,0,5,5,5,0,18,18,18,,,,,,,,,,,,,,,,,,,1946.2585230829718,q,2.1118140000035055,1948.4888769159734,,,,,,272710,B,2024-12-14_12h41.06.939,EPIDM,2023.1.2,None,
2485.jpg,7350.jpg,0 Points,0 Points,356 points,PS2_L6.csv,,,,,,,,,,,,,,,,,,,,,,,,,,,,,0,5,5,5,0,19,19,19,,,,,,,,,,,,,,,,,,,1952.6925894579908,p,1.0696700420230627,1953.833909790992,,,,,,272710,B,2024-12-14_12h41.06.939,EPIDM,2023.1.2,None,
2900.jpg,1101.jpg,3 Points,3 Points,359 points,PS2_L6.csv,,,,,,,,,,,,,,,,,,,,,,,,,,,,,0,5,5,5,0,20,20,20,,,,,,,,,,,,,,,,,,,1958.0721138749796,q,1.8101023329945747,1959.9646412909788,,,,,,272710,B,2024-12-14_12h41.06.939,EPIDM,2023.1.2,None,
7002.jpg,4660.jpg,4 Points,4 Points,363 points,PS2_L6.csv,,,,,,,,,,,,,,,,,,,,,,,,,,,,,0,5,5,5,0,21,21,21,,,,,,,,,,,,,,,,,,,1964.1992500829801,p,1.2738553329836577,1965.5539677909983,,,,,,272710,B,2024-12-14_12h41.06.939,EPIDM,2023.1.2,None,
A025.jpg,1051.jpg,0 Points,0 Points,363 points,PS2_L6.csv,,,,,,,,,,,,,,,,,,,,,,,,,,,,,0,5,5,5,0,22,22,22,,,,,,,,,,,,,,,,,,,1969.7850605829735,q,1.841417084011482,1971.7377916659752,,,,,,272710,B,2024-12-14_12h41.06.939,EPIDM,2023.1.2,None,
4510.jpg,2230.jpg,5 Points,5 Points,368 points,PS2_L6.csv,,,,,,,,,,,,,,,,,,,,,,,,,,,,,0,5,5,5,0,23,23,23,,,,,,,,,,,,,,,,,,,1975.9348189159937,q,1.4593788330093957,1977.4771587909781,,,1987.9688488749962,space,1.2407102079887409,272710,B,2024-12-14_12h41.06.939,EPIDM,2023.1.2,None,
2383.jpg,1616.jpg,2 Points,2 Points,370 points,PS2_L7.csv,,,,,,,,,,,,,,,,,,,,,,,,,,,,,0,6,6,6,0,0,0,0,,,,,,,,,,,,,,,,,,,1992.5248674999748,q,1.0359772919910029,1993.6404597079963,,,,,,272710,B,2024-12-14_12h41.06.939,EPIDM,2023.1.2,None,
1310.jpg,3181.jpg,4 Points,4 Points,374 points,PS2_L7.csv,,,,,,,,,,,,,,,,,,,,,,,,,,,,,0,6,6,6,0,1,1,1,,,,,,,,,,,,,,,,,,,1997.878188957984,p,1.329836625023745,1999.2696765409783,4,1.538138459000038,,,,272710,B,2024-12-14_12h41.06.939,EPIDM,2023.1.2,None,
7289.jpg,4534.jpg,0 Points,0 Points,374 points,PS2_L7.csv,,,,,,,,,,,,,,,,,,,,,,,,,,,,,0,6,6,6,0,2,2,2,,,,,,,,,,,,,,,,,,,2005.1148666249937,p,0.8621949579974171,2006.0581670409883,,,,,,272710,B,2024-12-14_12h41.06.939,EPIDM,2023.1.2,None,
6010.jpg,7361.jpg,2 Points,2 Points,376 points,PS2_L7.csv,,,,,,,,,,,,,,,,,,,,,,,,,,,,,0,6,6,6,0,3,3,3,,,,,,,,,,,,,,,,,,,2010.3007637079863,p,1.3407209999859333,2011.7118959159998,,,,,,272710,B,2024-12-14_12h41.06.939,EPIDM,2023.1.2,None,
2661.jpg,2870.jpg,5 Points,5 Points,381 points,PS2_L7.csv,,,,,,,,,,,,,,,,,,,,,,,,,,,,,0,6,6,6,0,4,4,4,,,,,,,,,,,,,,,,,,,2015.9575483749795,q,1.7138919589924626,2017.7336389579868,,,,,,272710,B,2024-12-14_12h41.06.939,EPIDM,2023.1.2,None,
7220.jpg,8090.jpg,2 Points,2 Points,383 points,PS2_L7.csv,,,,,,,,,,,,,,,,,,,,,,,,,,,,,0,6,6,6,0,5,5,5,,,,,,,,,,,,,,,,,,,2021.9804532079725,p,0.9638444580195937,2023.0096997910005,,,,,,272710,B,2024-12-14_12h41.06.939,EPIDM,2023.1.2,None,
9140.jpg,2810.jpg,3 Points,3 Points,386 points,PS2_L7.csv,,,,,,,,,,,,,,,,,,,,,,,,,,,,,0,6,6,6,0,6,6,6,,,,,,,,,,,,,,,,,,,2027.2533621659968,p,1.1785456250072457,2028.4942246249993,,,,,,272710,B,2024-12-14_12h41.06.939,EPIDM,2023.1.2,None,
2516.jpg,8500.jpg,4 Points,4 Points,390 points,PS2_L7.csv,,,,,,,,,,,,,,,,,,,,,,,,,,,,,0,6,6,6,0,7,7,7,,,,,,,,,,,,,,,,,,,2032.7506875830004,q,1.3374416659935378,2034.1561622079753,,,,,,272710,B,2024-12-14_12h41.06.939,EPIDM,2023.1.2,None,
9070.jpg,9420.jpg,2 Points,2 Points,392 points,PS2_L7.csv,,,,,,,,,,,,,,,,,,,,,,,,,,,,,0,6,6,6,0,8,8,8,,,,,,,,,,,,,,,,,,,2038.3924866249727,p,0.8718796670145821,2039.3282954579918,,,,,,272710,B,2024-12-14_12h41.06.939,EPIDM,2023.1.2,None,
6561.jpg,1525.jpg,2 Points,2 Points,394 points,PS2_L7.csv,,,,,,,,,,,,,,,,,,,,,,,,,,,,,0,6,6,6,0,9,9,9,,,,,,,,,,,,,,,,,,,2043.5734084579744,q,1.3309831249935087,2044.9576865409908,,,,,,272710,B,2024-12-14_12h41.06.939,EPIDM,2023.1.2,None,
7175.jpg,7490.jpg,2 Points,2 Points,396 points,PS2_L7.csv,,,,,,,,,,,,,,,,,,,,,,,,,,,,,0,6,6,6,0,10,10,10,,,,,,,,,,,,,,,,,,,2049.2100595829834,p,1.1656986660091206,2050.4460825829883,,,,,,272710,B,2024-12-14_12h41.06.939,EPIDM,2023.1.2,None,
8010.jpg,2630.jpg,0 Points,0 Points,396 points,PS2_L7.csv,,,,,,,,,,,,,,,,,,,,,,,,,,,,,0,6,6,6,0,11,11,11,,,,,,,,,,,,,,,,,,,2054.6896204160003,q,1.5818237499915995,2056.3507715829764,,,,,,272710,B,2024-12-14_12h41.06.939,EPIDM,2023.1.2,None,
F174.jpg,9404.jpg,5 Points,5 Points,401 points,PS2_L7.csv,,,,,,,,,,,,,,,,,,,,,,,,,,,,,0,6,6,6,0,12,12,12,,,,,,,,,,,,,,,,,,,2060.595492957975,q,1.6276254170225002,2062.3311319159984,,,,,,272710,B,2024-12-14_12h41.06.939,EPIDM,2023.1.2,None,
2692.jpg,8231.jpg,4 Points,4 Points,405 points,PS2_L7.csv,,,,,,,,,,,,,,,,,,,,,,,,,,,,,0,6,6,6,0,13,13,13,,,,,,,,,,,,,,,,,,,2066.5413734579924,p,1.4902701660175808,2068.1346682079893,4,1.326517709007021,,,,272710,B,2024-12-14_12h41.06.939,EPIDM,2023.1.2,None,
5994.jpg,5390.jpg,0 Points,0 Points,405 points,PS2_L7.csv,,,,,,,,,,,,,,,,,,,,,,,,,,,,,0,6,6,6,0,14,14,14,,,,,,,,,,,,,,,,,,,2073.734031332977,p,1.0170919579977635,2074.811620624998,,,,,,272710,B,2024-12-14_12h41.06.939,EPIDM,2023.1.2,None,
9560.jpg,3071.jpg,1 Point,1 Point,406 points,PS2_L7.csv,,,,,,,,,,,,,,,,,,,,,,,,,,,,,0,6,6,6,0,15,15,15,,,,,,,,,,,,,,,,,,,2079.0654067499854,p,1.045034416980343,2080.181994499988,,,,,,272710,B,2024-12-14_12h41.06.939,EPIDM,2023.1.2,None,
9330.jpg,3015.jpg,5 Points,5 Points,411 points,PS2_L7.csv,,,,,,,,,,,,,,,,,,,,,,,,,,,,,0,6,6,6,0,16,16,16,,,,,,,,,,,,,,,,,,,2084.419665665977,p,1.94792075001169,2086.427070624981,,,,,,272710,B,2024-12-14_12h41.06.939,EPIDM,2023.1.2,None,
2389.jpg,7320.jpg,0 Points,0 Points,411 points,PS2_L7.csv,,,,,,,,,,,,,,,,,,,,,,,,,,,,,0,6,6,6,0,17,17,17,,,,,,,,,,,,,,,,,,,2090.6719252079783,q,1.2954908750252798,2092.0516666249896,,,,,,272710,B,2024-12-14_12h41.06.939,EPIDM,2023.1.2,None,
6570.1.jpg,9432.jpg,5 Points,5 Points,416 points,PS2_L7.csv,,,,,,,,,,,,,,,,,,,,,,,,,,,,,0,6,6,6,0,18,18,18,,,,,,,,,,,,,,,,,,,2096.2919750409783,p,1.6176923330058344,2097.981696624978,,,,,,272710,B,2024-12-14_12h41.06.939,EPIDM,2023.1.2,None,
9452.jpg,7184.jpg,4 Points,4 Points,420 points,PS2_L7.csv,,,,,,,,,,,,,,,,,,,,,,,,,,,,,0,6,6,6,0,19,19,19,,,,,,,,,,,,,,,,,,,2102.221825582994,p,1.9209609999961685,2104.2180033329932,,,,,,272710,B,2024-12-14_12h41.06.939,EPIDM,2023.1.2,None,
5120.jpg,5520.jpg,2 Points,2 Points,422 points,PS2_L7.csv,,,,,,,,,,,,,,,,,,,,,,,,,,,,,0,6,6,6,0,20,20,20,,,,,,,,,,,,,,,,,,,2108.448227874993,q,1.869845292007085,2110.4006799579947,,,,,,272710,B,2024-12-14_12h41.06.939,EPIDM,2023.1.2,None,
5970.jpg,3300.jpg,0 Points,0 Points,422 points,PS2_L7.csv,,,,,,,,,,,,,,,,,,,,,,,,,,,,,0,6,6,6,0,21,21,21,,,,,,,,,,,,,,,,,,,2114.630367582984,q,0.6707613749895245,2115.372559832991,,,,,,272710,B,2024-12-14_12h41.06.939,EPIDM,2023.1.2,None,
7620.jpg,5395.jpg,1 Point,1 Point,423 points,PS2_L7.csv,,,,,,,,,,,,,,,,,,,,,,,,,,,,,0,6,6,6,0,22,22,22,,,,,,,,,,,,,,,,,,,2119.6188952909724,p,2.363975207990734,2122.0481104159844,,,,,,272710,B,2024-12-14_12h41.06.939,EPIDM,2023.1.2,None,
P019.jpg,F158.jpg,3 Points,3 Points,426 points,PS2_L7.csv,,,,,,,,,,,,,,,,,,,,,,,,,,,,,0,6,6,6,0,23,23,23,,,,,,,,,,,,,,,,,,,2126.298372124991,q,1.3074749170045834,2127.7600044999854,,,2138.1346167079755,space,1.5989852500206325,272710,B,2024-12-14_12h41.06.939,EPIDM,2023.1.2,None,
2620.jpg,2594.jpg,0 Points,0 Points,426 points,PS2_L8.csv,,,,,,,,,,,,,,,,,,,,,,,,,,,,,0,7,7,7,0,0,0,0,,,,,,,,,,,,,,,,,,,2143.044158790988,q,2.8177204999956302,2145.9628921659896,,,,,,272710,B,2024-12-14_12h41.06.939,EPIDM,2023.1.2,None,
F369.jpg,3100.jpg,2 Points,2 Points,428 points,PS2_L8.csv,,,,,,,,,,,,,,,,,,,,,,,,,,,,,0,7,7,7,0,1,1,1,,,,,,,,,,,,,,,,,,,2150.1685639579955,p,0.6450436660088599,2150.9051534579776,2,1.4419805000070482,,,,272710,B,2024-12-14_12h41.06.939,EPIDM,2023.1.2,None,
1052.jpg,1201.jpg,3 Points,3 Points,431 points,PS2_L8.csv,,,,,,,,,,,,,,,,,,,,,,,,,,,,,0,7,7,7,0,2,2,2,,,,,,,,,,,,,,,,,,,2156.647524207976,p,1.3970323329849634,2158.1434589999844,,,,,,272710,B,2024-12-14_12h41.06.939,EPIDM,2023.1.2,None,
2606.jpg,2480.jpg,1 Point,1 Point,432 points,PS2_L8.csv,,,,,,,,,,,,,,,,,,,,,,,,,,,,,0,7,7,7,0,3,3,3,,,,,,,,,,,,,,,,,,,2162.3553395409836,p,1.7614583329996094,2164.1857524579973,,,,,,272710,B,2024-12-14_12h41.06.939,EPIDM,2023.1.2,None,
9594.jpg,1080.jpg,4 Points,4 Points,436 points,PS2_L8.csv,,,,,,,,,,,,,,,,,,,,,,,,,,,,,0,7,7,7,0,4,4,4,,,,,,,,,,,,,,,,,,,2168.433822082996,p,1.0913966250082012,2169.598531582975,,,,,,272710,B,2024-12-14_12h41.06.939,EPIDM,2023.1.2,None,
4770.jpg,4275.jpg,3 Points,3 Points,439 points,PS2_L8.csv,,,,,,,,,,,,,,,,,,,,,,,,,,,,,0,7,7,7,0,5,5,5,,,,,,,,,,,,,,,,,,,2173.827019624994,q,0.6732036249886733,2174.5803287079907,,,,,,272710,B,2024-12-14_12h41.06.939,EPIDM,2023.1.2,None,
P077.jpg,A041.jpg,1 Point,1 Point,440 points,PS2_L8.csv,,,,,,,,,,,,,,,,,,,,,,,,,,,,,0,7,7,7,0,6,6,6,,,,,,,,,,,,,,,,,,,2178.8139119159896,p,1.1821476249897387,2180.1307740409975,,,,,,272710,B,2024-12-14_12h41.06.939,EPIDM,2023.1.2,None,
6550.jpg,9582.jpg,5 Points,5 Points,445 points,PS2_L8.csv,,,,,,,,,,,,,,,,,,,,,,,,,,,,,0,7,7,7,0,7,7,7,,,,,,,,,,,,,,,,,,,2184.299976582988,q,1.0724872080027126,2185.484014165995,,,,,,272710,B,2024-12-14_12h41.06.939,EPIDM,2023.1.2,None,
8040.jpg,7185.jpg,1 Point,1 Point,446 points,PS2_L8.csv,,,,,,,,,,,,,,,,,,,,,,,,,,,,,0,7,7,7,0,8,8,8,,,,,,,,,,,,,,,,,,,2189.6934748749773,q,1.5345871669996995,2191.3078614579863,,,,,,272710,B,2024-12-14_12h41.06.939,EPIDM,2023.1.2,None,
P233.jpg,3060.jpg,1 Point,1 Point,447 points,PS2_L8.csv,,,,,,,,,,,,,,,,,,,,,,,,,,,,,0,7,7,7,0,9,9,9,,,,,,,,,,,,,,,,,,,2195.548217499978,p,1.7518716249905992,2197.407965999999,,,,,,272710,B,2024-12-14_12h41.06.939,EPIDM,2023.1.2,None,
1090.jpg,P217.jpg,5 Points,5 Points,452 points,PS2_L8.csv,,,,,,,,,,,,,,,,,,,,,,,,,,,,,0,7,7,7,0,10,10,10,,,,,,,,,,,,,,,,,,,2201.6095920410007,q,1.9300085839931853,2203.6490227499744,,,,,,272710,B,2024-12-14_12h41.06.939,EPIDM,2023.1.2,None,
9405.jpg,6250.2.jpg,3 Points,3 Points,455 points,PS2_L8.csv,,,,,,,,,,,,,,,,,,,,,,,,,,,,,0,7,7,7,0,11,11,11,,,,,,,,,,,,,,,,,,,2207.843170124979,q,1.0809747920138761,2209.023900332977,,,,,,272710,B,2024-12-14_12h41.06.939,EPIDM,2023.1.2,None,
1610.jpg,F203.jpg,0 Points,0 Points,455 points,PS2_L8.csv,,,,,,,,,,,,,,,,,,,,,,,,,,,,,0,7,7,7,0,12,12,12,,,,,,,,,,,,,,,,,,,2213.246227457974,p,1.6054600829957053,2214.961599540984,,,,,,272710,B,2024-12-14_12h41.06.939,EPIDM,2023.1.2,None,
P222.jpg,9401.jpg,2 Points,2 Points,457 points,PS2_L8.csv,,,,,,,,,,,,,,,,,,,,,,,,,,,,,0,7,7,7,0,13,13,13,,,,,,,,,,,,,,,,,,,2219.15853770799,q,1.3488185419992078,2220.6469395409804,2,1.3281848749902565,,,,272710,B,2024-12-14_12h41.06.939,EPIDM,2023.1.2,None,
5471.jpg,7352.jpg,2 Points,2 Points,459 points,PS2_L8.csv,,,,,,,,,,,,,,,,,,,,,,,,,,,,,0,7,7,7,0,14,14,14,,,,,,,,,,,,,,,,,,,2226.2553837499872,q,1.4377259589964524,2227.7645714999817,,,,,,272710,B,2024-12-14_12h41.06.939,EPIDM,2023.1.2,None,
9042.jpg,2753.jpg,0 Points,0 Points,459 points,PS2_L8.csv,,,,,,,,,,,,,,,,,,,,,,,,,,,,,0,7,7,7,0,15,15,15,,,,,,,,,,,,,,,,,,,2231.9985447079816,p,1.9808617920207325,2234.045825457986,,,,,,272710,B,2024-12-14_12h41.06.939,EPIDM,2023.1.2,None,
8311.jpg,4609.jpg,2 Points,2 Points,461 points,PS2_L8.csv,,,,,,,,,,,,,,,,,,,,,,,,,,,,,0,7,7,7,0,16,16,16,,,,,,,,,,,,,,,,,,,2238.295655957976,p,1.202273792005144,2239.567313165986,,,,,,272710,B,2024-12-14_12h41.06.939,EPIDM,2023.1.2,None,
2320.jpg,2791.jpg,4 Points,4 Points,465 points,PS2_L8.csv,,,,,,,,,,,,,,,,,,,,,,,,,,,,,0,7,7,7,0,17,17,17,,,,,,,,,,,,,,,,,,,2243.8150573749735,p,2.012191832996905,2245.886135332985,,,,,,272710,B,2024-12-14_12h41.06.939,EPIDM,2023.1.2,None,
F365.jpg,3180.jpg,5 Points,5 Points,470 points,PS2_L8.csv,,,,,,,,,,,,,,,,,,,,,,,,,,,,,0,7,7,7,0,18,18,18,,,,,,,,,,,,,,,,,,,2250.1443234999897,p,1.2747244159982074,2251.514618040994,,,,,,272710,B,2024-12-14_12h41.06.939,EPIDM,2023.1.2,None,
9300.jpg,1050.jpg,4 Points,4 Points,474 points,PS2_L8.csv,,,,,,,,,,,,,,,,,,,,,,,,,,,,,0,7,7,7,0,19,19,19,,,,,,,,,,,,,,,,,,,2255.726638458,p,1.1716469160164706,2256.994492082973,,,,,,272710,B,2024-12-14_12h41.06.939,EPIDM,2023.1.2,None,
6150.jpg,2206.jpg,0 Points,0 Points,474 points,PS2_L8.csv,,,,,,,,,,,,,,,,,,,,,,,,,,,,,0,7,7,7,0,20,20,20,,,,,,,,,,,,,,,,,,,2261.2112578749948,q,1.6151573749957606,2262.9043789159914,,,,,,272710,B,2024-12-14_12h41.06.939,EPIDM,2023.1.2,None,
6260.jpg,3062.jpg,3 Points,3 Points,477 points,PS2_L8.csv,,,,,,,,,,,,,,,,,,,,,,,,,,,,,0,7,7,7,0,21,21,21,,,,,,,,,,,,,,,,,,,2267.137351207988,p,1.0173953750054352,2268.2255461249733,,,,,,272710,B,2024-12-14_12h41.06.939,EPIDM,2023.1.2,None,
6571.jpg,P237.jpg,2 Points,2 Points,479 points,PS2_L8.csv,,,,,,,,,,,,,,,,,,,,,,,,,,,,,0,7,7,7,0,22,22,22,,,,,,,,,,,,,,,,,,,2272.4581142909883,p,1.9279515410016757,2274.491993624979,,,,,,272710,B,2024-12-14_12h41.06.939,EPIDM,2023.1.2,None,
7283.jpg,1720.jpg,4 Points,4 Points,483 points,PS2_L8.csv,,,,,,,,,,,,,,,,,,,,,,,,,,,,,0,7,7,7,0,23,23,23,,,,,,,,,,,,,,,,,,,2278.694525290979,q,1.4673865420045331,2280.2767967499967,,,2290.698089915997,space,1.5273592500016093,272710,B,2024-12-14_12h41.06.939,EPIDM,2023.1.2,None,
3160.jpg,6210.jpg,1 Point,1 Point,484 points,PS2_L9.csv,,,,,,,,,,,,,,,,,,,,,,,,,,,,,0,8,8,8,0,0,0,0,,,,,,,,,,,,,,,,,,,2295.5439438749745,q,1.12236712500453,2296.7499019999814,,,,,,272710,B,2024-12-14_12h41.06.939,EPIDM,2023.1.2,None,
2100.jpg,7205.jpg,5 Points,5 Points,489 points,PS2_L9.csv,,,,,,,,,,,,,,,,,,,,,,,,,,,,,0,8,8,8,0,1,1,1,,,,,,,,,,,,,,,,,,,2300.9841508329846,p,1.0100553750235122,2302.0646259999776,5,1.3160748340014834,,,,272710,B,2024-12-14_12h41.06.939,EPIDM,2023.1.2,None,
9110.jpg,3051.jpg,1 Point,1 Point,490 points,PS2_L9.csv,,,,,,,,,,,,,,,,,,,,,,,,,,,,,0,8,8,8,0,2,2,2,,,,,,,,,,,,,,,,,,,2307.7007676249777,p,1.1015389580279589,2308.874268707994,,,,,,272710,B,2024-12-14_12h41.06.939,EPIDM,2023.1.2,None,
9101.jpg,9571.jpg,2 Points,2 Points,492 points,PS2_L9.csv,,,,,,,,,,,,,,,,,,,,,,,,,,,,,0,8,8,8,0,3,3,3,,,,,,,,,,,,,,,,,,,2313.106751457992,q,1.686191625020001,2314.8692710829782,,,,,,272710,B,2024-12-14_12h41.06.939,EPIDM,2023.1.2,None,
5410.jpg,1450.jpg,5 Points,5 Points,497 points,PS2_L9.csv,,,,,,,,,,,,,,,,,,,,,,,,,,,,,0,8,8,8,0,4,4,4,,,,,,,,,,,,,,,,,,,2319.105689915974,p,1.0309608750103507,2320.2034536659776,,,,,,272710,B,2024-12-14_12h41.06.939,EPIDM,2023.1.2,None,
F149.jpg,3030.jpg,0 Points,0 Points,497 points,PS2_L9.csv,,,,,,,,,,,,,,,,,,,,,,,,,,,,,0,8,8,8,0,5,5,5,,,,,,,,,,,,,,,,,,,2324.4476497499854,q,1.4259691670013126,2325.9780956659815,,,,,,272710,B,2024-12-14_12h41.06.939,EPIDM,2023.1.2,None,
3266.jpg,7360.jpg,1 Point,1 Point,498 points,PS2_L9.csv,,,,,,,,,,,,,,,,,,,,,,,,,,,,,0,8,8,8,0,6,6,6,,,,,,,,,,,,,,,,,,,2330.182568582997,p,1.1781342919857707,2331.4811877909815,,,,,,272710,B,2024-12-14_12h41.06.939,EPIDM,2023.1.2,None,
5660.jpg,5201.jpg,0 Points,0 Points,498 points,PS2_L9.csv,,,,,,,,,,,,,,,,,,,,,,,,,,,,,0,8,8,8,0,7,7,7,,,,,,,,,,,,,,,,,,,2335.680245374999,q,0.6396237500011921,2336.3990539579827,,,,,,272710,B,2024-12-14_12h41.06.939,EPIDM,2023.1.2,None,
1945.jpg,2800.jpg,4 Points,4 Points,502 points,PS2_L9.csv,,,,,,,,,,,,,,,,,,,,,,,,,,,,,0,8,8,8,0,8,8,8,,,,,,,,,,,,,,,,,,,2340.6295790000004,q,3.043275125004584,2343.744611207978,,,,,,272710,B,2024-12-14_12h41.06.939,EPIDM,2023.1.2,None,
3000.jpg,6200.jpg,5 Points,5 Points,507 points,PS2_L9.csv,,,,,,,,,,,,,,,,,,,,,,,,,,,,,0,8,8,8,0,9,9,9,,,,,,,,,,,,,,,,,,,2347.9855881249823,p,0.9108268749841955,2348.9777243749995,,,,,,272710,B,2024-12-14_12h41.06.939,EPIDM,2023.1.2,None,
2215.jpg,2512.jpg,1 Point,1 Point,508 points,PS2_L9.csv,,,,,,,,,,,,,,,,,,,,,,,,,,,,,0,8,8,8,0,10,10,10,,,,,,,,,,,,,,,,,,,2353.2062642079836,p,1.2982321669987869,2354.568638915982,,,,,,272710,B,2024-12-14_12h41.06.939,EPIDM,2023.1.2,None,
5460.jpg,5800.jpg,0 Points,0 Points,508 points,PS2_L9.csv,,,,,,,,,,,,,,,,,,,,,,,,,,,,,0,8,8,8,0,11,11,11,,,,,,,,,,,,,,,,,,,2358.812859207974,p,1.5236341660202015,2360.411712415982,,,,,,272710,B,2024-12-14_12h41.06.939,EPIDM,2023.1.2,None,
3061.jpg,2717.jpg,4 Points,4 Points,512 points,PS2_L9.csv,,,,,,,,,,,,,,,,,,,,,,,,,,,,,0,8,8,8,0,12,12,12,,,,,,,,,,,,,,,,,,,2364.6486961249902,p,1.495383916015271,2366.2118165409775,,,,,,272710,B,2024-12-14_12h41.06.939,EPIDM,2023.1.2,None,
7380.jpg,1220.jpg,1 Point,1 Point,513 points,PS2_L9.csv,,,,,,,,,,,,,,,,,,,,,,,,,,,,,0,8,8,8,0,13,13,13,,,,,,,,,,,,,,,,,,,2370.4516029160004,p,1.8442691250238568,2372.3608349999995,1,1.218438417010475,,,,272710,B,2024-12-14_12h41.06.939,EPIDM,2023.1.2,None,
1740.jpg,7480.jpg,0 Points,0 Points,513 points,PS2_L9.csv,,,,,,,,,,,,,,,,,,,,,,,,,,,,,0,8,8,8,0,14,14,14,,,,,,,,,,,,,,,,,,,2377.8919828329817,q,1.1164955419953912,2379.08072816598,,,,,,272710,B,2024-12-14_12h41.06.939,EPIDM,2023.1.2,None,
7285.jpg,4233.jpg,5 Points,5 Points,518 points,PS2_L9.csv,,,,,,,,,,,,,,,,,,,,,,,,,,,,,0,8,8,8,0,15,15,15,,,,,,,,,,,,,,,,,,,2383.326350624993,p,1.1629685419902671,2384.5571721249726,,,,,,272710,B,2024-12-14_12h41.06.939,EPIDM,2023.1.2,None,
6830.jpg,6212.jpg,4 Points,4 Points,522 points,PS2_L9.csv,,,,,,,,,,,,,,,,,,,,,,,,,,,,,0,8,8,8,0,16,16,16,,,,,,,,,,,,,,,,,,,2388.7951168329746,p,1.549173665989656,2390.4182556249725,,,,,,272710,B,2024-12-14_12h41.06.939,EPIDM,2023.1.2,None,
7830.jpg,2499.jpg,3 Points,3 Points,525 points,PS2_L9.csv,,,,,,,,,,,,,,,,,,,,,,,,,,,,,0,8,8,8,0,17,17,17,,,,,,,,,,,,,,,,,,,2394.665642832988,q,1.1974637920211535,2395.9383732079878,,,,,,272710,B,2024-12-14_12h41.06.939,EPIDM,2023.1.2,None,
9520.jpg,1931.jpg,3 Points,3 Points,528 points,PS2_L9.csv,,,,,,,,,,,,,,,,,,,,,,,,,,,,,0,8,8,8,0,18,18,18,,,,,,,,,,,,,,,,,,,2400.1782364999817,q,1.7972532089916058,2402.0284839159867,,,,,,272710,B,2024-12-14_12h41.06.939,EPIDM,2023.1.2,None,
9160.jpg,1200.jpg,4 Points,4 Points,532 points,PS2_L9.csv,,,,,,,,,,,,,,,,,,,,,,,,,,,,,0,8,8,8,0,19,19,19,,,,,,,,,,,,,,,,,,,2406.278609207977,p,0.6239382080093492,2406.9838515409792,,,,,,272710,B,2024-12-14_12h41.06.939,EPIDM,2023.1.2,None,
2020.jpg,1947.jpg,5 Points,5 Points,537 points,PS2_L9.csv,,,,,,,,,,,,,,,,,,,,,,,,,,,,,0,8,8,8,0,20,20,20,,,,,,,,,,,,,,,,,,,2411.2174332499853,p,1.6369469999917783,2412.931011415989,,,,,,272710,B,2024-12-14_12h41.06.939,EPIDM,2023.1.2,None,
4535.jpg,1811.jpg,1 Point,1 Point,538 points,PS2_L9.csv,,,,,,,,,,,,,,,,,,,,,,,,,,,,,0,8,8,8,0,21,21,21,,,,,,,,,,,,,,,,,,,2417.17757208299,p,1.5968871670193039,2418.85607041599,,,,,,272710,B,2024-12-14_12h41.06.939,EPIDM,2023.1.2,None,
9910.jpg,6940.jpg,2 Points,2 Points,540 points,PS2_L9.csv,,,,,,,,,,,,,,,,,,,,,,,,,,,,,0,8,8,8,0,22,22,22,,,,,,,,,,,,,,,,,,,2423.088532499998,q,1.7259044579986949,2424.8883492079913,,,,,,272710,B,2024-12-14_12h41.06.939,EPIDM,2023.1.2,None,
9480.jpg,9250.jpg,0 Points,0 Points,540 points,PS2_L9.csv,,,,,,,,,,,,,,,,,,,,,,,,,,,,,0,8,8,8,0,23,23,23,,,,,,,,,,,,,,,,,,,2429.1310139579873,p,1.0995346670097206,2430.2911558329943,,,2440.7791064579797,space,1.0600620830082335,272710,B,2024-12-14_12h41.06.939,EPIDM,2023.1.2,None,
1660.jpg,2840.jpg,2 Points,2 Points,542 points,PS2_L10.csv,,,,,,,,,,,,,,,,,,,,,,,,,,,,,0,9,9,9,0,0,0,0,,,,,,,,,,,,,,,,,,,2445.1650138330006,q,1.2971214580175001,2446.538081082981,,,,,,272710,B,2024-12-14_12h41.06.939,EPIDM,2023.1.2,None,
2691.jpg,7640.jpg,0 Points,0 Points,542 points,PS2_L10.csv,,,,,,,,,,,,,,,,,,,,,,,,,,,,,0,9,9,9,0,1,1,1,,,,,,,,,,,,,,,,,,,2450.7881075409823,p,1.5864124590007123,2452.4379951249866,0,1.211255541013088,,,,272710,B,2024-12-14_12h41.06.939,EPIDM,2023.1.2,None,
9180.jpg,9046.jpg,3 Points,3 Points,545 points,PS2_L10.csv,,,,,,,,,,,,,,,,,,,,,,,,,,,,,0,9,9,9,0,2,2,2,,,,,,,,,,,,,,,,,,,2457.946617165988,p,1.6592463330016471,2459.673340999987,,,,,,272710,B,2024-12-14_12h41.06.939,EPIDM,2023.1.2,None,
8041.jpg,2271.jpg,2 Points,2 Points,547 points,PS2_L10.csv,,,,,,,,,,,,,,,,,,,,,,,,,,,,,0,9,9,9,0,3,3,3,,,,,,,,,,,,,,,,,,,2463.9231778749963,p,1.010858833004022,2464.9926278329804,,,,,,272710,B,2024-12-14_12h41.06.939,EPIDM,2023.1.2,None,
1661.jpg,1321.jpg,3 Points,3 Points,550 points,PS2_L10.csv,,,,,,,,,,,,,,,,,,,,,,,,,,,,,0,9,9,9,0,4,4,4,,,,,,,,,,,,,,,,,,,2469.23955179099,q,0.910762290994171,2470.211609540973,,,,,,272710,B,2024-12-14_12h41.06.939,EPIDM,2023.1.2,None,
9430.jpg,3010.jpg,5 Points,5 Points,555 points,PS2_L10.csv,,,,,,,,,,,,,,,,,,,,,,,,,,,,,0,9,9,9,0,5,5,5,,,,,,,,,,,,,,,,,,,2474.4597317499865,p,1.530224874994019,2476.0472237909853,,,,,,272710,B,2024-12-14_12h41.06.939,EPIDM,2023.1.2,None,
2616.jpg,7238.jpg,4 Points,4 Points,559 points,PS2_L10.csv,,,,,,,,,,,,,,,,,,,,,,,,,,,,,0,9,9,9,0,6,6,6,,,,,,,,,,,,,,,,,,,2480.3056901659875,p,1.4834389580064453,2481.8505584159866,,,,,,272710,B,2024-12-14_12h41.06.939,EPIDM,2023.1.2,None,
9470.jpg,9400.jpg,3 Points,3 Points,562 points,PS2_L10.csv,,,,,,,,,,,,,,,,,,,,,,,,,,,,,0,9,9,9,0,7,7,7,,,,,,,,,,,,,,,,,,,2486.0890968329913,p,1.276118542009499,2487.42205491598,,,,,,272710,B,2024-12-14_12h41.06.939,EPIDM,2023.1.2,None,
8260.jpg,8280.jpg,3 Points,3 Points,565 points,PS2_L10.csv,,,,,,,,,,,,,,,,,,,,,,,,,,,,,0,9,9,9,0,8,8,8,,,,,,,,,,,,,,,,,,,2491.6894296249957,q,1.699087499990128,2493.452262499981,,,,,,272710,B,2024-12-14_12h41.06.939,EPIDM,2023.1.2,None,
9230.jpg,9181.jpg,0 Points,0 Points,565 points,PS2_L10.csv,,,,,,,,,,,,,,,,,,,,,,,,,,,,,0,9,9,9,0,9,9,9,,,,,,,,,,,,,,,,,,,2497.7004734159855,p,1.6078786670113914,2499.384824457986,,,,,,272710,B,2024-12-14_12h41.06.939,EPIDM,2023.1.2,None,
6834.jpg,9120.jpg,5 Points,5 Points,570 points,PS2_L10.csv,,,,,,,,,,,,,,,,,,,,,,,,,,,,,0,9,9,9,0,10,10,10,,,,,,,,,,,,,,,,,,,2503.630747874995,p,1.8455245840013959,2505.532553957979,,,,,,272710,B,2024-12-14_12h41.06.939,EPIDM,2023.1.2,None,
2440.jpg,7351.jpg,4 Points,4 Points,574 points,PS2_L10.csv,,,,,,,,,,,,,,,,,,,,,,,,,,,,,0,9,9,9,0,11,11,11,,,,,,,,,,,,,,,,,,,2509.7849393749784,p,1.555512999999337,2511.4124379159766,,,,,,272710,B,2024-12-14_12h41.06.939,EPIDM,2023.1.2,None,
9280.jpg,9390.jpg,1 Point,1 Point,575 points,PS2_L10.csv,,,,,,,,,,,,,,,,,,,,,,,,,,,,,0,9,9,9,0,12,12,12,,,,,,,,,,,,,,,,,,,2515.648428540997,q,1.7325388330209535,2517.4629026659823,,,,,,272710,B,2024-12-14_12h41.06.939,EPIDM,2023.1.2,None,
7186.jpg,9182.jpg,2 Points,2 Points,577 points,PS2_L10.csv,,,,,,,,,,,,,,,,,,,,,,,,,,,,,0,9,9,9,0,13,13,13,,,,,,,,,,,,,,,,,,,2521.705211207998,q,1.3158521250006743,2523.0979972079804,2,1.2107709579868242,,,,272710,B,2024-12-14_12h41.06.939,EPIDM,2023.1.2,None,
7820.jpg,1121.jpg,0 Points,0 Points,577 points,PS2_L10.csv,,,,,,,,,,,,,,,,,,,,,,,,,,,,,0,9,9,9,0,14,14,14,,,,,,,,,,,,,,,,,,,2528.622012374981,q,0.9579942080017645,2529.651287457993,,,,,,272710,B,2024-12-14_12h41.06.939,EPIDM,2023.1.2,None,
1110.jpg,9331.jpg,2 Points,2 Points,579 points,PS2_L10.csv,,,,,,,,,,,,,,,,,,,,,,,,,,,,,0,9,9,9,0,15,15,15,,,,,,,,,,,,,,,,,,,2533.885943374975,q,2.022615791996941,2535.981563374982,,,,,,272710,B,2024-12-14_12h41.06.939,EPIDM,2023.1.2,None,
9001.jpg,9620.jpg,1 Point,1 Point,580 points,PS2_L10.csv,,,,,,,,,,,,,,,,,,,,,,,,,,,,,0,9,9,9,0,16,16,16,,,,,,,,,,,,,,,,,,,2540.2168591249792,q,1.4347799999814015,2541.7248926659813,,,,,,272710,B,2024-12-14_12h41.06.939,EPIDM,2023.1.2,None,
5535.jpg,8210.jpg,3 Points,3 Points,583 points,PS2_L10.csv,,,,,,,,,,,,,,,,,,,,,,,,,,,,,0,9,9,9,0,17,17,17,,,,,,,,,,,,,,,,,,,2545.963894165994,p,1.1357524590275716,2547.1771790829953,,,,,,272710,B,2024-12-14_12h41.06.939,EPIDM,2023.1.2,None,
7950.jpg,7187.jpg,1 Point,1 Point,584 points,PS2_L10.csv,,,,,,,,,,,,,,,,,,,,,,,,,,,,,0,9,9,9,0,18,18,18,,,,,,,,,,,,,,,,,,,2551.407725790981,p,0.972430333000375,2552.440594499989,,,,,,272710,B,2024-12-14_12h41.06.939,EPIDM,2023.1.2,None,
3250.jpg,A053.jpg,3 Points,3 Points,587 points,PS2_L10.csv,,,,,,,,,,,,,,,,,,,,,,,,,,,,,0,9,9,9,0,19,19,19,,,,,,,,,,,,,,,,,,,2556.6849285409844,p,1.446502375009004,2558.237363540975,,,,,,272710,B,2024-12-14_12h41.06.939,EPIDM,2023.1.2,None,
2205.jpg,3053.jpg,4 Points,4 Points,591 points,PS2_L10.csv,,,,,,,,,,,,,,,,,,,,,,,,,,,,,0,9,9,9,0,20,20,20,,,,,,,,,,,,,,,,,,,2562.4476307909936,q,1.4281467500259168,2563.9840354159824,,,,,,272710,B,2024-12-14_12h41.06.939,EPIDM,2023.1.2,None,
5594.jpg,5750.jpg,5 Points,5 Points,596 points,PS2_L10.csv,,,,,,,,,,,,,,,,,,,,,,,,,,,,,0,9,9,9,0,21,21,21,,,,,,,,,,,,,,,,,,,2568.1939275829936,q,0.8739632500219159,2569.1385882499744,,,,,,272710,B,2024-12-14_12h41.06.939,EPIDM,2023.1.2,None,
6900.jpg,8531.jpg,4 Points,4 Points,600 points,PS2_L10.csv,,,,,,,,,,,,,,,,,,,,,,,,,,,,,0,9,9,9,0,22,22,22,,,,,,,,,,,,,,,,,,,2573.377236582979,q,0.985539167013485,2574.433977040986,,,,,,272710,B,2024-12-14_12h41.06.939,EPIDM,2023.1.2,None,
1019.jpg,2120.jpg,0 Points,0 Points,600 points,PS2_L10.csv,,,,,,,,,,,,,,,,,,,,,,,,,,,,,0,9,9,9,0,23,23,23,,,,,,,,,,,,,,,,,,,2578.6707036249863,p,1.8050661670276895,2580.5526680829935,,,2591.038461624994,space,1.8359423750080168,272710,B,2024-12-14_12h41.06.939,EPIDM,2023.1.2,None,
