L_Scene,R_Scene,Points_L,Points_R,PtTotal,blockFile,Instructions_Loop.thisRepN,Instructions_Loop.thisTrialN,Instructions_Loop.thisN,Instructions_Loop.thisIndex,Redo_Instructions_Loop.thisRepN,Redo_Instructions_Loop.thisTrialN,Redo_Instructions_Loop.thisN,Redo_Instructions_Loop.thisIndex,Practice_Encoding_Loop.thisRepN,Practice_Encoding_Loop.thisTrialN,Practice_Encoding_Loop.thisN,Practice_Encoding_Loop.thisIndex,Practice_Response_Fail_Loop.thisRepN,Practice_Response_Fail_Loop.thisTrialN,Practice_Response_Fail_Loop.thisN,Practice_Response_Fail_Loop.thisIndex,Practice_FB_Loop.thisRepN,Practice_FB_Loop.thisTrialN,Practice_FB_Loop.thisN,Practice_FB_Loop.thisIndex,Practice_Attention_Loop.thisRepN,Practice_Attention_Loop.thisTrialN,Practice_Attention_Loop.thisN,Practice_Attention_Loop.thisIndex,Practice_EncBrk_Loop.thisRepN,Practice_EncBrk_Loop.thisTrialN,Practice_EncBrk_Loop.thisN,Practice_EncBrk_Loop.thisIndex,Encoding_Loop.thisRepN,Encoding_Loop.thisTrialN,Encoding_Loop.thisN,Encoding_Loop.thisIndex,EncStim_Loop.thisRepN,EncStim_Loop.thisTrialN,EncStim_Loop.thisN,EncStim_Loop.thisIndex,Response_Fail_Loop.thisRepN,Response_Fail_Loop.thisTrialN,Response_Fail_Loop.thisN,Response_Fail_Loop.thisIndex,FB_Loop.thisRepN,FB_Loop.thisTrialN,FB_Loop.thisN,FB_Loop.thisIndex,Attention_Loop.thisRepN,Attention_Loop.thisTrialN,Attention_Loop.thisN,Attention_Loop.thisIndex,EncBrk_Loop.thisRepN,EncBrk_Loop.thisTrialN,EncBrk_Loop.thisN,EncBrk_Loop.thisIndex,Transition_Enc.keys,Transition_Enc.rt,Encoding_Resp.started,Encoding_Resp.keys,Encoding_Resp.rt,R_Point_FB_Stim.started,Attn_resp.keys,Attn_resp.rt,Progress_Tracker.started,EncBrk_Resp.keys,EncBrk_Resp.rt,participant,Group,date,expName,psychopyVersion,frameRate,
,,,,,,,,,,,,,,,,,,,,,,,,,,,,,,,,,,,,,,,,,,,,,,,,,,,,,,,,,,space,6.984693333011819,,,,,,,,,,272575,B,2024-12-14_14h35.50.529,EPIDM,2023.1.2,None,
A060.jpg,F041.jpg,5 Points,5 Points,5 Points,,,,,,,,,,0,0,0,0,,,,,,,,,,,,,,,,,,,,,,,,,,,,,,,,,,,,,,,,,,,1952.5677307930018,p,2.7279302490060218,1955.4608461259922,,,,,,272575,B,2024-12-14_14h35.50.529,EPIDM,2023.1.2,None,
O161.jpg,1812.jpg,2 Points,2 Points,7 Points,,,,,,,,,,0,1,1,1,,,,,,,,,,,,,,,,,,,,,,,,,,,,,,,,,,,,,,,,,,,1959.6308085839846,q,1.9539897910144646,1961.7258133339928,,,,,,272575,B,2024-12-14_14h35.50.529,EPIDM,2023.1.2,None,
O013.jpg,A001.jpg,3 Points,3 Points,10 Points,,,,,,,,,,0,2,2,2,,,,,,,,,,,,,,,,,,,,,,,,,,,,,,,,,,,,,,,,,,,1965.9084338340035,q,1.4687313320173416,1967.5169690009789,,,,,,272575,B,2024-12-14_14h35.50.529,EPIDM,2023.1.2,None,
P036.jpg,F273.jpg,5 Points,5 Points,15 Points,,,,,,,,,,0,3,3,3,,,,,,,,,,,,,,,,,,,,,,,,,,,,,,,,,,,,,,,,,,,1971.6979069179797,q,2.0308689999801572,1973.8905605839973,,,,,,272575,B,2024-12-14_14h35.50.529,EPIDM,2023.1.2,None,
L130.jpg,2393.jpg,0 Points,0 Points,15 Points,,,,,,,,,,0,4,4,4,,,,,,,,,,,,,,,,,,,,,,,,,,,,,,,,,,,,,,,,,,,1978.0443529589975,p,1.4123540410073474,1979.597482792975,0,5.651908958010608,,,,272575,B,2024-12-14_14h35.50.529,EPIDM,2023.1.2,None,
F279.jpg,P033.jpg,3 Points,3 Points,18 Points,,,,,,,,,,0,5,5,5,,,,,,,,,,,,,,,,,,,,,,,,,,,,,,,,,,,,,,,,,,,1989.566242875997,p,2.3385173740098253,1992.0773060009815,,,,,,272575,B,2024-12-14_14h35.50.529,EPIDM,2023.1.2,None,
A104.jpg,2593.jpg,2 Points,2 Points,20 Points,,,,,,,,,,0,6,6,6,,,,,,,,,,,,,,,,,,,,,,,,,,,,,,,,,,,,,,,,,,,1996.221667083999,q,2.360942666011397,1998.7135834179935,,,,,,272575,B,2024-12-14_14h35.50.529,EPIDM,2023.1.2,None,
2598.jpg,2605.jpg,0 Points,0 Points,20 Points,,,,,,,,,,0,7,7,7,,,,,,,,,,,,,,,,,,,,,,,,,,,,,,,,,,,,,,,,,,,2002.8911095839867,p,2.0524679160153028,2005.051783125993,,,,,,272575,B,2024-12-14_14h35.50.529,EPIDM,2023.1.2,None,
L005.jpg,O011.jpg,1 Points,1 Points,21 Points,,,,,,,,,,0,8,8,8,,,,,,,,,,,,,,,,,,,,,,,,,,,,,,,,,,,,,,,,,,,2009.269617833983,p,1.82688712500385,2011.2834353759827,,,,,,272575,B,2024-12-14_14h35.50.529,EPIDM,2023.1.2,None,
8186.jpg,F078.jpg,2 Points,2 Points,23 Points,,,,,,,,,,0,9,9,9,,,,,,,,,,,,,,,,,,,,,,,,,,,,,,,,,,,,,,,,,,,2015.4574270009762,p,1.7659388330066577,2017.3641430429998,2,4.179504166007973,2031.7718394179828,space,4.260533707012655,272575,B,2024-12-14_14h35.50.529,EPIDM,2023.1.2,None,
,,,,,,,,,,,,,,,,,,,,,,,,,,,,,,,,,,,,,,,,,,,,,,,,,,,,,,,,,,space,4.953881457011448,,,,,,,,,,272575,B,2024-12-14_14h35.50.529,EPIDM,2023.1.2,None,
7284.jpg,8021.jpg,4 Points,4 Points,4 Points,PS2_L1.csv,,,,,,,,,,,,,,,,,,,,,,,,,,,,,0,0,0,0,0,0,0,0,,,,,,,,,,,,,,,,,,,2061.006602042995,q,2.7047548329865094,2063.8233854589926,,,,,,272575,B,2024-12-14_14h35.50.529,EPIDM,2023.1.2,None,
2214.jpg,4500.jpg,3 Points,3 Points,7 points,PS2_L1.csv,,,,,,,,,,,,,,,,,,,,,,,,,,,,,0,0,0,0,0,1,1,1,,,,,,,,,,,,,,,,,,,2068.0266920009744,p,1.8371982910030056,2069.938538167975,3,2.016791666013887,,,,272575,B,2024-12-14_14h35.50.529,EPIDM,2023.1.2,None,
1280.jpg,9402.jpg,2 Points,2 Points,9 points,PS2_L1.csv,,,,,,,,,,,,,,,,,,,,,,,,,,,,,0,0,0,0,0,2,2,2,,,,,,,,,,,,,,,,,,,2076.273348167975,p,2.0373070820060093,2078.376375333988,,,,,,272575,B,2024-12-14_14h35.50.529,EPIDM,2023.1.2,None,
1650.jpg,2130.jpg,1 Points,1 Points,10 points,PS2_L1.csv,,,,,,,,,,,,,,,,,,,,,,,,,,,,,0,0,0,0,0,3,3,3,,,,,,,,,,,,,,,,,,,2082.6268932509993,q,1.3162214160256553,2084.0089611259755,,,,,,272575,B,2024-12-14_14h35.50.529,EPIDM,2023.1.2,None,
2221.jpg,2270.jpg,2 Points,2 Points,12 points,PS2_L1.csv,,,,,,,,,,,,,,,,,,,,,,,,,,,,,0,0,0,0,0,4,4,4,,,,,,,,,,,,,,,,,,,2088.2632629589934,p,1.8715368320117705,2090.1989330840006,,,,,,272575,B,2024-12-14_14h35.50.529,EPIDM,2023.1.2,None,
9373.jpg,9410.jpg,0 Points,0 Points,12 points,PS2_L1.csv,,,,,,,,,,,,,,,,,,,,,,,,,,,,,0,0,0,0,0,5,5,5,,,,,,,,,,,,,,,,,,,2094.4429280839977,p,1.9634395830216818,2096.4726082089765,,,,,,272575,B,2024-12-14_14h35.50.529,EPIDM,2023.1.2,None,
4250.jpg,7060.jpg,5 Points,5 Points,17 points,PS2_L1.csv,,,,,,,,,,,,,,,,,,,,,,,,,,,,,0,0,0,0,0,6,6,6,,,,,,,,,,,,,,,,,,,2100.7230782929983,q,0.8756156660092529,2101.678191250976,,,,,,272575,B,2024-12-14_14h35.50.529,EPIDM,2023.1.2,None,
5130.jpg,1810.jpg,3 Points,3 Points,20 points,PS2_L1.csv,,,,,,,,,,,,,,,,,,,,,,,,,,,,,0,0,0,0,0,7,7,7,,,,,,,,,,,,,,,,,,,2105.9320837929845,p,1.1459451240079943,2107.160712875979,,,,,,272575,B,2024-12-14_14h35.50.529,EPIDM,2023.1.2,None,
6370.jpg,1270.jpg,4 Points,4 Points,24 points,PS2_L1.csv,,,,,,,,,,,,,,,,,,,,,,,,,,,,,0,0,0,0,0,8,8,8,,,,,,,,,,,,,,,,,,,2111.4021495429915,p,1.5801731240062509,2113.0750942089944,,,,,,272575,B,2024-12-14_14h35.50.529,EPIDM,2023.1.2,None,
5480.jpg,8200.jpg,4 Points,4 Points,28 points,PS2_L1.csv,,,,,,,,,,,,,,,,,,,,,,,,,,,,,0,0,0,0,0,9,9,9,,,,,,,,,,,,,,,,,,,2117.307593417994,q,0.7459589160280302,2118.1276407509868,,,,,,272575,B,2024-12-14_14h35.50.529,EPIDM,2023.1.2,None,
2520.jpg,8503.jpg,2 Points,2 Points,30 points,PS2_L1.csv,,,,,,,,,,,,,,,,,,,,,,,,,,,,,0,0,0,0,0,10,10,10,,,,,,,,,,,,,,,,,,,2122.3690195429954,p,0.6534996660193428,2123.092382083996,,,,,,272575,B,2024-12-14_14h35.50.529,EPIDM,2023.1.2,None,
5971.jpg,9912.jpg,5 Points,5 Points,35 points,PS2_L1.csv,,,,,,,,,,,,,,,,,,,,,,,,,,,,,0,0,0,0,0,11,11,11,,,,,,,,,,,,,,,,,,,2127.3286974589864,p,2.013189791003242,2129.4161348339985,,,,,,272575,B,2024-12-14_14h35.50.529,EPIDM,2023.1.2,None,
7195.jpg,2487.jpg,2 Points,2 Points,37 points,PS2_L1.csv,,,,,,,,,,,,,,,,,,,,,,,,,,,,,0,0,0,0,0,12,12,12,,,,,,,,,,,,,,,,,,,2133.662386543001,q,1.0469014580303337,2134.788925292989,,,,,,272575,B,2024-12-14_14h35.50.529,EPIDM,2023.1.2,None,
6840.jpg,3080.jpg,1 Points,1 Points,38 points,PS2_L1.csv,,,,,,,,,,,,,,,,,,,,,,,,,,,,,0,0,0,0,0,13,13,13,,,,,,,,,,,,,,,,,,,2139.0225210009958,p,1.799335249030264,2140.8952260429796,1,1.5414147909905296,,,,272575,B,2024-12-14_14h35.50.529,EPIDM,2023.1.2,None,
5510.jpg,2514.jpg,5 Points,5 Points,43 points,PS2_L1.csv,,,,,,,,,,,,,,,,,,,,,,,,,,,,,0,0,0,0,0,14,14,14,,,,,,,,,,,,,,,,,,,2146.7388571679767,p,2.073994540987769,2148.8813921260007,,,,,,272575,B,2024-12-14_14h35.50.529,EPIDM,2023.1.2,None,
7170.jpg,2170.jpg,2 Points,2 Points,45 points,PS2_L1.csv,,,,,,,,,,,,,,,,,,,,,,,,,,,,,0,0,0,0,0,15,15,15,,,,,,,,,,,,,,,,,,,2153.126428333984,q,1.2700384159979876,2154.472015167994,,,,,,272575,B,2024-12-14_14h35.50.529,EPIDM,2023.1.2,None,
6020.jpg,6300.jpg,2 Points,2 Points,47 points,PS2_L1.csv,,,,,,,,,,,,,,,,,,,,,,,,,,,,,0,0,0,0,0,16,16,16,,,,,,,,,,,,,,,,,,,2158.711495542986,p,1.4216967910178937,2160.1930297929794,,,,,,272575,B,2024-12-14_14h35.50.529,EPIDM,2023.1.2,None,
1942.jpg,2890.jpg,1 Points,1 Points,48 points,PS2_L1.csv,,,,,,,,,,,,,,,,,,,,,,,,,,,,,0,0,0,0,0,17,17,17,,,,,,,,,,,,,,,,,,,2164.4514209179906,p,1.9378637490153778,2166.447429500986,,,,,,272575,B,2024-12-14_14h35.50.529,EPIDM,2023.1.2,None,
6241.jpg,9561.jpg,3 Points,3 Points,51 points,PS2_L1.csv,,,,,,,,,,,,,,,,,,,,,,,,,,,,,0,0,0,0,0,18,18,18,,,,,,,,,,,,,,,,,,,2170.7116238339804,p,1.3569412489887327,2172.1462202509865,,,,,,272575,B,2024-12-14_14h35.50.529,EPIDM,2023.1.2,None,
4536.jpg,2280.jpg,4 Points,4 Points,55 points,PS2_L1.csv,,,,,,,,,,,,,,,,,,,,,,,,,,,,,0,0,0,0,0,19,19,19,,,,,,,,,,,,,,,,,,,2176.3979729589773,p,1.303277083003195,2177.787823333987,,,,,,272575,B,2024-12-14_14h35.50.529,EPIDM,2023.1.2,None,
6000.jpg,6836.jpg,4 Points,4 Points,59 points,PS2_L1.csv,,,,,,,,,,,,,,,,,,,,,,,,,,,,,0,0,0,0,0,20,20,20,,,,,,,,,,,,,,,,,,,2182.0319828339852,q,2.2126083740149625,2184.318181292998,,,,,,272575,B,2024-12-14_14h35.50.529,EPIDM,2023.1.2,None,
8232.jpg,4279.jpg,5 Points,5 Points,64 points,PS2_L1.csv,,,,,,,,,,,,,,,,,,,,,,,,,,,,,0,0,0,0,0,21,21,21,,,,,,,,,,,,,,,,,,,2188.56461237598,None,,,,,,,,272575,B,2024-12-14_14h35.50.529,EPIDM,2023.1.2,None,
2312.jpg,2722.jpg,1 Points,1 Points,65 points,PS2_L1.csv,,,,,,,,,,,,,,,,,,,,,,,,,,,,,0,0,0,0,0,22,22,22,,,,,,,,,,,,,,,,,,,2196.060769459,p,0.6643978740030434,2196.7945125009865,,,,,,272575,B,2024-12-14_14h35.50.529,EPIDM,2023.1.2,None,
2750.jpg,9050.jpg,4 Points,4 Points,69 points,PS2_L1.csv,,,,,,,,,,,,,,,,,,,,,,,,,,,,,0,0,0,0,0,23,23,23,,,,,,,,,,,,,,,,,,,2201.042293667997,q,0.4827910829917528,2201.5800493760034,,,2212.0553412929876,space,4.340973707992816,272575,B,2024-12-14_14h35.50.529,EPIDM,2023.1.2,None,
1113.jpg,1240.jpg,3 Points,3 Points,72 points,PS2_L2.csv,,,,,,,,,,,,,,,,,,,,,,,,,,,,,0,1,1,1,0,0,0,0,,,,,,,,,,,,,,,,,,,2219.708266375994,p,1.7200859160220716,2221.499276125978,,,,,,272575,B,2024-12-14_14h35.50.529,EPIDM,2023.1.2,None,
8220.jpg,2410.jpg,4 Points,4 Points,76 points,PS2_L2.csv,,,,,,,,,,,,,,,,,,,,,,,,,,,,,0,1,1,1,0,1,1,1,,,,,,,,,,,,,,,,,,,2225.740011083981,p,0.9381241250084713,2226.747667750984,4,1.6771669989975635,,,,272575,B,2024-12-14_14h35.50.529,EPIDM,2023.1.2,None,
4621.jpg,3550.jpg,2 Points,2 Points,78 points,PS2_L2.csv,,,,,,,,,,,,,,,,,,,,,,,,,,,,,0,1,1,1,0,2,2,2,,,,,,,,,,,,,,,,,,,2232.7369941259967,q,1.2747747490066104,2234.073080750997,,,,,,272575,B,2024-12-14_14h35.50.529,EPIDM,2023.1.2,None,
2751.jpg,6313.jpg,3 Points,3 Points,81 points,PS2_L2.csv,,,,,,,,,,,,,,,,,,,,,,,,,,,,,0,1,1,1,0,3,3,3,,,,,,,,,,,,,,,,,,,2238.334613833984,q,1.7018712489807513,2240.1010002089897,,,,,,272575,B,2024-12-14_14h35.50.529,EPIDM,2023.1.2,None,
4689.jpg,7009.jpg,5 Points,5 Points,86 points,PS2_L2.csv,,,,,,,,,,,,,,,,,,,,,,,,,,,,,0,1,1,1,0,4,4,4,,,,,,,,,,,,,,,,,,,2244.3611517509853,q,0.7225819580198731,2245.16489450098,,,,,,272575,B,2024-12-14_14h35.50.529,EPIDM,2023.1.2,None,
6831.jpg,2141.jpg,5 Points,5 Points,91 points,PS2_L2.csv,,,,,,,,,,,,,,,,,,,,,,,,,,,,,0,1,1,1,0,5,5,5,,,,,,,,,,,,,,,,,,,2249.41079712598,q,0.936576166015584,2250.415343834,,,,,,272575,B,2024-12-14_14h35.50.529,EPIDM,2023.1.2,None,
9417.jpg,6530.jpg,1 Point,1 Point,92 points,PS2_L2.csv,,,,,,,,,,,,,,,,,,,,,,,,,,,,,0,1,1,1,0,6,6,6,,,,,,,,,,,,,,,,,,,2254.6667839589936,q,1.216991458000848,2255.9576402090024,,,,,,272575,B,2024-12-14_14h35.50.529,EPIDM,2023.1.2,None,
7237.jpg,8510.jpg,4 Points,4 Points,96 points,PS2_L2.csv,,,,,,,,,,,,,,,,,,,,,,,,,,,,,0,1,1,1,0,7,7,7,,,,,,,,,,,,,,,,,,,2260.203644417983,q,1.6315828740189318,2261.9083075009985,,,,,,272575,B,2024-12-14_14h35.50.529,EPIDM,2023.1.2,None,
4608.jpg,8320.jpg,1 Point,1 Point,97 points,PS2_L2.csv,,,,,,,,,,,,,,,,,,,,,,,,,,,,,0,1,1,1,0,8,8,8,,,,,,,,,,,,,,,,,,,2266.1569577509945,p,0.9200439580017701,2267.151879668003,,,,,,272575,B,2024-12-14_14h35.50.529,EPIDM,2023.1.2,None,
9254.jpg,9290.jpg,2 Points,2 Points,99 points,PS2_L2.csv,,,,,,,,,,,,,,,,,,,,,,,,,,,,,0,1,1,1,0,9,9,9,,,,,,,,,,,,,,,,,,,2271.412614917994,q,0.8790191239968408,2272.3595957929792,,,,,,272575,B,2024-12-14_14h35.50.529,EPIDM,2023.1.2,None,
9530.jpg,9220.jpg,1 Point,1 Point,100 points,PS2_L2.csv,,,,,,,,,,,,,,,,,,,,,,,,,,,,,0,1,1,1,0,10,10,10,,,,,,,,,,,,,,,,,,,2276.6129185839964,q,0.8140014579985291,2277.4822698339995,,,,,,272575,B,2024-12-14_14h35.50.529,EPIDM,2023.1.2,None,
2092.jpg,2210.jpg,0 Points,0 Points,100 points,PS2_L2.csv,,,,,,,,,,,,,,,,,,,,,,,,,,,,,0,1,1,1,0,11,11,11,,,,,,,,,,,,,,,,,,,2281.739880000998,q,0.904760206991341,2282.7184856679814,,,,,,272575,B,2024-12-14_14h35.50.529,EPIDM,2023.1.2,None,
9500.jpg,6360.jpg,1 Point,1 Point,101 points,PS2_L2.csv,,,,,,,,,,,,,,,,,,,,,,,,,,,,,0,1,1,1,0,12,12,12,,,,,,,,,,,,,,,,,,,2286.9700295009825,p,0.9920409159967676,2288.0294755429786,,,,,,272575,B,2024-12-14_14h35.50.529,EPIDM,2023.1.2,None,
2220.jpg,2010.jpg,5 Points,5 Points,106 points,PS2_L2.csv,,,,,,,,,,,,,,,,,,,,,,,,,,,,,0,1,1,1,0,13,13,13,,,,,,,,,,,,,,,,,,,2292.2900084589783,p,1.1293792499927804,2293.4949520009977,5,1.5441316240176093,,,,272575,B,2024-12-14_14h35.50.529,EPIDM,2023.1.2,None,
5940.jpg,9411.jpg,0 Points,0 Points,106 points,PS2_L2.csv,,,,,,,,,,,,,,,,,,,,,,,,,,,,,0,1,1,1,0,14,14,14,,,,,,,,,,,,,,,,,,,2299.3623345840024,p,1.2156597079883795,2300.6562816679943,,,,,,272575,B,2024-12-14_14h35.50.529,EPIDM,2023.1.2,None,
4533.jpg,2385.jpg,3 Points,3 Points,109 points,PS2_L2.csv,,,,,,,,,,,,,,,,,,,,,,,,,,,,,0,1,1,1,0,15,15,15,,,,,,,,,,,,,,,,,,,2304.9025108759815,q,0.9404804990044795,2305.924406334001,,,,,,272575,B,2024-12-14_14h35.50.529,EPIDM,2023.1.2,None,
9340.jpg,6910.jpg,0 Points,0 Points,109 points,PS2_L2.csv,,,,,,,,,,,,,,,,,,,,,,,,,,,,,0,1,1,1,0,16,16,16,,,,,,,,,,,,,,,,,,,2310.1634224589798,q,1.1507469159842003,2311.385004668002,,,,,,272575,B,2024-12-14_14h35.50.529,EPIDM,2023.1.2,None,
8350.jpg,7190.jpg,5 Points,5 Points,114 points,PS2_L2.csv,,,,,,,,,,,,,,,,,,,,,,,,,,,,,0,1,1,1,0,17,17,17,,,,,,,,,,,,,,,,,,,2315.6226033339917,q,0.5244881240068935,2316.224705292989,,,,,,272575,B,2024-12-14_14h35.50.529,EPIDM,2023.1.2,None,
6211.jpg,9611.jpg,3 Points,3 Points,117 points ,PS2_L2.csv,,,,,,,,,,,,,,,,,,,,,,,,,,,,,0,1,1,1,0,18,18,18,,,,,,,,,,,,,,,,,,,2320.459460042999,p,0.9677720410109032,2321.4971090839827,,,,,,272575,B,2024-12-14_14h35.50.529,EPIDM,2023.1.2,None,
2053.jpg,9415.jpg,4 Points,4 Points,121 points,PS2_L2.csv,,,,,,,,,,,,,,,,,,,,,,,,,,,,,0,1,1,1,0,19,19,19,,,,,,,,,,,,,,,,,,,2325.7434386259993,p,0.7862722080026288,2326.5982115009974,,,,,,272575,B,2024-12-14_14h35.50.529,EPIDM,2023.1.2,None,
2110.jpg,7260.jpg,5 Points,5 Points,126 points,PS2_L2.csv,,,,,,,,,,,,,,,,,,,,,,,,,,,,,0,1,1,1,0,20,20,20,,,,,,,,,,,,,,,,,,,2330.8522935429937,q,1.0703146240266506,2331.9893284589925,,,,,,272575,B,2024-12-14_14h35.50.529,EPIDM,2023.1.2,None,
2030.jpg,2495.jpg,0 Points,0 Points,126 points,PS2_L2.csv,,,,,,,,,,,,,,,,,,,,,,,,,,,,,0,1,1,1,0,21,21,21,,,,,,,,,,,,,,,,,,,2336.2384075429873,q,1.1878176660102326,2337.5036500009883,,,,,,272575,B,2024-12-14_14h35.50.529,EPIDM,2023.1.2,None,
1302.jpg,2700.jpg,3 Points,3 Points,129 points,PS2_L2.csv,,,,,,,,,,,,,,,,,,,,,,,,,,,,,0,1,1,1,0,22,22,22,,,,,,,,,,,,,,,,,,,2341.745810792985,p,1.4401770000113174,2343.2595160429773,,,,,,272575,B,2024-12-14_14h35.50.529,EPIDM,2023.1.2,None,
9010.jpg,9253.jpg,0 Points,0 Points,129 points,PS2_L2.csv,,,,,,,,,,,,,,,,,,,,,,,,,,,,,0,1,1,1,0,23,23,23,,,,,,,,,,,,,,,,,,,2347.495203000988,q,0.9543641660129651,2348.5267036259756,,,2359.0189786679985,space,45.725045499013504,272575,B,2024-12-14_14h35.50.529,EPIDM,2023.1.2,None,
1303.jpg,2000.jpg,0 Points,0 Points,129 points,PS2_L3.csv,,,,,,,,,,,,,,,,,,,,,,,,,,,,,0,2,2,2,0,0,0,0,,,,,,,,,,,,,,,,,,,2408.0672594179923,p,0.9738486660062335,2409.127198750997,,,,,,272575,B,2024-12-14_14h35.50.529,EPIDM,2023.1.2,None,
2200.jpg,4598.jpg,1 Point,1 Point,130 points,PS2_L3.csv,,,,,,,,,,,,,,,,,,,,,,,,,,,,,0,2,2,2,0,1,1,1,,,,,,,,,,,,,,,,,,,2413.3718883759866,q,0.90300424900488,2414.346043708996,1,1.0947583329980262,,,,272575,B,2024-12-14_14h35.50.529,EPIDM,2023.1.2,None,
6190.jpg,3120.jpg,5 Points,5 Points,135 points,PS2_L3.csv,,,,,,,,,,,,,,,,,,,,,,,,,,,,,0,2,2,2,0,2,2,2,,,,,,,,,,,,,,,,,,,2419.7522032510024,q,0.8236587490246166,2420.6581910429813,,,,,,272575,B,2024-12-14_14h35.50.529,EPIDM,2023.1.2,None,
2570.jpg,5500.jpg,3 Points,3 Points,138 points,PS2_L3.csv,,,,,,,,,,,,,,,,,,,,,,,,,,,,,0,2,2,2,0,3,3,3,,,,,,,,,,,,,,,,,,,2424.8998941679893,p,0.932532083010301,2425.9113905839913,,,,,,272575,B,2024-12-14_14h35.50.529,EPIDM,2023.1.2,None,
8460.jpg,8330.jpg,0 Points,0 Points,138 points,PS2_L3.csv,,,,,,,,,,,,,,,,,,,,,,,,,,,,,0,2,2,2,0,4,4,4,,,,,,,,,,,,,,,,,,,2430.1549724179786,q,0.6285636239917949,2430.8550635429856,,,,,,272575,B,2024-12-14_14h35.50.529,EPIDM,2023.1.2,None,
9320.jpg,9007.jpg,0 Points,0 Points,138 points,PS2_L3.csv,,,,,,,,,,,,,,,,,,,,,,,,,,,,,0,2,2,2,0,5,5,5,,,,,,,,,,,,,,,,,,,2435.1040198339906,p,1.239551748993108,2436.4159380839847,,,,,,272575,B,2024-12-14_14h35.50.529,EPIDM,2023.1.2,None,
2650.jpg,4531.jpg,5 Points,5 Points,143 points,PS2_L3.csv,,,,,,,,,,,,,,,,,,,,,,,,,,,,,0,2,2,2,0,6,6,6,,,,,,,,,,,,,,,,,,,2440.6730351680017,q,0.7113535829994362,2441.468741000979,,,,,,272575,B,2024-12-14_14h35.50.529,EPIDM,2023.1.2,None,
4100.jpg,6570.2.jpg,3 Points,3 Points,146 points,PS2_L3.csv,,,,,,,,,,,,,,,,,,,,,,,,,,,,,0,2,2,2,0,7,7,7,,,,,,,,,,,,,,,,,,,2445.7096849179943,p,1.8183411660138518,2447.6001239589823,,,,,,272575,B,2024-12-14_14h35.50.529,EPIDM,2023.1.2,None,
3102.jpg,F032.jpg,1 Point,1 Point,147 points,PS2_L3.csv,,,,,,,,,,,,,,,,,,,,,,,,,,,,,0,2,2,2,0,8,8,8,,,,,,,,,,,,,,,,,,,2451.843109042995,p,0.8768282080127392,2452.8426065429812,,,,,,272575,B,2024-12-14_14h35.50.529,EPIDM,2023.1.2,None,
2240.jpg,5010.jpg,5 Points,5 Points,152 points,PS2_L3.csv,,,,,,,,,,,,,,,,,,,,,,,,,,,,,0,2,2,2,0,9,9,9,,,,,,,,,,,,,,,,,,,2457.0392219179776,q,0.6802466660155915,2457.840213583986,,,,,,272575,B,2024-12-14_14h35.50.529,EPIDM,2023.1.2,None,
4605.jpg,1510.jpg,4 Points,4 Points,156 points,PS2_L3.csv,,,,,,,,,,,,,,,,,,,,,,,,,,,,,0,2,2,2,0,10,10,10,,,,,,,,,,,,,,,,,,,2462.0492641679884,p,1.2376404580136295,2463.357479083992,,,,,,272575,B,2024-12-14_14h35.50.529,EPIDM,2023.1.2,None,
9490.jpg,9210.jpg,1 Point,1 Point,157 points,PS2_L3.csv,,,,,,,,,,,,,,,,,,,,,,,,,,,,,0,2,2,2,0,11,11,11,,,,,,,,,,,,,,,,,,,2467.609190083982,p,0.8775115410098806,2468.554335000983,,,,,,272575,B,2024-12-14_14h35.50.529,EPIDM,2023.1.2,None,
6821.jpg,9622.jpg,2 Points,2 Points,159 points,PS2_L3.csv,,,,,,,,,,,,,,,,,,,,,,,,,,,,,0,2,2,2,0,12,12,12,,,,,,,,,,,,,,,,,,,2472.812564625987,q,1.2268199160171207,2474.1116547929996,,,,,,272575,B,2024-12-14_14h35.50.529,EPIDM,2023.1.2,None,
2681.jpg,7100.jpg,3 Points,3 Points,162 points,PS2_L3.csv,,,,,,,,,,,,,,,,,,,,,,,,,,,,,0,2,2,2,0,13,13,13,,,,,,,,,,,,,,,,,,,2478.3683068339888,q,0.7909004160028417,2479.2203320429835,3,1.6029983750195242,,,,272575,B,2024-12-14_14h35.50.529,EPIDM,2023.1.2,None,
5622.jpg,9156.jpg,4 Points,4 Points,166 points,PS2_L3.csv,,,,,,,,,,,,,,,,,,,,,,,,,,,,,0,2,2,2,0,14,14,14,,,,,,,,,,,,,,,,,,,2485.153624833998,q,1.0287112910300493,2486.2607975429855,,,,,,272575,B,2024-12-14_14h35.50.529,EPIDM,2023.1.2,None,
1111.jpg,1040.jpg,0 Points,0 Points,166 points,PS2_L3.csv,,,,,,,,,,,,,,,,,,,,,,,,,,,,,0,2,2,2,0,15,15,15,,,,,,,,,,,,,,,,,,,2490.5077060009935,p,0.8353648319898639,2491.4082377509912,,,,,,272575,B,2024-12-14_14h35.50.529,EPIDM,2023.1.2,None,
1112.jpg,6230.jpg,3 Points,3 Points,169 points,PS2_L3.csv,,,,,,,,,,,,,,,,,,,,,,,,,,,,,0,2,2,2,0,16,16,16,,,,,,,,,,,,,,,,,,,2495.652550500992,q,0.738029041007394,2496.462135875976,,,,,,272575,B,2024-12-14_14h35.50.529,EPIDM,2023.1.2,None,
8161.jpg,1900.jpg,4 Points,4 Points,173 points,PS2_L3.csv,,,,,,,,,,,,,,,,,,,,,,,,,,,,,0,2,2,2,0,17,17,17,,,,,,,,,,,,,,,,,,,2500.7068689180014,q,0.699180833005812,2501.4763131259824,,,,,,272575,B,2024-12-14_14h35.50.529,EPIDM,2023.1.2,None,
9800.jpg,9433.jpg,1 Point,1 Point,174 points,PS2_L3.csv,,,,,,,,,,,,,,,,,,,,,,,,,,,,,0,2,2,2,0,18,18,18,,,,,,,,,,,,,,,,,,,2505.734342958982,q,0.4332727910077665,2506.230848583975,,,,,,272575,B,2024-12-14_14h35.50.529,EPIDM,2023.1.2,None,
1390.jpg,9421.jpg,2 Points,2 Points,176 points,PS2_L3.csv,,,,,,,,,,,,,,,,,,,,,,,,,,,,,0,2,2,2,0,19,19,19,,,,,,,,,,,,,,,,,,,2510.491427042987,p,0.8831814160221256,2511.4441473339975,,,,,,272575,B,2024-12-14_14h35.50.529,EPIDM,2023.1.2,None,
2850.jpg,4532.jpg,3 Points,3 Points,179 points,PS2_L3.csv,,,,,,,,,,,,,,,,,,,,,,,,,,,,,0,2,2,2,0,20,20,20,,,,,,,,,,,,,,,,,,,2515.6986666259763,q,0.5405250410258304,2516.295618250995,,,,,,272575,B,2024-12-14_14h35.50.529,EPIDM,2023.1.2,None,
1560.jpg,8185.jpg,0 Points,0 Points,179 points,PS2_L3.csv,,,,,,,,,,,,,,,,,,,,,,,,,,,,,0,2,2,2,0,21,21,21,,,,,,,,,,,,,,,,,,,2520.550600043003,q,1.0237240820133593,2521.646936292993,,,,,,272575,B,2024-12-14_14h35.50.529,EPIDM,2023.1.2,None,
6314.jpg,O022.jpg,2 Points,2 Points,181 points,PS2_L3.csv,,,,,,,,,,,,,,,,,,,,,,,,,,,,,0,2,2,2,0,22,22,22,,,,,,,,,,,,,,,,,,,2525.8953483759833,p,0.7911632909963373,2526.790506208985,,,,,,272575,B,2024-12-14_14h35.50.529,EPIDM,2023.1.2,None,
4274.jpg,8160.jpg,2 Points,2 Points,183 points,PS2_L3.csv,,,,,,,,,,,,,,,,,,,,,,,,,,,,,0,2,2,2,0,23,23,23,,,,,,,,,,,,,,,,,,,2531.007465333998,q,0.5506170410080813,2531.661534043,,,2542.103831708984,space,9.12515108200023,272575,B,2024-12-14_14h35.50.529,EPIDM,2023.1.2,None,
8117.jpg,2880.jpg,5 Points,5 Points,188 points,PS2_L4.csv,,,,,,,,,,,,,,,,,,,,,,,,,,,,,0,3,3,3,0,0,0,0,,,,,,,,,,,,,,,,,,,2554.5443060429825,p,0.8442183740262408,2555.469030376,,,,,,272575,B,2024-12-14_14h35.50.529,EPIDM,2023.1.2,None,
3220.jpg,3063.jpg,5 Points,5 Points,193 points,PS2_L4.csv,,,,,,,,,,,,,,,,,,,,,,,,,,,,,0,3,3,3,0,1,1,1,,,,,,,,,,,,,,,,,,,2559.70093112599,q,0.7449512080056593,2560.509692083986,5,1.3438991250295658,,,,272575,B,2024-12-14_14h35.50.529,EPIDM,2023.1.2,None,
9040.jpg,1120.jpg,3 Points,3 Points,196 points,PS2_L4.csv,,,,,,,,,,,,,,,,,,,,,,,,,,,,,0,3,3,3,0,2,2,2,,,,,,,,,,,,,,,,,,,2566.163810917991,q,0.6657140830066055,2566.9030035009782,,,,,,272575,B,2024-12-14_14h35.50.529,EPIDM,2023.1.2,None,
5030.jpg,1670.jpg,3 Points,3 Points,199 points,PS2_L4.csv,,,,,,,,,,,,,,,,,,,,,,,,,,,,,0,3,3,3,0,3,3,3,,,,,,,,,,,,,,,,,,,2571.153837250982,p,0.7317178740049712,2571.9489465429797,,,,,,272575,B,2024-12-14_14h35.50.529,EPIDM,2023.1.2,None,
2276.jpg,6540.jpg,3 Points,3 Points,202 points,PS2_L4.csv,,,,,,,,,,,,,,,,,,,,,,,,,,,,,0,3,3,3,0,4,4,4,,,,,,,,,,,,,,,,,,,2576.2035177089856,q,0.41789900002186187,2576.682606083981,,,,,,272575,B,2024-12-14_14h35.50.529,EPIDM,2023.1.2,None,
1540.jpg,2600.jpg,1 Point,1 Point,203 points,PS2_L4.csv,,,,,,,,,,,,,,,,,,,,,,,,,,,,,0,3,3,3,0,5,5,5,,,,,,,,,,,,,,,,,,,2580.948297000985,p,0.6408272080007009,2581.651654458983,,,,,,272575,B,2024-12-14_14h35.50.529,EPIDM,2023.1.2,None,
8465.jpg,8400.jpg,1 Point,1 Point,204 points,PS2_L4.csv,,,,,,,,,,,,,,,,,,,,,,,,,,,,,0,3,3,3,0,6,6,6,,,,,,,,,,,,,,,,,,,2585.9037842089892,p,0.7732815409835894,2586.742636625975,,,,,,272575,B,2024-12-14_14h35.50.529,EPIDM,2023.1.2,None,
3110.jpg,9000.jpg,4 Points,4 Points,208 points,PS2_L4.csv,,,,,,,,,,,,,,,,,,,,,,,,,,,,,0,3,3,3,0,7,7,7,,,,,,,,,,,,,,,,,,,2590.9976134180033,p,0.8476271240215283,2591.90614937598,,,,,,272575,B,2024-12-14_14h35.50.529,EPIDM,2023.1.2,None,
9570.jpg,6610.jpg,0 Points,0 Points,208 points,PS2_L4.csv,,,,,,,,,,,,,,,,,,,,,,,,,,,,,0,3,3,3,0,8,8,8,,,,,,,,,,,,,,,,,,,2596.168806709,q,0.9801652490277775,2597.2160962509806,,,,,,272575,B,2024-12-14_14h35.50.529,EPIDM,2023.1.2,None,
2690.jpg,9360.jpg,1 Point,1 Point,209 points,PS2_L4.csv,,,,,,,,,,,,,,,,,,,,,,,,,,,,,0,3,3,3,0,9,9,9,,,,,,,,,,,,,,,,,,,2601.460209167999,p,0.7844593330228236,2602.310584500985,,,,,,272575,B,2024-12-14_14h35.50.529,EPIDM,2023.1.2,None,
8250.jpg,1313.jpg,4 Points,4 Points,213 points,PS2_L4.csv,,,,,,,,,,,,,,,,,,,,,,,,,,,,,0,3,3,3,0,10,10,10,,,,,,,,,,,,,,,,,,,2606.559918708983,p,1.036420749995159,2607.672520750988,,,,,,272575,B,2024-12-14_14h35.50.529,EPIDM,2023.1.2,None,
3022.jpg,2352.2.jpg,0 Points,0 Points,213 points,PS2_L4.csv,,,,,,,,,,,,,,,,,,,,,,,,,,,,,0,3,3,3,0,11,11,11,,,,,,,,,,,,,,,,,,,2611.9160817090014,q,0.4160344580304809,2612.401271458977,,,,,,272575,B,2024-12-14_14h35.50.529,EPIDM,2023.1.2,None,
9920.jpg,3068.jpg,5 Points,5 Points,218 points,PS2_L4.csv,,,,,,,,,,,,,,,,,,,,,,,,,,,,,0,3,3,3,0,12,12,12,,,,,,,,,,,,,,,,,,,2616.643238833989,q,0.6652997070050333,2617.382293333998,,,,,,272575,B,2024-12-14_14h35.50.529,EPIDM,2023.1.2,None,
7234.jpg,5533.jpg,3 Points,3 Points,221 points,PS2_L4.csv,,,,,,,,,,,,,,,,,,,,,,,,,,,,,0,3,3,3,0,13,13,13,,,,,,,,,,,,,,,,,,,2621.656200292986,q,0.7477426250115968,2622.4700223339896,3,1.525940499996068,,,,272575,B,2024-12-14_14h35.50.529,EPIDM,2023.1.2,None,
6250.1.jpg,3301.jpg,0 Points,0 Points,221 points,PS2_L4.csv,,,,,,,,,,,,,,,,,,,,,,,,,,,,,0,3,3,3,0,14,14,14,,,,,,,,,,,,,,,,,,,2628.3226509589877,p,1.233422416029498,2629.634860875987,,,,,,272575,B,2024-12-14_14h35.50.529,EPIDM,2023.1.2,None,
2518.jpg,2381.jpg,1 Point,1 Point,222 points,PS2_L4.csv,,,,,,,,,,,,,,,,,,,,,,,,,,,,,0,3,3,3,0,15,15,15,,,,,,,,,,,,,,,,,,,2633.882993042993,q,0.6325361660274211,2634.5780611679947,,,,,,272575,B,2024-12-14_14h35.50.529,EPIDM,2023.1.2,None,
1910.jpg,2575.jpg,2 Points,2 Points,224 points,PS2_L4.csv,,,,,,,,,,,,,,,,,,,,,,,,,,,,,0,3,3,3,0,16,16,16,,,,,,,,,,,,,,,,,,,2638.842420167988,p,0.5933837080083322,2639.4904104179877,,,,,,272575,B,2024-12-14_14h35.50.529,EPIDM,2023.1.2,None,
1275.jpg,3150.jpg,1 Point,1 Point,225 points,PS2_L4.csv,,,,,,,,,,,,,,,,,,,,,,,,,,,,,0,3,3,3,0,17,17,17,,,,,,,,,,,,,,,,,,,2643.755249292997,q,0.7529169580084272,2644.5783918339876,,,,,,272575,B,2024-12-14_14h35.50.529,EPIDM,2023.1.2,None,
2702.jpg,1590.jpg,5 Points,5 Points,230 points,PS2_L4.csv,,,,,,,,,,,,,,,,,,,,,,,,,,,,,0,3,3,3,0,18,18,18,,,,,,,,,,,,,,,,,,,2648.8223982509808,q,0.5170290409878362,2649.4170242509863,,,,,,272575,B,2024-12-14_14h35.50.529,EPIDM,2023.1.2,None,
8480.jpg,6410.jpg,1 Point,1 Point,231 points,PS2_L4.csv,,,,,,,,,,,,,,,,,,,,,,,,,,,,,0,3,3,3,0,19,19,19,,,,,,,,,,,,,,,,,,,2653.669254167995,q,0.5336301659990568,2654.2797131259867,,,,,,272575,B,2024-12-14_14h35.50.529,EPIDM,2023.1.2,None,
5621.jpg,5534.jpg,3 Points,3 Points,234 points,PS2_L4.csv,,,,,,,,,,,,,,,,,,,,,,,,,,,,,0,3,3,3,0,20,20,20,,,,,,,,,,,,,,,,,,,2658.518717875995,p,0.6368887500138953,2659.221228376002,,,,,,272575,B,2024-12-14_14h35.50.529,EPIDM,2023.1.2,None,
5972.jpg,6838.jpg,5 Points,5 Points,239 points,PS2_L4.csv,,,,,,,,,,,,,,,,,,,,,,,,,,,,,0,3,3,3,0,21,21,21,,,,,,,,,,,,,,,,,,,2663.4716772929823,p,0.7813252070045564,2664.314689167979,,,,,,272575,B,2024-12-14_14h35.50.529,EPIDM,2023.1.2,None,
2580.jpg,8300.jpg,3 Points,3 Points,242 points,PS2_L4.csv,,,,,,,,,,,,,,,,,,,,,,,,,,,,,0,3,3,3,0,22,22,22,,,,,,,,,,,,,,,,,,,2668.5690442929917,p,0.8903259160288144,2669.52465300099,,,,,,272575,B,2024-12-14_14h35.50.529,EPIDM,2023.1.2,None,
7280.jpg,7160.jpg,0 Points,0 Points,242 points,PS2_L4.csv,,,,,,,,,,,,,,,,,,,,,,,,,,,,,0,3,3,3,0,23,23,23,,,,,,,,,,,,,,,,,,,2673.778043042985,p,0.7447939580015372,2674.5984606679995,,,2685.0562720839807,space,5.123119541007327,272575,B,2024-12-14_14h35.50.529,EPIDM,2023.1.2,None,
6243.jpg,2752.jpg,2 Points,2 Points,244 points,PS2_L5.csv,,,,,,,,,,,,,,,,,,,,,,,,,,,,,0,4,4,4,0,0,0,0,,,,,,,,,,,,,,,,,,,2693.4911793339998,q,0.6240241659979802,2694.1855711679964,,,,,,272575,B,2024-12-14_14h35.50.529,EPIDM,2023.1.2,None,
8340.jpg,7546.jpg,2 Points,2 Points,246 points,PS2_L5.csv,,,,,,,,,,,,,,,,,,,,,,,,,,,,,0,4,4,4,0,1,1,1,,,,,,,,,,,,,,,,,,,2698.4275230009807,q,1.071386624011211,2699.565884126001,2,1.291310541011626,,,,272575,B,2024-12-14_14h35.50.529,EPIDM,2023.1.2,None,
1022.jpg,6930.jpg,1 Point,1 Point,247 points,PS2_L5.csv,,,,,,,,,,,,,,,,,,,,,,,,,,,,,0,4,4,4,0,2,2,2,,,,,,,,,,,,,,,,,,,2705.163824583986,p,0.7507046660175547,2705.992517667997,,,,,,272575,B,2024-12-14_14h35.50.529,EPIDM,2023.1.2,None,
7230.jpg,7570.jpg,5 Points,5 Points,252 points,PS2_L5.csv,,,,,,,,,,,,,,,,,,,,,,,,,,,,,0,4,4,4,0,3,3,3,,,,,,,,,,,,,,,,,,,2710.241057084,q,0.6010556659894064,2710.9211727090005,,,,,,272575,B,2024-12-14_14h35.50.529,EPIDM,2023.1.2,None,
5760.jpg,1602.jpg,1 Point,1 Point,253 points,PS2_L5.csv,,,,,,,,,,,,,,,,,,,,,,,,,,,,,0,4,4,4,0,4,4,4,,,,,,,,,,,,,,,,,,,2715.168937084003,p,0.46559008199255913,2715.703104708984,,,,,,272575,B,2024-12-14_14h35.50.529,EPIDM,2023.1.2,None,
9584.jpg,3400.jpg,2 Points,2 Points,255 points,PS2_L5.csv,,,,,,,,,,,,,,,,,,,,,,,,,,,,,0,4,4,4,0,5,5,5,,,,,,,,,,,,,,,,,,,2719.9541109179845,q,0.6404745829931926,2720.6565165839856,,,,,,272575,B,2024-12-14_14h35.50.529,EPIDM,2023.1.2,None,
2560.jpg,5270.jpg,4 Points,4 Points,259 points,PS2_L5.csv,,,,,,,,,,,,,,,,,,,,,,,,,,,,,0,4,4,4,0,6,6,6,,,,,,,,,,,,,,,,,,,2724.9105482509767,q,0.7716180410061497,2725.7540151259745,,,,,,272575,B,2024-12-14_14h35.50.529,EPIDM,2023.1.2,None,
3350.jpg,3210.jpg,1 Point,1 Point,260 points,PS2_L5.csv,,,,,,,,,,,,,,,,,,,,,,,,,,,,,0,4,4,4,0,7,7,7,,,,,,,,,,,,,,,,,,,2730.003570875997,p,1.1743575830187183,2731.236431625992,,,,,,272575,B,2024-12-14_14h35.50.529,EPIDM,2023.1.2,None,
5455.jpg,5220.jpg,0 Points,0 Points,260 points,PS2_L5.csv,,,,,,,,,,,,,,,,,,,,,,,,,,,,,0,4,4,4,0,8,8,8,,,,,,,,,,,,,,,,,,,2735.4904430839815,p,0.9509267499961425,2736.5035841259814,,,,,,272575,B,2024-12-14_14h35.50.529,EPIDM,2023.1.2,None,
7920.jpg,9102.jpg,3 Points,3 Points,263 points,PS2_L5.csv,,,,,,,,,,,,,,,,,,,,,,,,,,,,,0,4,4,4,0,9,9,9,,,,,,,,,,,,,,,,,,,2740.7605626680015,q,1.0089005820045713,2741.846400251001,,,,,,272575,B,2024-12-14_14h35.50.529,EPIDM,2023.1.2,None,
1301.jpg,1070.jpg,2 Points,2 Points,265 points,PS2_L5.csv,,,,,,,,,,,,,,,,,,,,,,,,,,,,,0,4,4,4,0,10,10,10,,,,,,,,,,,,,,,,,,,2746.0827345009893,q,0.41471345801255666,2746.5668516680016,,,,,,272575,B,2024-12-14_14h35.50.529,EPIDM,2023.1.2,None,
5982.jpg,5260.jpg,5 Points,5 Points,270 points,PS2_L5.csv,,,,,,,,,,,,,,,,,,,,,,,,,,,,,0,4,4,4,0,11,11,11,,,,,,,,,,,,,,,,,,,2750.8066711679858,q,0.7228547910053749,2751.601088708994,,,,,,272575,B,2024-12-14_14h35.50.529,EPIDM,2023.1.2,None,
5000.jpg,8180.jpg,4 Points,4 Points,274 points,PS2_L5.csv,,,,,,,,,,,,,,,,,,,,,,,,,,,,,0,4,4,4,0,12,12,12,,,,,,,,,,,,,,,,,,,2755.8429503339867,q,0.43816083201090805,2756.3605236680014,,,,,,272575,B,2024-12-14_14h35.50.529,EPIDM,2023.1.2,None,
6244.jpg,9265.jpg,0 Points,0 Points,274 points,PS2_L5.csv,,,,,,,,,,,,,,,,,,,,,,,,,,,,,0,4,4,4,0,13,13,13,,,,,,,,,,,,,,,,,,,2760.6012186259904,p,0.6154009570018388,2761.290107667999,0,1.6999397489998955,,,,272575,B,2024-12-14_14h35.50.529,EPIDM,2023.1.2,None,
5990.jpg,5780.jpg,3 Points,3 Points,277 points,PS2_L5.csv,,,,,,,,,,,,,,,,,,,,,,,,,,,,,0,4,4,4,0,14,14,14,,,,,,,,,,,,,,,,,,,2767.306803917978,q,0.2697256249957718,2767.6427852089982,,,,,,272575,B,2024-12-14_14h35.50.529,EPIDM,2023.1.2,None,
9440.jpg,6350.jpg,4 Points,4 Points,281 points,PS2_L5.csv,,,,,,,,,,,,,,,,,,,,,,,,,,,,,0,4,4,4,0,15,15,15,,,,,,,,,,,,,,,,,,,2771.889642417984,q,1.439109583006939,2773.3883865009993,,,,,,272575,B,2024-12-14_14h35.50.529,EPIDM,2023.1.2,None,
1850.jpg,5623.jpg,5 Points,5 Points,286 points,PS2_L5.csv,,,,,,,,,,,,,,,,,,,,,,,,,,,,,0,4,4,4,0,16,16,16,,,,,,,,,,,,,,,,,,,2777.642922792991,q,0.8464777910267003,2778.5655625009967,,,,,,272575,B,2024-12-14_14h35.50.529,EPIDM,2023.1.2,None,
5200.jpg,5020.jpg,0 Points,0 Points,286 points,PS2_L5.csv,,,,,,,,,,,,,,,,,,,,,,,,,,,,,0,4,4,4,0,17,17,17,,,,,,,,,,,,,,,,,,,2782.819547417981,p,0.8139644989860244,2783.703726792999,,,,,,272575,B,2024-12-14_14h35.50.529,EPIDM,2023.1.2,None,
P211.jpg,9041.jpg,4 Points,4 Points,290 points,PS2_L5.csv,,,,,,,,,,,,,,,,,,,,,,,,,,,,,0,4,4,4,0,18,18,18,,,,,,,,,,,,,,,,,,,2787.9560541679966,p,0.852586749009788,2788.9179255839845,,,,,,272575,B,2024-12-14_14h35.50.529,EPIDM,2023.1.2,None,
5600.jpg,9080.jpg,5 Points,5 Points,295 points,PS2_L5.csv,,,,,,,,,,,,,,,,,,,,,,,,,,,,,0,4,4,4,0,19,19,19,,,,,,,,,,,,,,,,,,,2793.1259094589914,q,0.6107258739939425,2793.8076705839776,,,,,,272575,B,2024-12-14_14h35.50.529,EPIDM,2023.1.2,None,
6800.jpg,9190.jpg,0 Points,0 Points,295 points,PS2_L5.csv,,,,,,,,,,,,,,,,,,,,,,,,,,,,,0,4,4,4,0,20,20,20,,,,,,,,,,,,,,,,,,,2798.044602918002,p,0.9395004989928566,2799.057463042991,,,,,,272575,B,2024-12-14_14h35.50.529,EPIDM,2023.1.2,None,
3280.jpg,9270.jpg,0 Points,0 Points,295 points,PS2_L5.csv,,,,,,,,,,,,,,,,,,,,,,,,,,,,,0,4,4,4,0,21,21,21,,,,,,,,,,,,,,,,,,,2803.308781667991,q,0.8200664579926524,2804.1844805839937,,,,,,272575,B,2024-12-14_14h35.50.529,EPIDM,2023.1.2,None,
4613.jpg,2720.jpg,4 Points,4 Points,299 points,PS2_L5.csv,,,,,,,,,,,,,,,,,,,,,,,,,,,,,0,4,4,4,0,22,22,22,,,,,,,,,,,,,,,,,,,2808.448103125993,q,0.7909137069946155,2809.3099952089833,,,,,,272575,B,2024-12-14_14h35.50.529,EPIDM,2023.1.2,None,
1930.jpg,9008.jpg,1 Point,1 Point,300 points,PS2_L5.csv,,,,,,,,,,,,,,,,,,,,,,,,,,,,,0,4,4,4,0,23,23,23,,,,,,,,,,,,,,,,,,,2813.558401958988,p,1.193713499000296,2814.829446917982,,,2825.2757080429874,space,23.619739624031354,272575,B,2024-12-14_14h35.50.529,EPIDM,2023.1.2,None,
2190.jpg,7503.jpg,2 Points,2 Points,302 points,PS2_L6.csv,,,,,,,,,,,,,,,,,,,,,,,,,,,,,0,5,5,5,0,0,0,0,,,,,,,,,,,,,,,,,,,2852.2182734590024,p,0.9242860820086207,2853.2233911259973,,,,,,272575,B,2024-12-14_14h35.50.529,EPIDM,2023.1.2,None,
2490.jpg,2590.jpg,4 Points,4 Points,306 points,PS2_L6.csv,,,,,,,,,,,,,,,,,,,,,,,,,,,,,0,5,5,5,0,1,1,1,,,,,,,,,,,,,,,,,,,2857.474995625991,q,0.9400347910122946,2858.48851270898,4,1.2400330409873277,,,,272575,B,2024-12-14_14h35.50.529,EPIDM,2023.1.2,None,
9592.jpg,1300.jpg,2 Points,2 Points,308 points,PS2_L6.csv,,,,,,,,,,,,,,,,,,,,,,,,,,,,,0,5,5,5,0,2,2,2,,,,,,,,,,,,,,,,,,,2864.059738625976,q,0.6915759989933576,2864.831947917992,,,,,,272575,B,2024-12-14_14h35.50.529,EPIDM,2023.1.2,None,
8230.jpg,2682.jpg,5 Points,5 Points,313 points,PS2_L6.csv,,,,,,,,,,,,,,,,,,,,,,,,,,,,,0,5,5,5,0,3,3,3,,,,,,,,,,,,,,,,,,,2869.084247250983,p,0.8505983740324154,2869.994963334,,,,,,272575,B,2024-12-14_14h35.50.529,EPIDM,2023.1.2,None,
9090.jpg,7580.jpg,3 Points,3 Points,316 points,PS2_L6.csv,,,,,,,,,,,,,,,,,,,,,,,,,,,,,0,5,5,5,0,4,4,4,,,,,,,,,,,,,,,,,,,2874.253800417995,p,0.6972659580060281,2875.018863167992,,,,,,272575,B,2024-12-14_14h35.50.529,EPIDM,2023.1.2,None,
3530.jpg,6213.jpg,1 Point,1 Point,317 points,PS2_L6.csv,,,,,,,,,,,,,,,,,,,,,,,,,,,,,0,5,5,5,0,5,5,5,,,,,,,,,,,,,,,,,,,2879.2646870430035,p,1.0141417080012616,2880.345973208983,,,,,,272575,B,2024-12-14_14h35.50.529,EPIDM,2023.1.2,None,
1640.jpg,5531.jpg,3 Points,3 Points,320 points,PS2_L6.csv,,,,,,,,,,,,,,,,,,,,,,,,,,,,,0,5,5,5,0,6,6,6,,,,,,,,,,,,,,,,,,,2884.600335167983,p,0.557989749009721,2885.238932583976,,,,,,272575,B,2024-12-14_14h35.50.529,EPIDM,2023.1.2,None,
3064.jpg,3168.jpg,4 Points,4 Points,324 points,PS2_L6.csv,,,,,,,,,,,,,,,,,,,,,,,,,,,,,0,5,5,5,0,7,7,7,,,,,,,,,,,,,,,,,,,2889.4996903759893,q,1.04962137399707,2890.6235169179854,,,,,,272575,B,2024-12-14_14h35.50.529,EPIDM,2023.1.2,None,
2710.jpg,9252.jpg,1 Point,1 Point,325 points,PS2_L6.csv,,,,,,,,,,,,,,,,,,,,,,,,,,,,,0,5,5,5,0,8,8,8,,,,,,,,,,,,,,,,,,,2894.866161168,q,0.6523080830229446,2895.5833425009914,,,,,,272575,B,2024-12-14_14h35.50.529,EPIDM,2023.1.2,None,
2260.jpg,2830.jpg,5 Points,5 Points,330 points,PS2_L6.csv,,,,,,,,,,,,,,,,,,,,,,,,,,,,,0,5,5,5,0,9,9,9,,,,,,,,,,,,,,,,,,,2899.8294094589946,q,0.9203972080140375,2900.8201192510023,,,,,,272575,B,2024-12-14_14h35.50.529,EPIDM,2023.1.2,None,
6510.jpg,A074.jpg,2 Points,2 Points,332 points,PS2_L6.csv,,,,,,,,,,,,,,,,,,,,,,,,,,,,,0,5,5,5,0,10,10,10,,,,,,,,,,,,,,,,,,,2905.070731083979,p,1.0543527079862542,2906.2442333340005,,,,,,272575,B,2024-12-14_14h35.50.529,EPIDM,2023.1.2,None,
5300.jpg,2372.jpg,1 Point,1 Point,333 points,PS2_L6.csv,,,,,,,,,,,,,,,,,,,,,,,,,,,,,0,5,5,5,0,11,11,11,,,,,,,,,,,,,,,,,,,2910.447166917991,q,0.3996898329933174,2910.9541458339954,,,,,,272575,B,2024-12-14_14h35.50.529,EPIDM,2023.1.2,None,
2749.jpg,7282.jpg,3 Points,3 Points,336 points,PS2_L6.csv,,,,,,,,,,,,,,,,,,,,,,,,,,,,,0,5,5,5,0,12,12,12,,,,,,,,,,,,,,,,,,,2915.156321333983,q,1.2496802080131602,2916.4713792089897,,,,,,272575,B,2024-12-14_14h35.50.529,EPIDM,2023.1.2,None,
3130.jpg,3500.jpg,4 Points,4 Points,340 points,PS2_L6.csv,,,,,,,,,,,,,,,,,,,,,,,,,,,,,0,5,5,5,0,13,13,13,,,,,,,,,,,,,,,,,,,2920.716199458984,p,0.7771108330052812,2921.558870918001,4,1.6709536660055164,,,,272575,B,2024-12-14_14h35.50.529,EPIDM,2023.1.2,None,
6312.jpg,3230.jpg,2 Points,2 Points,342 points,PS2_L6.csv,,,,,,,,,,,,,,,,,,,,,,,,,,,,,0,5,5,5,0,14,14,14,,,,,,,,,,,,,,,,,,,2927.5395014179812,q,1.2014867080142722,2928.804257458978,,,,,,272575,B,2024-12-14_14h35.50.529,EPIDM,2023.1.2,None,
2597.jpg,5870.jpg,5 Points,5 Points,347 points,PS2_L6.csv,,,,,,,,,,,,,,,,,,,,,,,,,,,,,0,5,5,5,0,15,15,15,,,,,,,,,,,,,,,,,,,2933.060658917995,p,0.407998333015712,2933.5469860429876,,,,,,272575,B,2024-12-14_14h35.50.529,EPIDM,2023.1.2,None,
8033.jpg,7270.jpg,3 Points,3 Points,350 points,PS2_L6.csv,,,,,,,,,,,,,,,,,,,,,,,,,,,,,0,5,5,5,0,16,16,16,,,,,,,,,,,,,,,,,,,2937.789320875978,p,1.1522590829990804,2939.0144812509825,,,,,,272575,B,2024-12-14_14h35.50.529,EPIDM,2023.1.2,None,
3170.jpg,6560.jpg,2 Points,2 Points,352 points,PS2_L6.csv,,,,,,,,,,,,,,,,,,,,,,,,,,,,,0,5,5,5,0,17,17,17,,,,,,,,,,,,,,,,,,,2943.2693855429825,p,0.5935255820222665,2943.9209373339836,,,,,,272575,B,2024-12-14_14h35.50.529,EPIDM,2023.1.2,None,
6242.jpg,F034.jpg,4 Points,4 Points,356 points,PS2_L6.csv,,,,,,,,,,,,,,,,,,,,,,,,,,,,,0,5,5,5,0,18,18,18,,,,,,,,,,,,,,,,,,,2948.175118168001,p,0.9655063739919569,2949.249283418001,,,,,,272575,B,2024-12-14_14h35.50.529,EPIDM,2023.1.2,None,
2485.jpg,7350.jpg,0 Points,0 Points,356 points,PS2_L6.csv,,,,,,,,,,,,,,,,,,,,,,,,,,,,,0,5,5,5,0,19,19,19,,,,,,,,,,,,,,,,,,,2953.4652608759934,p,0.5163438330055214,2954.0652256259928,,,,,,272575,B,2024-12-14_14h35.50.529,EPIDM,2023.1.2,None,
2900.jpg,1101.jpg,3 Points,3 Points,359 points,PS2_L6.csv,,,,,,,,,,,,,,,,,,,,,,,,,,,,,0,5,5,5,0,20,20,20,,,,,,,,,,,,,,,,,,,2958.3017136679846,q,0.7663822070171591,2959.15484016799,,,,,,272575,B,2024-12-14_14h35.50.529,EPIDM,2023.1.2,None,
7002.jpg,4660.jpg,4 Points,4 Points,363 points,PS2_L6.csv,,,,,,,,,,,,,,,,,,,,,,,,,,,,,0,5,5,5,0,21,21,21,,,,,,,,,,,,,,,,,,,2963.3975215009996,p,0.6700977490108926,2964.1501372089842,,,,,,272575,B,2024-12-14_14h35.50.529,EPIDM,2023.1.2,None,
A025.jpg,1051.jpg,0 Points,0 Points,363 points,PS2_L6.csv,,,,,,,,,,,,,,,,,,,,,,,,,,,,,0,5,5,5,0,22,22,22,,,,,,,,,,,,,,,,,,,2968.3950958759815,q,0.9605750829796307,2969.450373167987,,,,,,272575,B,2024-12-14_14h35.50.529,EPIDM,2023.1.2,None,
4510.jpg,2230.jpg,5 Points,5 Points,368 points,PS2_L6.csv,,,,,,,,,,,,,,,,,,,,,,,,,,,,,0,5,5,5,0,23,23,23,,,,,,,,,,,,,,,,,,,2973.671990250994,q,1.1487594990176149,2974.904967458977,,,2985.3923646679905,space,2.08365279098507,272575,B,2024-12-14_14h35.50.529,EPIDM,2023.1.2,None,
2383.jpg,1616.jpg,2 Points,2 Points,370 points,PS2_L7.csv,,,,,,,,,,,,,,,,,,,,,,,,,,,,,0,6,6,6,0,0,0,0,,,,,,,,,,,,,,,,,,,2990.8050007089914,q,0.662409624987049,2991.538489750994,,,,,,272575,B,2024-12-14_14h35.50.529,EPIDM,2023.1.2,None,
1310.jpg,3181.jpg,4 Points,4 Points,374 points,PS2_L7.csv,,,,,,,,,,,,,,,,,,,,,,,,,,,,,0,6,6,6,0,1,1,1,,,,,,,,,,,,,,,,,,,2995.7882455009967,q,0.9033928740245756,2996.756430708978,4,0.4567590829974506,,,,272575,B,2024-12-14_14h35.50.529,EPIDM,2023.1.2,None,
7289.jpg,4534.jpg,0 Points,0 Points,374 points,PS2_L7.csv,,,,,,,,,,,,,,,,,,,,,,,,,,,,,0,6,6,6,0,2,2,2,,,,,,,,,,,,,,,,,,,3001.5179267929925,q,0.5110859159904066,3002.096445500996,,,,,,272575,B,2024-12-14_14h35.50.529,EPIDM,2023.1.2,None,
6010.jpg,7361.jpg,2 Points,2 Points,376 points,PS2_L7.csv,,,,,,,,,,,,,,,,,,,,,,,,,,,,,0,6,6,6,0,3,3,3,,,,,,,,,,,,,,,,,,,3006.3445248759817,p,0.8101693330099806,3007.2318769179983,,,,,,272575,B,2024-12-14_14h35.50.529,EPIDM,2023.1.2,None,
2661.jpg,2870.jpg,5 Points,5 Points,381 points,PS2_L7.csv,,,,,,,,,,,,,,,,,,,,,,,,,,,,,0,6,6,6,0,4,4,4,,,,,,,,,,,,,,,,,,,3011.481853167992,p,0.5938079580082558,3012.140461250994,,,,,,272575,B,2024-12-14_14h35.50.529,EPIDM,2023.1.2,None,
7220.jpg,8090.jpg,2 Points,2 Points,383 points,PS2_L7.csv,,,,,,,,,,,,,,,,,,,,,,,,,,,,,0,6,6,6,0,5,5,5,,,,,,,,,,,,,,,,,,,3016.391151167976,q,0.443995540990727,3016.898095208977,,,,,,272575,B,2024-12-14_14h35.50.529,EPIDM,2023.1.2,None,
9140.jpg,2810.jpg,3 Points,3 Points,386 points,PS2_L7.csv,,,,,,,,,,,,,,,,,,,,,,,,,,,,,0,6,6,6,0,6,6,6,,,,,,,,,,,,,,,,,,,3021.144511083985,q,0.4842717910360079,3021.6931533759926,,,,,,272575,B,2024-12-14_14h35.50.529,EPIDM,2023.1.2,None,
2516.jpg,8500.jpg,4 Points,4 Points,390 points,PS2_L7.csv,,,,,,,,,,,,,,,,,,,,,,,,,,,,,0,6,6,6,0,7,7,7,,,,,,,,,,,,,,,,,,,3025.9399572089897,p,0.5747580830065999,3026.5860108339984,,,,,,272575,B,2024-12-14_14h35.50.529,EPIDM,2023.1.2,None,
9070.jpg,9420.jpg,2 Points,2 Points,392 points,PS2_L7.csv,,,,,,,,,,,,,,,,,,,,,,,,,,,,,0,6,6,6,0,8,8,8,,,,,,,,,,,,,,,,,,,3030.8368016679888,q,0.8626560000120662,3031.781692500983,,,,,,272575,B,2024-12-14_14h35.50.529,EPIDM,2023.1.2,None,
6561.jpg,1525.jpg,2 Points,2 Points,394 points,PS2_L7.csv,,,,,,,,,,,,,,,,,,,,,,,,,,,,,0,6,6,6,0,9,9,9,,,,,,,,,,,,,,,,,,,3036.025149375986,q,0.5863987080228981,3036.6642053760006,,,,,,272575,B,2024-12-14_14h35.50.529,EPIDM,2023.1.2,None,
7175.jpg,7490.jpg,2 Points,2 Points,396 points,PS2_L7.csv,,,,,,,,,,,,,,,,,,,,,,,,,,,,,0,6,6,6,0,10,10,10,,,,,,,,,,,,,,,,,,,3040.9301595009747,p,0.6718784570111893,3041.679163125984,,,,,,272575,B,2024-12-14_14h35.50.529,EPIDM,2023.1.2,None,
8010.jpg,2630.jpg,0 Points,0 Points,396 points,PS2_L7.csv,,,,,,,,,,,,,,,,,,,,,,,,,,,,,0,6,6,6,0,11,11,11,,,,,,,,,,,,,,,,,,,3045.929998167994,q,0.9527408750145696,3046.9571474589757,,,,,,272575,B,2024-12-14_14h35.50.529,EPIDM,2023.1.2,None,
F174.jpg,9404.jpg,5 Points,5 Points,401 points,PS2_L7.csv,,,,,,,,,,,,,,,,,,,,,,,,,,,,,0,6,6,6,0,12,12,12,,,,,,,,,,,,,,,,,,,3051.2125427089923,p,0.9097208319872152,3052.2314444179938,,,,,,272575,B,2024-12-14_14h35.50.529,EPIDM,2023.1.2,None,
2692.jpg,8231.jpg,4 Points,4 Points,405 points,PS2_L7.csv,,,,,,,,,,,,,,,,,,,,,,,,,,,,,0,6,6,6,0,13,13,13,,,,,,,,,,,,,,,,,,,3056.4529144179833,q,0.605665623996174,3057.11598945898,4,1.408328874007566,,,,272575,B,2024-12-14_14h35.50.529,EPIDM,2023.1.2,None,
5994.jpg,5390.jpg,0 Points,0 Points,405 points,PS2_L7.csv,,,,,,,,,,,,,,,,,,,,,,,,,,,,,0,6,6,6,0,14,14,14,,,,,,,,,,,,,,,,,,,3062.8440148340014,q,0.4226271240331698,3063.3294259179966,,,,,,272575,B,2024-12-14_14h35.50.529,EPIDM,2023.1.2,None,
9560.jpg,3071.jpg,1 Point,1 Point,406 points,PS2_L7.csv,,,,,,,,,,,,,,,,,,,,,,,,,,,,,0,6,6,6,0,15,15,15,,,,,,,,,,,,,,,,,,,3067.5894726259867,q,1.0760645410045981,3068.7337572510005,,,,,,272575,B,2024-12-14_14h35.50.529,EPIDM,2023.1.2,None,
9330.jpg,3015.jpg,5 Points,5 Points,411 points,PS2_L7.csv,,,,,,,,,,,,,,,,,,,,,,,,,,,,,0,6,6,6,0,16,16,16,,,,,,,,,,,,,,,,,,,3072.982750833995,p,0.5787702499947045,3073.6236525010027,,,,,,272575,B,2024-12-14_14h35.50.529,EPIDM,2023.1.2,None,
2389.jpg,7320.jpg,0 Points,0 Points,411 points,PS2_L7.csv,,,,,,,,,,,,,,,,,,,,,,,,,,,,,0,6,6,6,0,17,17,17,,,,,,,,,,,,,,,,,,,3077.885903333983,q,0.6762512080022134,3078.639312917978,,,,,,272575,B,2024-12-14_14h35.50.529,EPIDM,2023.1.2,None,
6570.1.jpg,9432.jpg,5 Points,5 Points,416 points,PS2_L7.csv,,,,,,,,,,,,,,,,,,,,,,,,,,,,,0,6,6,6,0,18,18,18,,,,,,,,,,,,,,,,,,,3082.8794229589985,q,0.8092531250149477,3083.7656805009756,,,,,,272575,B,2024-12-14_14h35.50.529,EPIDM,2023.1.2,None,
9452.jpg,7184.jpg,4 Points,4 Points,420 points,PS2_L7.csv,,,,,,,,,,,,,,,,,,,,,,,,,,,,,0,6,6,6,0,19,19,19,,,,,,,,,,,,,,,,,,,3088.007331375993,p,0.7868715829972643,3088.864663375978,,,,,,272575,B,2024-12-14_14h35.50.529,EPIDM,2023.1.2,None,
5120.jpg,5520.jpg,2 Points,2 Points,422 points,PS2_L7.csv,,,,,,,,,,,,,,,,,,,,,,,,,,,,,0,6,6,6,0,20,20,20,,,,,,,,,,,,,,,,,,,3093.109063833981,p,0.7176532910089009,3093.898502708995,,,,,,272575,B,2024-12-14_14h35.50.529,EPIDM,2023.1.2,None,
5970.jpg,3300.jpg,0 Points,0 Points,422 points,PS2_L7.csv,,,,,,,,,,,,,,,,,,,,,,,,,,,,,0,6,6,6,0,21,21,21,,,,,,,,,,,,,,,,,,,3098.148998292978,p,0.8606344580184668,3099.077591458976,,,,,,272575,B,2024-12-14_14h35.50.529,EPIDM,2023.1.2,None,
7620.jpg,5395.jpg,1 Point,1 Point,423 points,PS2_L7.csv,,,,,,,,,,,,,,,,,,,,,,,,,,,,,0,6,6,6,0,22,22,22,,,,,,,,,,,,,,,,,,,3103.328175083996,q,0.6565088329953142,3104.0494238759857,,,,,,272575,B,2024-12-14_14h35.50.529,EPIDM,2023.1.2,None,
P019.jpg,F158.jpg,3 Points,3 Points,426 points,PS2_L7.csv,,,,,,,,,,,,,,,,,,,,,,,,,,,,,0,6,6,6,0,23,23,23,,,,,,,,,,,,,,,,,,,3108.3121642089973,q,1.2006035830127075,3109.645406667987,,,3120.0600056679978,space,2.2366469990229234,272575,B,2024-12-14_14h35.50.529,EPIDM,2023.1.2,None,
2620.jpg,2594.jpg,0 Points,0 Points,426 points,PS2_L8.csv,,,,,,,,,,,,,,,,,,,,,,,,,,,,,0,7,7,7,0,0,0,0,,,,,,,,,,,,,,,,,,,3125.6178957509983,q,0.7112605830188841,3126.423235500988,,,,,,272575,B,2024-12-14_14h35.50.529,EPIDM,2023.1.2,None,
F369.jpg,3100.jpg,2 Points,2 Points,428 points,PS2_L8.csv,,,,,,,,,,,,,,,,,,,,,,,,,,,,,0,7,7,7,0,1,1,1,,,,,,,,,,,,,,,,,,,3130.641372667975,q,1.1436680830083787,3131.881120125996,2,1.4244674580113497,,,,272575,B,2024-12-14_14h35.50.529,EPIDM,2023.1.2,None,
1052.jpg,1201.jpg,3 Points,3 Points,431 points,PS2_L8.csv,,,,,,,,,,,,,,,,,,,,,,,,,,,,,0,7,7,7,0,2,2,2,,,,,,,,,,,,,,,,,,,3137.6179943339957,p,1.1978252490225714,3138.9173945009825,,,,,,272575,B,2024-12-14_14h35.50.529,EPIDM,2023.1.2,None,
2606.jpg,2480.jpg,1 Point,1 Point,432 points,PS2_L8.csv,,,,,,,,,,,,,,,,,,,,,,,,,,,,,0,7,7,7,0,3,3,3,,,,,,,,,,,,,,,,,,,3143.1341964589956,q,0.5867998320027255,3143.791152875987,,,,,,272575,B,2024-12-14_14h35.50.529,EPIDM,2023.1.2,None,
9594.jpg,1080.jpg,4 Points,4 Points,436 points,PS2_L8.csv,,,,,,,,,,,,,,,,,,,,,,,,,,,,,0,7,7,7,0,4,4,4,,,,,,,,,,,,,,,,,,,3148.044106168003,p,0.8196965829993133,3148.9457468759792,,,,,,272575,B,2024-12-14_14h35.50.529,EPIDM,2023.1.2,None,
4770.jpg,4275.jpg,3 Points,3 Points,439 points,PS2_L8.csv,,,,,,,,,,,,,,,,,,,,,,,,,,,,,0,7,7,7,0,5,5,5,,,,,,,,,,,,,,,,,,,3153.18736833398,q,0.5170517069927882,3153.778200167988,,,,,,272575,B,2024-12-14_14h35.50.529,EPIDM,2023.1.2,None,
P077.jpg,A041.jpg,1 Point,1 Point,440 points,PS2_L8.csv,,,,,,,,,,,,,,,,,,,,,,,,,,,,,0,7,7,7,0,6,6,6,,,,,,,,,,,,,,,,,,,3158.0277469589782,p,1.0601357069972437,3159.228683667985,,,,,,272575,B,2024-12-14_14h35.50.529,EPIDM,2023.1.2,None,
6550.jpg,9582.jpg,5 Points,5 Points,445 points,PS2_L8.csv,,,,,,,,,,,,,,,,,,,,,,,,,,,,,0,7,7,7,0,7,7,7,,,,,,,,,,,,,,,,,,,3163.4113664589822,p,1.348175582010299,3164.8734661259805,,,,,,272575,B,2024-12-14_14h35.50.529,EPIDM,2023.1.2,None,
8040.jpg,7185.jpg,1 Point,1 Point,446 points,PS2_L8.csv,,,,,,,,,,,,,,,,,,,,,,,,,,,,,0,7,7,7,0,8,8,8,,,,,,,,,,,,,,,,,,,3169.080544167984,q,0.5513465410040226,3169.7021340429783,,,,,,272575,B,2024-12-14_14h35.50.529,EPIDM,2023.1.2,None,
P233.jpg,3060.jpg,1 Point,1 Point,447 points,PS2_L8.csv,,,,,,,,,,,,,,,,,,,,,,,,,,,,,0,7,7,7,0,9,9,9,,,,,,,,,,,,,,,,,,,3173.9436860429996,p,0.9203947500209324,3174.9717583339952,,,,,,272575,B,2024-12-14_14h35.50.529,EPIDM,2023.1.2,None,
1090.jpg,P217.jpg,5 Points,5 Points,452 points,PS2_L8.csv,,,,,,,,,,,,,,,,,,,,,,,,,,,,,0,7,7,7,0,10,10,10,,,,,,,,,,,,,,,,,,,3179.1747668339813,p,0.9770210410060827,3180.2883066679933,,,,,,272575,B,2024-12-14_14h35.50.529,EPIDM,2023.1.2,None,
9405.jpg,6250.2.jpg,3 Points,3 Points,455 points,PS2_L8.csv,,,,,,,,,,,,,,,,,,,,,,,,,,,,,0,7,7,7,0,11,11,11,,,,,,,,,,,,,,,,,,,3184.4602613339957,p,1.0186280410271138,3185.561113709002,,,,,,272575,B,2024-12-14_14h35.50.529,EPIDM,2023.1.2,None,
1610.jpg,F203.jpg,0 Points,0 Points,455 points,PS2_L8.csv,,,,,,,,,,,,,,,,,,,,,,,,,,,,,0,7,7,7,0,12,12,12,,,,,,,,,,,,,,,,,,,3189.7954747089825,q,0.5484598740295041,3190.4655250840005,,,,,,272575,B,2024-12-14_14h35.50.529,EPIDM,2023.1.2,None,
P222.jpg,9401.jpg,2 Points,2 Points,457 points,PS2_L8.csv,,,,,,,,,,,,,,,,,,,,,,,,,,,,,0,7,7,7,0,13,13,13,,,,,,,,,,,,,,,,,,,3194.6681869589956,p,0.8991092490032315,3195.683597833995,2,1.2704140410060063,,,,272575,B,2024-12-14_14h35.50.529,EPIDM,2023.1.2,None,
5471.jpg,7352.jpg,2 Points,2 Points,459 points,PS2_L8.csv,,,,,,,,,,,,,,,,,,,,,,,,,,,,,0,7,7,7,0,14,14,14,,,,,,,,,,,,,,,,,,,3201.2690497089934,p,0.9144552910001948,3202.27769591799,,,,,,272575,B,2024-12-14_14h35.50.529,EPIDM,2023.1.2,None,
9042.jpg,2753.jpg,0 Points,0 Points,459 points,PS2_L8.csv,,,,,,,,,,,,,,,,,,,,,,,,,,,,,0,7,7,7,0,15,15,15,,,,,,,,,,,,,,,,,,,3206.493248208979,p,0.9375115410075523,3207.49235062598,,,,,,272575,B,2024-12-14_14h35.50.529,EPIDM,2023.1.2,None,
8311.jpg,4609.jpg,2 Points,2 Points,461 points,PS2_L8.csv,,,,,,,,,,,,,,,,,,,,,,,,,,,,,0,7,7,7,0,16,16,16,,,,,,,,,,,,,,,,,,,3211.753095625987,p,0.5889782080193982,3212.413337083999,,,,,,272575,B,2024-12-14_14h35.50.529,EPIDM,2023.1.2,None,
2320.jpg,2791.jpg,4 Points,4 Points,465 points,PS2_L8.csv,,,,,,,,,,,,,,,,,,,,,,,,,,,,,0,7,7,7,0,17,17,17,,,,,,,,,,,,,,,,,,,3216.675861667987,p,0.7473981239891145,3217.485573168,,,,,,272575,B,2024-12-14_14h35.50.529,EPIDM,2023.1.2,None,
F365.jpg,3180.jpg,5 Points,5 Points,470 points,PS2_L8.csv,,,,,,,,,,,,,,,,,,,,,,,,,,,,,0,7,7,7,0,18,18,18,,,,,,,,,,,,,,,,,,,3221.743003251002,p,0.9664504570246208,3222.8185144589806,,,,,,272575,B,2024-12-14_14h35.50.529,EPIDM,2023.1.2,None,
9300.jpg,1050.jpg,4 Points,4 Points,474 points,PS2_L8.csv,,,,,,,,,,,,,,,,,,,,,,,,,,,,,0,7,7,7,0,19,19,19,,,,,,,,,,,,,,,,,,,3227.042618708976,p,0.9974337909952737,3228.132763583999,,,,,,272575,B,2024-12-14_14h35.50.529,EPIDM,2023.1.2,None,
6150.jpg,2206.jpg,0 Points,0 Points,474 points,PS2_L8.csv,,,,,,,,,,,,,,,,,,,,,,,,,,,,,0,7,7,7,0,20,20,20,,,,,,,,,,,,,,,,,,,3232.3587472509826,q,0.8163409580010921,3233.244989625993,,,,,,272575,B,2024-12-14_14h35.50.529,EPIDM,2023.1.2,None,
6260.jpg,3062.jpg,3 Points,3 Points,477 points,PS2_L8.csv,,,,,,,,,,,,,,,,,,,,,,,,,,,,,0,7,7,7,0,21,21,21,,,,,,,,,,,,,,,,,,,3237.482455208985,q,0.8597348750045057,3238.4165885839902,,,,,,272575,B,2024-12-14_14h35.50.529,EPIDM,2023.1.2,None,
6571.jpg,P237.jpg,2 Points,2 Points,479 points,PS2_L8.csv,,,,,,,,,,,,,,,,,,,,,,,,,,,,,0,7,7,7,0,22,22,22,,,,,,,,,,,,,,,,,,,3242.667119125981,q,0.7621312490082346,3243.542000542977,,,,,,272575,B,2024-12-14_14h35.50.529,EPIDM,2023.1.2,None,
7283.jpg,1720.jpg,4 Points,4 Points,483 points,PS2_L8.csv,,,,,,,,,,,,,,,,,,,,,,,,,,,,,0,7,7,7,0,23,23,23,,,,,,,,,,,,,,,,,,,3247.75923104299,p,0.830315249011619,3248.668943542987,,,3259.1532734179928,space,5.860470124986023,272575,B,2024-12-14_14h35.50.529,EPIDM,2023.1.2,None,
3160.jpg,6210.jpg,1 Point,1 Point,484 points,PS2_L9.csv,,,,,,,,,,,,,,,,,,,,,,,,,,,,,0,8,8,8,0,0,0,0,,,,,,,,,,,,,,,,,,,3268.328805250989,p,0.716329791030148,3269.1158529589884,,,,,,272575,B,2024-12-14_14h35.50.529,EPIDM,2023.1.2,None,
2100.jpg,7205.jpg,5 Points,5 Points,489 points,PS2_L9.csv,,,,,,,,,,,,,,,,,,,,,,,,,,,,,0,8,8,8,0,1,1,1,,,,,,,,,,,,,,,,,,,3273.367857833975,q,0.5491742489975877,3273.9922775009763,5,1.1457072490011342,,,,272575,B,2024-12-14_14h35.50.529,EPIDM,2023.1.2,None,
9110.jpg,3051.jpg,1 Point,1 Point,490 points,PS2_L9.csv,,,,,,,,,,,,,,,,,,,,,,,,,,,,,0,8,8,8,0,2,2,2,,,,,,,,,,,,,,,,,,,3279.4666923759796,q,0.6830524159886409,3280.235122042999,,,,,,272575,B,2024-12-14_14h35.50.529,EPIDM,2023.1.2,None,
9101.jpg,9571.jpg,2 Points,2 Points,492 points,PS2_L9.csv,,,,,,,,,,,,,,,,,,,,,,,,,,,,,0,8,8,8,0,3,3,3,,,,,,,,,,,,,,,,,,,3284.475123917975,p,0.8415502910211217,3285.3929393339786,,,,,,272575,B,2024-12-14_14h35.50.529,EPIDM,2023.1.2,None,
5410.jpg,1450.jpg,5 Points,5 Points,497 points,PS2_L9.csv,,,,,,,,,,,,,,,,,,,,,,,,,,,,,0,8,8,8,0,4,4,4,,,,,,,,,,,,,,,,,,,3289.6341160839947,q,0.5954203750297893,3290.287086417986,,,,,,272575,B,2024-12-14_14h35.50.529,EPIDM,2023.1.2,None,
F149.jpg,3030.jpg,0 Points,0 Points,497 points,PS2_L9.csv,,,,,,,,,,,,,,,,,,,,,,,,,,,,,0,8,8,8,0,5,5,5,,,,,,,,,,,,,,,,,,,3294.5452167929907,p,0.971463956986554,3295.6207522089826,,,,,,272575,B,2024-12-14_14h35.50.529,EPIDM,2023.1.2,None,
3266.jpg,7360.jpg,1 Point,1 Point,498 points,PS2_L9.csv,,,,,,,,,,,,,,,,,,,,,,,,,,,,,0,8,8,8,0,6,6,6,,,,,,,,,,,,,,,,,,,3299.825075708999,p,0.6605315830092877,3300.5961756259785,,,,,,272575,B,2024-12-14_14h35.50.529,EPIDM,2023.1.2,None,
5660.jpg,5201.jpg,0 Points,0 Points,498 points,PS2_L9.csv,,,,,,,,,,,,,,,,,,,,,,,,,,,,,0,8,8,8,0,7,7,7,,,,,,,,,,,,,,,,,,,3304.7976331259997,q,0.3991837490175385,3305.269499458984,,,,,,272575,B,2024-12-14_14h35.50.529,EPIDM,2023.1.2,None,
1945.jpg,2800.jpg,4 Points,4 Points,502 points,PS2_L9.csv,,,,,,,,,,,,,,,,,,,,,,,,,,,,,0,8,8,8,0,8,8,8,,,,,,,,,,,,,,,,,,,3309.5175005009805,p,0.7591544990136754,3310.3521813339903,,,,,,272575,B,2024-12-14_14h35.50.529,EPIDM,2023.1.2,None,
3000.jpg,6200.jpg,5 Points,5 Points,507 points,PS2_L9.csv,,,,,,,,,,,,,,,,,,,,,,,,,,,,,0,8,8,8,0,9,9,9,,,,,,,,,,,,,,,,,,,3314.596813625976,p,0.5912881660042331,3315.2617356679984,,,,,,272575,B,2024-12-14_14h35.50.529,EPIDM,2023.1.2,None,
2215.jpg,2512.jpg,1 Point,1 Point,508 points,PS2_L9.csv,,,,,,,,,,,,,,,,,,,,,,,,,,,,,0,8,8,8,0,10,10,10,,,,,,,,,,,,,,,,,,,3319.503849167988,p,0.7563556660024915,3320.332408583985,,,,,,272575,B,2024-12-14_14h35.50.529,EPIDM,2023.1.2,None,
5460.jpg,5800.jpg,0 Points,0 Points,508 points,PS2_L9.csv,,,,,,,,,,,,,,,,,,,,,,,,,,,,,0,8,8,8,0,11,11,11,,,,,,,,,,,,,,,,,,,3324.5835161680006,p,0.6993381660140585,3325.367879125988,,,,,,272575,B,2024-12-14_14h35.50.529,EPIDM,2023.1.2,None,
3061.jpg,2717.jpg,4 Points,4 Points,512 points,PS2_L9.csv,,,,,,,,,,,,,,,,,,,,,,,,,,,,,0,8,8,8,0,12,12,12,,,,,,,,,,,,,,,,,,,3329.6131644179986,q,1.463054916006513,3331.145114250976,,,,,,272575,B,2024-12-14_14h35.50.529,EPIDM,2023.1.2,None,
7380.jpg,1220.jpg,1 Point,1 Point,513 points,PS2_L9.csv,,,,,,,,,,,,,,,,,,,,,,,,,,,,,0,8,8,8,0,13,13,13,,,,,,,,,,,,,,,,,,,3335.3974047929805,p,1.102971874002833,3336.5643976260035,1,1.280024374020286,,,,272575,B,2024-12-14_14h35.50.529,EPIDM,2023.1.2,None,
1740.jpg,7480.jpg,0 Points,0 Points,513 points,PS2_L9.csv,,,,,,,,,,,,,,,,,,,,,,,,,,,,,0,8,8,8,0,14,14,14,,,,,,,,,,,,,,,,,,,3342.1660429589974,p,1.005539250007132,3343.2432820429967,,,,,,272575,B,2024-12-14_14h35.50.529,EPIDM,2023.1.2,None,
7285.jpg,4233.jpg,5 Points,5 Points,518 points,PS2_L9.csv,,,,,,,,,,,,,,,,,,,,,,,,,,,,,0,8,8,8,0,15,15,15,,,,,,,,,,,,,,,,,,,3347.492722458992,q,0.7608097909833305,3348.32394695899,,,,,,272575,B,2024-12-14_14h35.50.529,EPIDM,2023.1.2,None,
6830.jpg,6212.jpg,4 Points,4 Points,522 points,PS2_L9.csv,,,,,,,,,,,,,,,,,,,,,,,,,,,,,0,8,8,8,0,16,16,16,,,,,,,,,,,,,,,,,,,3352.562595542986,p,1.5930140409909654,3354.2199904180015,,,,,,272575,B,2024-12-14_14h35.50.529,EPIDM,2023.1.2,None,
7830.jpg,2499.jpg,3 Points,3 Points,525 points,PS2_L9.csv,,,,,,,,,,,,,,,,,,,,,,,,,,,,,0,8,8,8,0,17,17,17,,,,,,,,,,,,,,,,,,,3358.4755589589768,p,1.3275594580045436,3359.8710590429837,,,,,,272575,B,2024-12-14_14h35.50.529,EPIDM,2023.1.2,None,
9520.jpg,1931.jpg,3 Points,3 Points,528 points,PS2_L9.csv,,,,,,,,,,,,,,,,,,,,,,,,,,,,,0,8,8,8,0,18,18,18,,,,,,,,,,,,,,,,,,,3364.1153322089813,p,0.7832275410182774,3364.9633099589846,,,,,,272575,B,2024-12-14_14h35.50.529,EPIDM,2023.1.2,None,
9160.jpg,1200.jpg,4 Points,4 Points,532 points,PS2_L9.csv,,,,,,,,,,,,,,,,,,,,,,,,,,,,,0,8,8,8,0,19,19,19,,,,,,,,,,,,,,,,,,,3369.2389964179893,q,1.0203370829985943,3370.335163458978,,,,,,272575,B,2024-12-14_14h35.50.529,EPIDM,2023.1.2,None,
2020.jpg,1947.jpg,5 Points,5 Points,537 points,PS2_L9.csv,,,,,,,,,,,,,,,,,,,,,,,,,,,,,0,8,8,8,0,20,20,20,,,,,,,,,,,,,,,,,,,3374.5824755840003,q,1.2046427490131464,3375.8548429179937,,,,,,272575,B,2024-12-14_14h35.50.529,EPIDM,2023.1.2,None,
4535.jpg,1811.jpg,1 Point,1 Point,538 points,PS2_L9.csv,,,,,,,,,,,,,,,,,,,,,,,,,,,,,0,8,8,8,0,21,21,21,,,,,,,,,,,,,,,,,,,3380.1052270839864,p,1.1858103740087245,3381.3736263759783,,,,,,272575,B,2024-12-14_14h35.50.529,EPIDM,2023.1.2,None,
9910.jpg,6940.jpg,2 Points,2 Points,540 points,PS2_L9.csv,,,,,,,,,,,,,,,,,,,,,,,,,,,,,0,8,8,8,0,22,22,22,,,,,,,,,,,,,,,,,,,3385.6157674589776,q,1.6267977910174523,3387.3123986260034,,,,,,272575,B,2024-12-14_14h35.50.529,EPIDM,2023.1.2,None,
9480.jpg,9250.jpg,0 Points,0 Points,540 points,PS2_L9.csv,,,,,,,,,,,,,,,,,,,,,,,,,,,,,0,8,8,8,0,23,23,23,,,,,,,,,,,,,,,,,,,3391.5720431259833,p,1.8302872499916703,3393.4616331259895,,,3403.9437925429957,space,10.921155791002093,272575,B,2024-12-14_14h35.50.529,EPIDM,2023.1.2,None,
1660.jpg,2840.jpg,2 Points,2 Points,542 points,PS2_L10.csv,,,,,,,,,,,,,,,,,,,,,,,,,,,,,0,9,9,9,0,0,0,0,,,,,,,,,,,,,,,,,,,3418.184371083975,p,0.6647664580086712,3418.922331542999,,,,,,272575,B,2024-12-14_14h35.50.529,EPIDM,2023.1.2,None,
2691.jpg,7640.jpg,0 Points,0 Points,542 points,PS2_L10.csv,,,,,,,,,,,,,,,,,,,,,,,,,,,,,0,9,9,9,0,1,1,1,,,,,,,,,,,,,,,,,,,3423.174352792994,q,0.427821916033281,3423.661431417975,0,0.5172677080263384,,,,272575,B,2024-12-14_14h35.50.529,EPIDM,2023.1.2,None,
9180.jpg,9046.jpg,3 Points,3 Points,545 points,PS2_L10.csv,,,,,,,,,,,,,,,,,,,,,,,,,,,,,0,9,9,9,0,2,2,2,,,,,,,,,,,,,,,,,,,3428.511652458983,p,0.9621167909936048,3429.548505208979,,,,,,272575,B,2024-12-14_14h35.50.529,EPIDM,2023.1.2,None,
8041.jpg,2271.jpg,2 Points,2 Points,547 points,PS2_L10.csv,,,,,,,,,,,,,,,,,,,,,,,,,,,,,0,9,9,9,0,3,3,3,,,,,,,,,,,,,,,,,,,3433.801683292986,q,0.6001605409837794,3434.4777190839814,,,,,,272575,B,2024-12-14_14h35.50.529,EPIDM,2023.1.2,None,
1661.jpg,1321.jpg,3 Points,3 Points,550 points,PS2_L10.csv,,,,,,,,,,,,,,,,,,,,,,,,,,,,,0,9,9,9,0,4,4,4,,,,,,,,,,,,,,,,,,,3438.7242310429865,p,0.9805160819960292,3439.7660998339998,,,,,,272575,B,2024-12-14_14h35.50.529,EPIDM,2023.1.2,None,
9430.jpg,3010.jpg,5 Points,5 Points,555 points,PS2_L10.csv,,,,,,,,,,,,,,,,,,,,,,,,,,,,,0,9,9,9,0,5,5,5,,,,,,,,,,,,,,,,,,,3444.0205416259996,p,0.8451092489995062,3444.9220568339806,,,,,,272575,B,2024-12-14_14h35.50.529,EPIDM,2023.1.2,None,
2616.jpg,7238.jpg,4 Points,4 Points,559 points,PS2_L10.csv,,,,,,,,,,,,,,,,,,,,,,,,,,,,,0,9,9,9,0,6,6,6,,,,,,,,,,,,,,,,,,,3449.1869379589916,p,0.6301599580037873,3449.8880999179964,,,,,,272575,B,2024-12-14_14h35.50.529,EPIDM,2023.1.2,None,
9470.jpg,9400.jpg,3 Points,3 Points,562 points,PS2_L10.csv,,,,,,,,,,,,,,,,,,,,,,,,,,,,,0,9,9,9,0,7,7,7,,,,,,,,,,,,,,,,,,,3454.1406638759945,q,0.9554153330100235,3455.16619912599,,,,,,272575,B,2024-12-14_14h35.50.529,EPIDM,2023.1.2,None,
8260.jpg,8280.jpg,3 Points,3 Points,565 points,PS2_L10.csv,,,,,,,,,,,,,,,,,,,,,,,,,,,,,0,9,9,9,0,8,8,8,,,,,,,,,,,,,,,,,,,3459.4178597930004,q,0.39187854100600816,3459.876719625987,,,,,,272575,B,2024-12-14_14h35.50.529,EPIDM,2023.1.2,None,
9230.jpg,9181.jpg,0 Points,0 Points,565 points,PS2_L10.csv,,,,,,,,,,,,,,,,,,,,,,,,,,,,,0,9,9,9,0,9,9,9,,,,,,,,,,,,,,,,,,,3464.1312200429966,p,0.5897578740259632,3464.791140625981,,,,,,272575,B,2024-12-14_14h35.50.529,EPIDM,2023.1.2,None,
6834.jpg,9120.jpg,5 Points,5 Points,570 points,PS2_L10.csv,,,,,,,,,,,,,,,,,,,,,,,,,,,,,0,9,9,9,0,10,10,10,,,,,,,,,,,,,,,,,,,3469.0360267089854,p,0.9250321250001434,3470.016646167991,,,,,,272575,B,2024-12-14_14h35.50.529,EPIDM,2023.1.2,None,
2440.jpg,7351.jpg,4 Points,4 Points,574 points,PS2_L10.csv,,,,,,,,,,,,,,,,,,,,,,,,,,,,,0,9,9,9,0,11,11,11,,,,,,,,,,,,,,,,,,,3474.2763448759797,p,0.7574958320183214,3475.1082828340004,,,,,,272575,B,2024-12-14_14h35.50.529,EPIDM,2023.1.2,None,
9280.jpg,9390.jpg,1 Point,1 Point,575 points,PS2_L10.csv,,,,,,,,,,,,,,,,,,,,,,,,,,,,,0,9,9,9,0,12,12,12,,,,,,,,,,,,,,,,,,,3479.369106458995,q,0.5994656240218319,3480.0428539179848,,,,,,272575,B,2024-12-14_14h35.50.529,EPIDM,2023.1.2,None,
7186.jpg,9182.jpg,2 Points,2 Points,577 points,PS2_L10.csv,,,,,,,,,,,,,,,,,,,,,,,,,,,,,0,9,9,9,0,13,13,13,,,,,,,,,,,,,,,,,,,3484.286097750999,q,0.49060491600539535,3484.86278491799,2,1.2538817500171717,,,,272575,B,2024-12-14_14h35.50.529,EPIDM,2023.1.2,None,
7820.jpg,1121.jpg,0 Points,0 Points,577 points,PS2_L10.csv,,,,,,,,,,,,,,,,,,,,,,,,,,,,,0,9,9,9,0,14,14,14,,,,,,,,,,,,,,,,,,,3490.4177096259955,None,,,,,,,,272575,B,2024-12-14_14h35.50.529,EPIDM,2023.1.2,None,
1110.jpg,9331.jpg,2 Points,2 Points,579 points,PS2_L10.csv,,,,,,,,,,,,,,,,,,,,,,,,,,,,,0,9,9,9,0,15,15,15,,,,,,,,,,,,,,,,,,,3497.919691208983,q,0.4876642070012167,3498.483310083975,,,,,,272575,B,2024-12-14_14h35.50.529,EPIDM,2023.1.2,None,
9001.jpg,9620.jpg,1 Point,1 Point,580 points,PS2_L10.csv,,,,,,,,,,,,,,,,,,,,,,,,,,,,,0,9,9,9,0,16,16,16,,,,,,,,,,,,,,,,,,,3502.722434125986,q,0.6945069579815026,3503.4840522930026,,,,,,272575,B,2024-12-14_14h35.50.529,EPIDM,2023.1.2,None,
5535.jpg,8210.jpg,3 Points,3 Points,583 points,PS2_L10.csv,,,,,,,,,,,,,,,,,,,,,,,,,,,,,0,9,9,9,0,17,17,17,,,,,,,,,,,,,,,,,,,3507.7294530429936,q,0.5036443740245886,3508.3028530839947,,,,,,272575,B,2024-12-14_14h35.50.529,EPIDM,2023.1.2,None,
7950.jpg,7187.jpg,1 Point,1 Point,584 points,PS2_L10.csv,,,,,,,,,,,,,,,,,,,,,,,,,,,,,0,9,9,9,0,18,18,18,,,,,,,,,,,,,,,,,,,3512.546474000992,p,0.87040379102109,3513.4774515429744,,,,,,272575,B,2024-12-14_14h35.50.529,EPIDM,2023.1.2,None,
3250.jpg,A053.jpg,3 Points,3 Points,587 points,PS2_L10.csv,,,,,,,,,,,,,,,,,,,,,,,,,,,,,0,9,9,9,0,19,19,19,,,,,,,,,,,,,,,,,,,3517.7283482509956,q,0.5830098739825189,3518.4231323759886,,,,,,272575,B,2024-12-14_14h35.50.529,EPIDM,2023.1.2,None,
2205.jpg,3053.jpg,4 Points,4 Points,591 points,PS2_L10.csv,,,,,,,,,,,,,,,,,,,,,,,,,,,,,0,9,9,9,0,20,20,20,,,,,,,,,,,,,,,,,,,3522.638278458995,p,0.6114891659817658,3523.3043596679927,,,,,,272575,B,2024-12-14_14h35.50.529,EPIDM,2023.1.2,None,
5594.jpg,5750.jpg,5 Points,5 Points,596 points,PS2_L10.csv,,,,,,,,,,,,,,,,,,,,,,,,,,,,,0,9,9,9,0,21,21,21,,,,,,,,,,,,,,,,,,,3527.559152167989,q,0.3842572499997914,3528.0159811679914,,,,,,272575,B,2024-12-14_14h35.50.529,EPIDM,2023.1.2,None,
6900.jpg,8531.jpg,4 Points,4 Points,600 points,PS2_L10.csv,,,,,,,,,,,,,,,,,,,,,,,,,,,,,0,9,9,9,0,22,22,22,,,,,,,,,,,,,,,,,,,3532.2560995009844,p,0.5426766659948044,3532.8752807929995,,,,,,272575,B,2024-12-14_14h35.50.529,EPIDM,2023.1.2,None,
1019.jpg,2120.jpg,0 Points,0 Points,600 points,PS2_L10.csv,,,,,,,,,,,,,,,,,,,,,,,,,,,,,0,9,9,9,0,23,23,23,,,,,,,,,,,,,,,,,,,3537.118368667987,q,0.6574524999887217,3537.8533381680027,,,3548.3188685839996,space,3.543202458007727,272575,B,2024-12-14_14h35.50.529,EPIDM,2023.1.2,None,
