L_Scene,R_Scene,Points_L,Points_R,PtTotal,blockFile,Instructions_Loop.thisRepN,Instructions_Loop.thisTrialN,Instructions_Loop.thisN,Instructions_Loop.thisIndex,Redo_Instructions_Loop.thisRepN,Redo_Instructions_Loop.thisTrialN,Redo_Instructions_Loop.thisN,Redo_Instructions_Loop.thisIndex,Practice_Encoding_Loop.thisRepN,Practice_Encoding_Loop.thisTrialN,Practice_Encoding_Loop.thisN,Practice_Encoding_Loop.thisIndex,Practice_Response_Fail_Loop.thisRepN,Practice_Response_Fail_Loop.thisTrialN,Practice_Response_Fail_Loop.thisN,Practice_Response_Fail_Loop.thisIndex,Practice_FB_Loop.thisRepN,Practice_FB_Loop.thisTrialN,Practice_FB_Loop.thisN,Practice_FB_Loop.thisIndex,Practice_Attention_Loop.thisRepN,Practice_Attention_Loop.thisTrialN,Practice_Attention_Loop.thisN,Practice_Attention_Loop.thisIndex,Practice_EncBrk_Loop.thisRepN,Practice_EncBrk_Loop.thisTrialN,Practice_EncBrk_Loop.thisN,Practice_EncBrk_Loop.thisIndex,Encoding_Loop.thisRepN,Encoding_Loop.thisTrialN,Encoding_Loop.thisN,Encoding_Loop.thisIndex,EncStim_Loop.thisRepN,EncStim_Loop.thisTrialN,EncStim_Loop.thisN,EncStim_Loop.thisIndex,Response_Fail_Loop.thisRepN,Response_Fail_Loop.thisTrialN,Response_Fail_Loop.thisN,Response_Fail_Loop.thisIndex,FB_Loop.thisRepN,FB_Loop.thisTrialN,FB_Loop.thisN,FB_Loop.thisIndex,Attention_Loop.thisRepN,Attention_Loop.thisTrialN,Attention_Loop.thisN,Attention_Loop.thisIndex,EncBrk_Loop.thisRepN,EncBrk_Loop.thisTrialN,EncBrk_Loop.thisN,EncBrk_Loop.thisIndex,Transition_Enc.keys,Transition_Enc.rt,Encoding_Resp.started,Encoding_Resp.keys,Encoding_Resp.rt,R_Point_FB_Stim.started,Attn_resp.keys,Attn_resp.rt,Progress_Tracker.started,EncBrk_Resp.keys,EncBrk_Resp.rt,Encoding_Resp.stopped,participant,Group,date,expName,psychopyVersion,frameRate,
,,,,,,,,,,,,,,,,,,,,,,,,,,,,,,,,,,,,,,,,,,,,,,,,,,,,,,,,,,space,4.538471582985949,,,,,,,,,,,47,B,2024-12-16_12h30.56.977,EPIDM,2023.1.2,None,
A060.jpg,F041.jpg,5 Points,5 Points,5 Points,,,,,,,,,,0,0,0,0,,,,,,,,,,,,,,,,,,,,,,,,,,,,,,,,,,,,,,,,,,,361.65898241702234,p,1.617405749973841,363.42354000001797,,,,,,,47,B,2024-12-16_12h30.56.977,EPIDM,2023.1.2,None,
O161.jpg,1812.jpg,2 Points,2 Points,7 Points,,,,,,,,,,0,1,1,1,,,,,,,,,,,,,,,,,,,,,,,,,,,,,,,,,,,,,,,,,,,367.58839212500607,p,1.4062096659617964,369.14659670900437,,,,,,,47,B,2024-12-16_12h30.56.977,EPIDM,2023.1.2,None,
O013.jpg,A001.jpg,3 Points,3 Points,10 Points,,,,,,,,,,0,2,2,2,,,,,,,,,,,,,,,,,,,,,,,,,,,,,,,,,,,,,,,,,,,373.31173291700543,q,1.4514549999730662,374.9041952920088,,,,,,,47,B,2024-12-16_12h30.56.977,EPIDM,2023.1.2,None,
P036.jpg,F273.jpg,5 Points,5 Points,15 Points,,,,,,,,,,0,3,3,3,,,,,,,,,,,,,,,,,,,,,,,,,,,,,,,,,,,,,,,,,,,379.06465683400165,p,1.2750378739729058,380.5049906670174,,,,,,,47,B,2024-12-16_12h30.56.977,EPIDM,2023.1.2,None,
L130.jpg,2393.jpg,0 Points,0 Points,15 Points,,,,,,,,,,0,4,4,4,,,,,,,,,,,,,,,,,,,,,,,,,,,,,,,,,,,,,,,,,,,384.6447803750052,q,1.5748232909827493,386.357952750026,0,3.937677749985596,,,,,47,B,2024-12-16_12h30.56.977,EPIDM,2023.1.2,None,
F279.jpg,P033.jpg,3 Points,3 Points,18 Points,,,,,,,,,,0,5,5,5,,,,,,,,,,,,,,,,,,,,,,,,,,,,,,,,,,,,,,,,,,,394.56229908400564,p,2.5041422909707762,397.23389287502505,,,,,,,47,B,2024-12-16_12h30.56.977,EPIDM,2023.1.2,None,
A104.jpg,2593.jpg,2 Points,2 Points,20 Points,,,,,,,,,,0,6,6,6,,,,,,,,,,,,,,,,,,,,,,,,,,,,,,,,,,,,,,,,,,,401.37509662500815,p,0.8597702499828301,402.37332029201207,,,,,,,47,B,2024-12-16_12h30.56.977,EPIDM,2023.1.2,None,
2598.jpg,2605.jpg,0 Points,0 Points,20 Points,,,,,,,,,,0,7,7,7,,,,,,,,,,,,,,,,,,,,,,,,,,,,,,,,,,,,,,,,,,,406.5494348750217,q,1.419888040953083,408.0370004590077,,,,,,,47,B,2024-12-16_12h30.56.977,EPIDM,2023.1.2,None,
L005.jpg,O011.jpg,1 Points,1 Points,21 Points,,,,,,,,,,0,8,8,8,,,,,,,,,,,,,,,,,,,,,,,,,,,,,,,,,,,,,,,,,,,412.2863618340052,q,1.9169217079761438,414.34647441701964,,,,,,,47,B,2024-12-16_12h30.56.977,EPIDM,2023.1.2,None,
8186.jpg,F078.jpg,2 Points,2 Points,23 Points,,,,,,,,,,0,9,9,9,,,,,,,,,,,,,,,,,,,,,,,,,,,,,,,,,,,,,,,,,,,418.52769187500235,p,1.9065502919838764,420.5642560420092,2,2.205005790980067,432.9967149590084,space,22.029449540976202,,47,B,2024-12-16_12h30.56.977,EPIDM,2023.1.2,None,
,,,,,,,,,,,,,,,,,,,,,,,,,,,,,,,,,,,,,,,,,,,,,,,,,,,,,,,,,,space,3.9701974579948,,,,,,,,,,,47,B,2024-12-16_12h30.56.977,EPIDM,2023.1.2,None,
7284.jpg,8021.jpg,4 Points,4 Points,4 Points,PS2_L1.csv,,,,,,,,,,,,,,,,,,,,,,,,,,,,,0,0,0,0,0,0,0,0,,,,,,,,,,,,,,,,,,,470.4788105840271,p,1.1631494579778519,471.72530595900025,,,,,,,47,B,2024-12-16_12h30.56.977,EPIDM,2023.1.2,None,
2214.jpg,4500.jpg,3 Points,3 Points,7 points,PS2_L1.csv,,,,,,,,,,,,,,,,,,,,,,,,,,,,,0,0,0,0,0,1,1,1,,,,,,,,,,,,,,,,,,,475.95126291702036,q,1.186158832977526,477.21609195900965,3,1.6816896659729537,,,,,47,B,2024-12-16_12h30.56.977,EPIDM,2023.1.2,None,
1280.jpg,9402.jpg,2 Points,2 Points,9 points,PS2_L1.csv,,,,,,,,,,,,,,,,,,,,,,,,,,,,,0,0,0,0,0,2,2,2,,,,,,,,,,,,,,,,,,,483.2010122500069,p,2.320700957963709,485.5908843750076,,,,,,,47,B,2024-12-16_12h30.56.977,EPIDM,2023.1.2,None,
1650.jpg,2130.jpg,1 Points,1 Points,10 points,PS2_L1.csv,,,,,,,,,,,,,,,,,,,,,,,,,,,,,0,0,0,0,0,3,3,3,,,,,,,,,,,,,,,,,,,489.83409304200904,p,2.1675510829663835,492.07372808401124,,,,,,,47,B,2024-12-16_12h30.56.977,EPIDM,2023.1.2,None,
2221.jpg,2270.jpg,2 Points,2 Points,12 points,PS2_L1.csv,,,,,,,,,,,,,,,,,,,,,,,,,,,,,0,0,0,0,0,4,4,4,,,,,,,,,,,,,,,,,,,496.31144087502616,None,,,,,,,,500.01355562501703,47,B,2024-12-16_12h30.56.977,EPIDM,2023.1.2,None,
9373.jpg,9410.jpg,0 Points,0 Points,12 points,PS2_L1.csv,,,,,,,,,,,,,,,,,,,,,,,,,,,,,0,0,0,0,0,5,5,5,,,,,,,,,,,,,,,,,,,503.81096658401657,p,0.8137910419609398,504.6959054590261,,,,,,,47,B,2024-12-16_12h30.56.977,EPIDM,2023.1.2,None,
4250.jpg,7060.jpg,5 Points,5 Points,17 points,PS2_L1.csv,,,,,,,,,,,,,,,,,,,,,,,,,,,,,0,0,0,0,0,6,6,6,,,,,,,,,,,,,,,,,,,508.92737333400873,q,0.4983384169754572,509.50682200002484,,,,,,,47,B,2024-12-16_12h30.56.977,EPIDM,2023.1.2,None,
5130.jpg,1810.jpg,3 Points,3 Points,20 points,PS2_L1.csv,,,,,,,,,,,,,,,,,,,,,,,,,,,,,0,0,0,0,0,7,7,7,,,,,,,,,,,,,,,,,,,513.7405534170102,p,1.676803457958158,515.4991944590001,,,,,,,47,B,2024-12-16_12h30.56.977,EPIDM,2023.1.2,None,
6370.jpg,1270.jpg,4 Points,4 Points,24 points,PS2_L1.csv,,,,,,,,,,,,,,,,,,,,,,,,,,,,,0,0,0,0,0,8,8,8,,,,,,,,,,,,,,,,,,,519.730308209022,q,0.990829207963543,520.8063002500276,,,,,,,47,B,2024-12-16_12h30.56.977,EPIDM,2023.1.2,None,
5480.jpg,8200.jpg,4 Points,4 Points,28 points,PS2_L1.csv,,,,,,,,,,,,,,,,,,,,,,,,,,,,,0,0,0,0,0,9,9,9,,,,,,,,,,,,,,,,,,,525.0375768750091,q,1.3394256249594036,526.4560652090004,,,,,,,47,B,2024-12-16_12h30.56.977,EPIDM,2023.1.2,None,
2520.jpg,8503.jpg,2 Points,2 Points,30 points,PS2_L1.csv,,,,,,,,,,,,,,,,,,,,,,,,,,,,,0,0,0,0,0,10,10,10,,,,,,,,,,,,,,,,,,,530.6967395840038,p,0.8562937909737229,531.6274947090133,,,,,,,47,B,2024-12-16_12h30.56.977,EPIDM,2023.1.2,None,
5971.jpg,9912.jpg,5 Points,5 Points,35 points,PS2_L1.csv,,,,,,,,,,,,,,,,,,,,,,,,,,,,,0,0,0,0,0,11,11,11,,,,,,,,,,,,,,,,,,,535.8602945840103,q,1.8040827079676092,537.7342307500076,,,,,,,47,B,2024-12-16_12h30.56.977,EPIDM,2023.1.2,None,
7195.jpg,2487.jpg,2 Points,2 Points,37 points,PS2_L1.csv,,,,,,,,,,,,,,,,,,,,,,,,,,,,,0,0,0,0,0,12,12,12,,,,,,,,,,,,,,,,,,,541.9833039170189,p,1.7126660829526372,543.7675706250011,,,,,,,47,B,2024-12-16_12h30.56.977,EPIDM,2023.1.2,None,
6840.jpg,3080.jpg,1 Points,1 Points,38 points,PS2_L1.csv,,,,,,,,,,,,,,,,,,,,,,,,,,,,,0,0,0,0,0,13,13,13,,,,,,,,,,,,,,,,,,,548.0141081670008,p,1.6763664159807377,549.753949083999,1,2.603719957958674,,,,,47,B,2024-12-16_12h30.56.977,EPIDM,2023.1.2,None,
5510.jpg,2514.jpg,5 Points,5 Points,43 points,PS2_L1.csv,,,,,,,,,,,,,,,,,,,,,,,,,,,,,0,0,0,0,0,14,14,14,,,,,,,,,,,,,,,,,,,556.656935209001,p,2.926745791977737,559.6477404170146,,,,,,,47,B,2024-12-16_12h30.56.977,EPIDM,2023.1.2,None,
7170.jpg,2170.jpg,2 Points,2 Points,45 points,PS2_L1.csv,,,,,,,,,,,,,,,,,,,,,,,,,,,,,0,0,0,0,0,15,15,15,,,,,,,,,,,,,,,,,,,563.8964295420155,q,1.583844874985516,565.5497167500143,,,,,,,47,B,2024-12-16_12h30.56.977,EPIDM,2023.1.2,None,
6020.jpg,6300.jpg,2 Points,2 Points,47 points,PS2_L1.csv,,,,,,,,,,,,,,,,,,,,,,,,,,,,,0,0,0,0,0,16,16,16,,,,,,,,,,,,,,,,,,,569.7864554170228,q,2.197364457999356,572.0449105840235,,,,,,,47,B,2024-12-16_12h30.56.977,EPIDM,2023.1.2,None,
1942.jpg,2890.jpg,1 Points,1 Points,48 points,PS2_L1.csv,,,,,,,,,,,,,,,,,,,,,,,,,,,,,0,0,0,0,0,17,17,17,,,,,,,,,,,,,,,,,,,576.2849211670109,q,1.0059394989802968,577.3601171250048,,,,,,,47,B,2024-12-16_12h30.56.977,EPIDM,2023.1.2,None,
6241.jpg,9561.jpg,3 Points,3 Points,51 points,PS2_L1.csv,,,,,,,,,,,,,,,,,,,,,,,,,,,,,0,0,0,0,0,18,18,18,,,,,,,,,,,,,,,,,,,581.6047854589997,q,1.1630394579842687,582.833846500027,,,,,,,47,B,2024-12-16_12h30.56.977,EPIDM,2023.1.2,None,
4536.jpg,2280.jpg,4 Points,4 Points,55 points,PS2_L1.csv,,,,,,,,,,,,,,,,,,,,,,,,,,,,,0,0,0,0,0,19,19,19,,,,,,,,,,,,,,,,,,,587.0729646670225,q,1.743275624990929,588.8908485420106,,,,,,,47,B,2024-12-16_12h30.56.977,EPIDM,2023.1.2,None,
6000.jpg,6836.jpg,4 Points,4 Points,59 points,PS2_L1.csv,,,,,,,,,,,,,,,,,,,,,,,,,,,,,0,0,0,0,0,20,20,20,,,,,,,,,,,,,,,,,,,593.1265345420106,p,1.4418839989812113,594.6342908340157,,,,,,,47,B,2024-12-16_12h30.56.977,EPIDM,2023.1.2,None,
8232.jpg,4279.jpg,5 Points,5 Points,64 points,PS2_L1.csv,,,,,,,,,,,,,,,,,,,,,,,,,,,,,0,0,0,0,0,21,21,21,,,,,,,,,,,,,,,,,,,598.8719677090121,p,0.8080972489842679,599.7647664170072,,,,,,,47,B,2024-12-16_12h30.56.977,EPIDM,2023.1.2,None,
2312.jpg,2722.jpg,1 Points,1 Points,65 points,PS2_L1.csv,,,,,,,,,,,,,,,,,,,,,,,,,,,,,0,0,0,0,0,22,22,22,,,,,,,,,,,,,,,,,,,603.9924542090157,p,1.4546453329676297,605.5186921250133,,,,,,,47,B,2024-12-16_12h30.56.977,EPIDM,2023.1.2,None,
2750.jpg,9050.jpg,4 Points,4 Points,69 points,PS2_L1.csv,,,,,,,,,,,,,,,,,,,,,,,,,,,,,0,0,0,0,0,23,23,23,,,,,,,,,,,,,,,,,,,609.7493369170115,p,1.5066111239721067,611.3266135840095,,,621.7986638750008,space,4.384225707995938,,47,B,2024-12-16_12h30.56.977,EPIDM,2023.1.2,None,
1113.jpg,1240.jpg,3 Points,3 Points,72 points,PS2_L2.csv,,,,,,,,,,,,,,,,,,,,,,,,,,,,,0,1,1,1,0,0,0,0,,,,,,,,,,,,,,,,,,,629.4922976670205,q,2.0431132489757147,631.6028722090123,,,,,,,47,B,2024-12-16_12h30.56.977,EPIDM,2023.1.2,None,
8220.jpg,2410.jpg,4 Points,4 Points,76 points,PS2_L2.csv,,,,,,,,,,,,,,,,,,,,,,,,,,,,,0,1,1,1,0,1,1,1,,,,,,,,,,,,,,,,,,,635.842868125008,q,1.3480127079819795,637.2663769590145,4,1.509296665986767,,,,,47,B,2024-12-16_12h30.56.977,EPIDM,2023.1.2,None,
4621.jpg,3550.jpg,2 Points,2 Points,78 points,PS2_L2.csv,,,,,,,,,,,,,,,,,,,,,,,,,,,,,0,1,1,1,0,2,2,2,,,,,,,,,,,,,,,,,,,643.0818265840062,p,0.8293927079648711,643.9895357500063,,,,,,,47,B,2024-12-16_12h30.56.977,EPIDM,2023.1.2,None,
2751.jpg,6313.jpg,3 Points,3 Points,81 points,PS2_L2.csv,,,,,,,,,,,,,,,,,,,,,,,,,,,,,0,1,1,1,0,3,3,3,,,,,,,,,,,,,,,,,,,648.2244046250125,q,2.2866736669966485,650.5780446249992,,,,,,,47,B,2024-12-16_12h30.56.977,EPIDM,2023.1.2,None,
4689.jpg,7009.jpg,5 Points,5 Points,86 points,PS2_L2.csv,,,,,,,,,,,,,,,,,,,,,,,,,,,,,0,1,1,1,0,4,4,4,,,,,,,,,,,,,,,,,,,654.8248347500048,q,1.182148124993546,656.0875128750049,,,,,,,47,B,2024-12-16_12h30.56.977,EPIDM,2023.1.2,None,
6831.jpg,2141.jpg,5 Points,5 Points,91 points,PS2_L2.csv,,,,,,,,,,,,,,,,,,,,,,,,,,,,,0,1,1,1,0,5,5,5,,,,,,,,,,,,,,,,,,,660.3316940840159,p,2.1407775829720777,662.5334857500275,,,,,,,47,B,2024-12-16_12h30.56.977,EPIDM,2023.1.2,None,
9417.jpg,6530.jpg,1 Point,1 Point,92 points,PS2_L2.csv,,,,,,,,,,,,,,,,,,,,,,,,,,,,,0,1,1,1,0,6,6,6,,,,,,,,,,,,,,,,,,,666.7813154590258,p,1.6908766239648685,668.5441258340143,,,,,,,47,B,2024-12-16_12h30.56.977,EPIDM,2023.1.2,None,
7237.jpg,8510.jpg,4 Points,4 Points,96 points,PS2_L2.csv,,,,,,,,,,,,,,,,,,,,,,,,,,,,,0,1,1,1,0,7,7,7,,,,,,,,,,,,,,,,,,,672.7814017920173,q,1.7137779579788912,674.5768132920202,,,,,,,47,B,2024-12-16_12h30.56.977,EPIDM,2023.1.2,None,
4608.jpg,8320.jpg,1 Point,1 Point,97 points,PS2_L2.csv,,,,,,,,,,,,,,,,,,,,,,,,,,,,,0,1,1,1,0,8,8,8,,,,,,,,,,,,,,,,,,,678.8141277500254,q,1.7358150409709197,680.6202968340076,,,,,,,47,B,2024-12-16_12h30.56.977,EPIDM,2023.1.2,None,
9254.jpg,9290.jpg,2 Points,2 Points,99 points,PS2_L2.csv,,,,,,,,,,,,,,,,,,,,,,,,,,,,,0,1,1,1,0,9,9,9,,,,,,,,,,,,,,,,,,,684.867225834023,q,1.6267644169856794,686.556870417,,,,,,,47,B,2024-12-16_12h30.56.977,EPIDM,2023.1.2,None,
9530.jpg,9220.jpg,1 Point,1 Point,100 points,PS2_L2.csv,,,,,,,,,,,,,,,,,,,,,,,,,,,,,0,1,1,1,0,10,10,10,,,,,,,,,,,,,,,,,,,690.8113359590061,q,1.931370957987383,692.8079668340215,,,,,,,47,B,2024-12-16_12h30.56.977,EPIDM,2023.1.2,None,
2092.jpg,2210.jpg,0 Points,0 Points,100 points,PS2_L2.csv,,,,,,,,,,,,,,,,,,,,,,,,,,,,,0,1,1,1,0,11,11,11,,,,,,,,,,,,,,,,,,,697.061155000003,q,1.1368544989963993,698.2601718750084,,,,,,,47,B,2024-12-16_12h30.56.977,EPIDM,2023.1.2,None,
9500.jpg,6360.jpg,1 Point,1 Point,101 points,PS2_L2.csv,,,,,,,,,,,,,,,,,,,,,,,,,,,,,0,1,1,1,0,12,12,12,,,,,,,,,,,,,,,,,,,702.5023905420094,p,1.511372748966096,704.0745764170133,,,,,,,47,B,2024-12-16_12h30.56.977,EPIDM,2023.1.2,None,
2220.jpg,2010.jpg,5 Points,5 Points,106 points,PS2_L2.csv,,,,,,,,,,,,,,,,,,,,,,,,,,,,,0,1,1,1,0,13,13,13,,,,,,,,,,,,,,,,,,,708.3270247920009,q,1.790768999955617,710.1928611250187,5,1.862939998973161,,,,,47,B,2024-12-16_12h30.56.977,EPIDM,2023.1.2,None,
5940.jpg,9411.jpg,0 Points,0 Points,106 points,PS2_L2.csv,,,,,,,,,,,,,,,,,,,,,,,,,,,,,0,1,1,1,0,14,14,14,,,,,,,,,,,,,,,,,,,716.3530802090245,p,1.3014592079853173,717.7251257090247,,,,,,,47,B,2024-12-16_12h30.56.977,EPIDM,2023.1.2,None,
4533.jpg,2385.jpg,3 Points,3 Points,109 points,PS2_L2.csv,,,,,,,,,,,,,,,,,,,,,,,,,,,,,0,1,1,1,0,15,15,15,,,,,,,,,,,,,,,,,,,721.9637347920216,q,1.3372860829695128,723.382562334009,,,,,,,47,B,2024-12-16_12h30.56.977,EPIDM,2023.1.2,None,
9340.jpg,6910.jpg,0 Points,0 Points,109 points,PS2_L2.csv,,,,,,,,,,,,,,,,,,,,,,,,,,,,,0,1,1,1,0,16,16,16,,,,,,,,,,,,,,,,,,,727.6164153749996,p,1.2929579999763519,728.9889272500004,,,,,,,47,B,2024-12-16_12h30.56.977,EPIDM,2023.1.2,None,
8350.jpg,7190.jpg,5 Points,5 Points,114 points,PS2_L2.csv,,,,,,,,,,,,,,,,,,,,,,,,,,,,,0,1,1,1,0,17,17,17,,,,,,,,,,,,,,,,,,,733.2336827500258,q,1.3225030829780735,734.6375175840221,,,,,,,47,B,2024-12-16_12h30.56.977,EPIDM,2023.1.2,None,
6211.jpg,9611.jpg,3 Points,3 Points,117 points ,PS2_L2.csv,,,,,,,,,,,,,,,,,,,,,,,,,,,,,0,1,1,1,0,18,18,18,,,,,,,,,,,,,,,,,,,738.8696532090253,q,2.2239830829785205,741.1693754590233,,,,,,,47,B,2024-12-16_12h30.56.977,EPIDM,2023.1.2,None,
2053.jpg,9415.jpg,4 Points,4 Points,121 points,PS2_L2.csv,,,,,,,,,,,,,,,,,,,,,,,,,,,,,0,1,1,1,0,19,19,19,,,,,,,,,,,,,,,,,,,745.4132059590193,p,2.15915420796955,747.6369010000199,,,,,,,47,B,2024-12-16_12h30.56.977,EPIDM,2023.1.2,None,
2110.jpg,7260.jpg,5 Points,5 Points,126 points,PS2_L2.csv,,,,,,,,,,,,,,,,,,,,,,,,,,,,,0,1,1,1,0,20,20,20,,,,,,,,,,,,,,,,,,,751.8883306670177,q,0.9157226659881417,752.8779887499986,,,,,,,47,B,2024-12-16_12h30.56.977,EPIDM,2023.1.2,None,
2030.jpg,2495.jpg,0 Points,0 Points,126 points,PS2_L2.csv,,,,,,,,,,,,,,,,,,,,,,,,,,,,,0,1,1,1,0,21,21,21,,,,,,,,,,,,,,,,,,,757.1164923340257,q,1.2073436249920633,758.3993873750151,,,,,,,47,B,2024-12-16_12h30.56.977,EPIDM,2023.1.2,None,
1302.jpg,2700.jpg,3 Points,3 Points,129 points,PS2_L2.csv,,,,,,,,,,,,,,,,,,,,,,,,,,,,,0,1,1,1,0,22,22,22,,,,,,,,,,,,,,,,,,,762.642696750001,p,0.8734664989751764,763.6113297500124,,,,,,,47,B,2024-12-16_12h30.56.977,EPIDM,2023.1.2,None,
9010.jpg,9253.jpg,0 Points,0 Points,129 points,PS2_L2.csv,,,,,,,,,,,,,,,,,,,,,,,,,,,,,0,1,1,1,0,23,23,23,,,,,,,,,,,,,,,,,,,767.8399339590105,p,1.4046691669791471,769.3110611250158,,,779.75910187501,space,3.133401707978919,,47,B,2024-12-16_12h30.56.977,EPIDM,2023.1.2,None,
1303.jpg,2000.jpg,0 Points,0 Points,129 points,PS2_L3.csv,,,,,,,,,,,,,,,,,,,,,,,,,,,,,0,2,2,2,0,0,0,0,,,,,,,,,,,,,,,,,,,786.2087592919997,p,1.146993874979671,787.4367864590022,,,,,,,47,B,2024-12-16_12h30.56.977,EPIDM,2023.1.2,None,
2200.jpg,4598.jpg,1 Point,1 Point,130 points,PS2_L3.csv,,,,,,,,,,,,,,,,,,,,,,,,,,,,,0,2,2,2,0,1,1,1,,,,,,,,,,,,,,,,,,,791.6719911250111,p,2.7248638739984017,794.4728441250045,1,1.3148767499660607,,,,,47,B,2024-12-16_12h30.56.977,EPIDM,2023.1.2,None,
6190.jpg,3120.jpg,5 Points,5 Points,135 points,PS2_L3.csv,,,,,,,,,,,,,,,,,,,,,,,,,,,,,0,2,2,2,0,2,2,2,,,,,,,,,,,,,,,,,,,800.0854395420174,q,1.022021999990102,801.188134667027,,,,,,,47,B,2024-12-16_12h30.56.977,EPIDM,2023.1.2,None,
2570.jpg,5500.jpg,3 Points,3 Points,138 points,PS2_L3.csv,,,,,,,,,,,,,,,,,,,,,,,,,,,,,0,2,2,2,0,3,3,3,,,,,,,,,,,,,,,,,,,805.4191437090049,q,1.3844230829563458,806.8732078340254,,,,,,,47,B,2024-12-16_12h30.56.977,EPIDM,2023.1.2,None,
8460.jpg,8330.jpg,0 Points,0 Points,138 points,PS2_L3.csv,,,,,,,,,,,,,,,,,,,,,,,,,,,,,0,2,2,2,0,4,4,4,,,,,,,,,,,,,,,,,,,811.113511042,q,1.5394680409808643,812.7148373750097,,,,,,,47,B,2024-12-16_12h30.56.977,EPIDM,2023.1.2,None,
9320.jpg,9007.jpg,0 Points,0 Points,138 points,PS2_L3.csv,,,,,,,,,,,,,,,,,,,,,,,,,,,,,0,2,2,2,0,5,5,5,,,,,,,,,,,,,,,,,,,816.9517183340213,p,0.9242170829966199,817.9472162500024,,,,,,,47,B,2024-12-16_12h30.56.977,EPIDM,2023.1.2,None,
2650.jpg,4531.jpg,5 Points,5 Points,143 points,PS2_L3.csv,,,,,,,,,,,,,,,,,,,,,,,,,,,,,0,2,2,2,0,6,6,6,,,,,,,,,,,,,,,,,,,822.1879672089999,q,2.384367332997499,824.6425507920212,,,,,,,47,B,2024-12-16_12h30.56.977,EPIDM,2023.1.2,None,
4100.jpg,6570.2.jpg,3 Points,3 Points,146 points,PS2_L3.csv,,,,,,,,,,,,,,,,,,,,,,,,,,,,,0,2,2,2,0,7,7,7,,,,,,,,,,,,,,,,,,,828.8782406670216,p,1.9977463749528397,830.9467960000038,,,,,,,47,B,2024-12-16_12h30.56.977,EPIDM,2023.1.2,None,
3102.jpg,F032.jpg,1 Point,1 Point,147 points,PS2_L3.csv,,,,,,,,,,,,,,,,,,,,,,,,,,,,,0,2,2,2,0,8,8,8,,,,,,,,,,,,,,,,,,,835.1793027500098,p,1.7598347489838488,837.0512034590065,,,,,,,47,B,2024-12-16_12h30.56.977,EPIDM,2023.1.2,None,
2240.jpg,5010.jpg,5 Points,5 Points,152 points,PS2_L3.csv,,,,,,,,,,,,,,,,,,,,,,,,,,,,,0,2,2,2,0,9,9,9,,,,,,,,,,,,,,,,,,,841.2544778750162,q,1.3248891239927616,842.6963410840253,,,,,,,47,B,2024-12-16_12h30.56.977,EPIDM,2023.1.2,None,
4605.jpg,1510.jpg,4 Points,4 Points,156 points,PS2_L3.csv,,,,,,,,,,,,,,,,,,,,,,,,,,,,,0,2,2,2,0,10,10,10,,,,,,,,,,,,,,,,,,,846.8973288750276,p,1.2661417909548618,848.2432070000214,,,,,,,47,B,2024-12-16_12h30.56.977,EPIDM,2023.1.2,None,
9490.jpg,9210.jpg,1 Point,1 Point,157 points,PS2_L3.csv,,,,,,,,,,,,,,,,,,,,,,,,,,,,,0,2,2,2,0,11,11,11,,,,,,,,,,,,,,,,,,,852.4746788340271,p,1.7600337079784367,854.2927757920115,,,,,,,47,B,2024-12-16_12h30.56.977,EPIDM,2023.1.2,None,
6821.jpg,9622.jpg,2 Points,2 Points,159 points,PS2_L3.csv,,,,,,,,,,,,,,,,,,,,,,,,,,,,,0,2,2,2,0,12,12,12,,,,,,,,,,,,,,,,,,,858.5467665420147,p,1.2077831659698859,859.8072350000148,,,,,,,47,B,2024-12-16_12h30.56.977,EPIDM,2023.1.2,None,
2681.jpg,7100.jpg,3 Points,3 Points,162 points,PS2_L3.csv,,,,,,,,,,,,,,,,,,,,,,,,,,,,,0,2,2,2,0,13,13,13,,,,,,,,,,,,,,,,,,,864.0605952920159,q,1.2944044989999384,865.4157982500037,3,1.1976492909889203,,,,,47,B,2024-12-16_12h30.56.977,EPIDM,2023.1.2,None,
5622.jpg,9156.jpg,4 Points,4 Points,166 points,PS2_L3.csv,,,,,,,,,,,,,,,,,,,,,,,,,,,,,0,2,2,2,0,14,14,14,,,,,,,,,,,,,,,,,,,870.9273521249997,p,1.9712158749753144,872.9719009170076,,,,,,,47,B,2024-12-16_12h30.56.977,EPIDM,2023.1.2,None,
1111.jpg,1040.jpg,0 Points,0 Points,166 points,PS2_L3.csv,,,,,,,,,,,,,,,,,,,,,,,,,,,,,0,2,2,2,0,15,15,15,,,,,,,,,,,,,,,,,,,877.2041525000241,q,1.7820786239753943,879.065773667011,,,,,,,47,B,2024-12-16_12h30.56.977,EPIDM,2023.1.2,None,
1112.jpg,6230.jpg,3 Points,3 Points,169 points,PS2_L3.csv,,,,,,,,,,,,,,,,,,,,,,,,,,,,,0,2,2,2,0,16,16,16,,,,,,,,,,,,,,,,,,,883.3039739590022,p,1.3539898749731947,884.7364714590076,,,,,,,47,B,2024-12-16_12h30.56.977,EPIDM,2023.1.2,None,
8161.jpg,1900.jpg,4 Points,4 Points,173 points,PS2_L3.csv,,,,,,,,,,,,,,,,,,,,,,,,,,,,,0,2,2,2,0,17,17,17,,,,,,,,,,,,,,,,,,,888.986417542008,q,2.6879912919539493,891.737687292014,,,,,,,47,B,2024-12-16_12h30.56.977,EPIDM,2023.1.2,None,
9800.jpg,9433.jpg,1 Point,1 Point,174 points,PS2_L3.csv,,,,,,,,,,,,,,,,,,,,,,,,,,,,,0,2,2,2,0,18,18,18,,,,,,,,,,,,,,,,,,,895.9863943340024,p,1.99108958299621,898.0457696670201,,,,,,,47,B,2024-12-16_12h30.56.977,EPIDM,2023.1.2,None,
1390.jpg,9421.jpg,2 Points,2 Points,176 points,PS2_L3.csv,,,,,,,,,,,,,,,,,,,,,,,,,,,,,0,2,2,2,0,19,19,19,,,,,,,,,,,,,,,,,,,902.289881167002,q,2.1047009579779115,904.4661415840092,,,,,,,47,B,2024-12-16_12h30.56.977,EPIDM,2023.1.2,None,
2850.jpg,4532.jpg,3 Points,3 Points,179 points,PS2_L3.csv,,,,,,,,,,,,,,,,,,,,,,,,,,,,,0,2,2,2,0,20,20,20,,,,,,,,,,,,,,,,,,,908.7150767499988,p,1.6950641659786925,910.476620209025,,,,,,,47,B,2024-12-16_12h30.56.977,EPIDM,2023.1.2,None,
1560.jpg,8185.jpg,0 Points,0 Points,179 points,PS2_L3.csv,,,,,,,,,,,,,,,,,,,,,,,,,,,,,0,2,2,2,0,21,21,21,,,,,,,,,,,,,,,,,,,914.7229202500021,q,2.470751874963753,917.2613037500123,,,,,,,47,B,2024-12-16_12h30.56.977,EPIDM,2023.1.2,None,
6314.jpg,O022.jpg,2 Points,2 Points,181 points,PS2_L3.csv,,,,,,,,,,,,,,,,,,,,,,,,,,,,,0,2,2,2,0,22,22,22,,,,,,,,,,,,,,,,,,,921.508929292002,q,3.2118340829911176,924.8326693340205,,,,,,,47,B,2024-12-16_12h30.56.977,EPIDM,2023.1.2,None,
4274.jpg,8160.jpg,2 Points,2 Points,183 points,PS2_L3.csv,,,,,,,,,,,,,,,,,,,,,,,,,,,,,0,2,2,2,0,23,23,23,,,,,,,,,,,,,,,,,,,929.0357615000103,q,1.7641470829839818,930.903727375,,,941.3460494590108,space,4.7595209579740185,,47,B,2024-12-16_12h30.56.977,EPIDM,2023.1.2,None,
8117.jpg,2880.jpg,5 Points,5 Points,188 points,PS2_L4.csv,,,,,,,,,,,,,,,,,,,,,,,,,,,,,0,3,3,3,0,0,0,0,,,,,,,,,,,,,,,,,,,949.405467250006,q,1.1711002909869421,950.645854041999,,,,,,,47,B,2024-12-16_12h30.56.977,EPIDM,2023.1.2,None,
3220.jpg,3063.jpg,5 Points,5 Points,193 points,PS2_L4.csv,,,,,,,,,,,,,,,,,,,,,,,,,,,,,0,3,3,3,0,1,1,1,,,,,,,,,,,,,,,,,,,954.8758895420178,q,3.2529717909928877,958.1865183340269,5,1.831528291979339,,,,,47,B,2024-12-16_12h30.56.977,EPIDM,2023.1.2,None,
9040.jpg,1120.jpg,3 Points,3 Points,196 points,PS2_L4.csv,,,,,,,,,,,,,,,,,,,,,,,,,,,,,0,3,3,3,0,2,2,2,,,,,,,,,,,,,,,,,,,964.3417297090054,p,1.0510961249819957,965.457443500025,,,,,,,47,B,2024-12-16_12h30.56.977,EPIDM,2023.1.2,None,
5030.jpg,1670.jpg,3 Points,3 Points,199 points,PS2_L4.csv,,,,,,,,,,,,,,,,,,,,,,,,,,,,,0,3,3,3,0,3,3,3,,,,,,,,,,,,,,,,,,,969.7176745420147,p,0.898354124976322,970.6800856670015,,,,,,,47,B,2024-12-16_12h30.56.977,EPIDM,2023.1.2,None,
2276.jpg,6540.jpg,3 Points,3 Points,202 points,PS2_L4.csv,,,,,,,,,,,,,,,,,,,,,,,,,,,,,0,3,3,3,0,4,4,4,,,,,,,,,,,,,,,,,,,974.921760792,q,2.1603884999931324,977.1309884170187,,,,,,,47,B,2024-12-16_12h30.56.977,EPIDM,2023.1.2,None,
1540.jpg,2600.jpg,1 Point,1 Point,203 points,PS2_L4.csv,,,,,,,,,,,,,,,,,,,,,,,,,,,,,0,3,3,3,0,5,5,5,,,,,,,,,,,,,,,,,,,981.3915881670255,q,0.9201915419835132,982.3796469170193,,,,,,,47,B,2024-12-16_12h30.56.977,EPIDM,2023.1.2,None,
8465.jpg,8400.jpg,1 Point,1 Point,204 points,PS2_L4.csv,,,,,,,,,,,,,,,,,,,,,,,,,,,,,0,3,3,3,0,6,6,6,,,,,,,,,,,,,,,,,,,986.6243190000241,q,1.8413045829802286,988.5255222500127,,,,,,,47,B,2024-12-16_12h30.56.977,EPIDM,2023.1.2,None,
3110.jpg,9000.jpg,4 Points,4 Points,208 points,PS2_L4.csv,,,,,,,,,,,,,,,,,,,,,,,,,,,,,0,3,3,3,0,7,7,7,,,,,,,,,,,,,,,,,,,992.7714323340042,p,1.108263124973746,993.9415732090129,,,,,,,47,B,2024-12-16_12h30.56.977,EPIDM,2023.1.2,None,
9570.jpg,6610.jpg,0 Points,0 Points,208 points,PS2_L4.csv,,,,,,,,,,,,,,,,,,,,,,,,,,,,,0,3,3,3,0,8,8,8,,,,,,,,,,,,,,,,,,,998.2009779170039,p,0.7663041659689043,999.0418962920085,,,,,,,47,B,2024-12-16_12h30.56.977,EPIDM,2023.1.2,None,
2690.jpg,9360.jpg,1 Point,1 Point,209 points,PS2_L4.csv,,,,,,,,,,,,,,,,,,,,,,,,,,,,,0,3,3,3,0,9,9,9,,,,,,,,,,,,,,,,,,,1003.2811335000151,p,1.3902067499875557,1004.7301236250205,,,,,,,47,B,2024-12-16_12h30.56.977,EPIDM,2023.1.2,None,
8250.jpg,1313.jpg,4 Points,4 Points,213 points,PS2_L4.csv,,,,,,,,,,,,,,,,,,,,,,,,,,,,,0,3,3,3,0,10,10,10,,,,,,,,,,,,,,,,,,,1008.974083292007,q,1.345547541975975,1010.3945092089998,,,,,,,47,B,2024-12-16_12h30.56.977,EPIDM,2023.1.2,None,
3022.jpg,2352.2.jpg,0 Points,0 Points,213 points,PS2_L4.csv,,,,,,,,,,,,,,,,,,,,,,,,,,,,,0,3,3,3,0,11,11,11,,,,,,,,,,,,,,,,,,,1014.6303437090246,q,2.3129391669644974,1017.0186681250052,,,,,,,47,B,2024-12-16_12h30.56.977,EPIDM,2023.1.2,None,
9920.jpg,3068.jpg,5 Points,5 Points,218 points,PS2_L4.csv,,,,,,,,,,,,,,,,,,,,,,,,,,,,,0,3,3,3,0,12,12,12,,,,,,,,,,,,,,,,,,,1021.2503234170144,p,1.156250290980097,1022.4720465000137,,,,,,,47,B,2024-12-16_12h30.56.977,EPIDM,2023.1.2,None,
7234.jpg,5533.jpg,3 Points,3 Points,221 points,PS2_L4.csv,,,,,,,,,,,,,,,,,,,,,,,,,,,,,0,3,3,3,0,13,13,13,,,,,,,,,,,,,,,,,,,1026.7268595420173,p,2.1687262909836136,1028.9624916250177,3,1.1986008739913814,,,,,47,B,2024-12-16_12h30.56.977,EPIDM,2023.1.2,None,
6250.1.jpg,3301.jpg,0 Points,0 Points,221 points,PS2_L4.csv,,,,,,,,,,,,,,,,,,,,,,,,,,,,,0,3,3,3,0,14,14,14,,,,,,,,,,,,,,,,,,,1034.459844209021,p,1.043724332965212,1035.5779656250088,,,,,,,47,B,2024-12-16_12h30.56.977,EPIDM,2023.1.2,None,
2518.jpg,2381.jpg,1 Point,1 Point,222 points,PS2_L4.csv,,,,,,,,,,,,,,,,,,,,,,,,,,,,,0,3,3,3,0,15,15,15,,,,,,,,,,,,,,,,,,,1039.8329220000014,q,1.269558457977837,1041.1579132090264,,,,,,,47,B,2024-12-16_12h30.56.977,EPIDM,2023.1.2,None,
1910.jpg,2575.jpg,2 Points,2 Points,224 points,PS2_L4.csv,,,,,,,,,,,,,,,,,,,,,,,,,,,,,0,3,3,3,0,16,16,16,,,,,,,,,,,,,,,,,,,1045.4167548340047,q,2.2058197499718517,1047.677230250003,,,,,,,47,B,2024-12-16_12h30.56.977,EPIDM,2023.1.2,None,
1275.jpg,3150.jpg,1 Point,1 Point,225 points,PS2_L4.csv,,,,,,,,,,,,,,,,,,,,,,,,,,,,,0,3,3,3,0,17,17,17,,,,,,,,,,,,,,,,,,,1051.929825875006,p,1.356803748960374,1053.362685125001,,,,,,,47,B,2024-12-16_12h30.56.977,EPIDM,2023.1.2,None,
2702.jpg,1590.jpg,5 Points,5 Points,230 points,PS2_L4.csv,,,,,,,,,,,,,,,,,,,,,,,,,,,,,0,3,3,3,0,18,18,18,,,,,,,,,,,,,,,,,,,1057.6061992500036,p,2.1044324989779852,1059.7952575840172,,,,,,,47,B,2024-12-16_12h30.56.977,EPIDM,2023.1.2,None,
8480.jpg,6410.jpg,1 Point,1 Point,231 points,PS2_L4.csv,,,,,,,,,,,,,,,,,,,,,,,,,,,,,0,3,3,3,0,19,19,19,,,,,,,,,,,,,,,,,,,1064.0292162500264,q,2.424807624978712,1066.5230980000051,,,,,,,47,B,2024-12-16_12h30.56.977,EPIDM,2023.1.2,None,
5621.jpg,5534.jpg,3 Points,3 Points,234 points,PS2_L4.csv,,,,,,,,,,,,,,,,,,,,,,,,,,,,,0,3,3,3,0,20,20,20,,,,,,,,,,,,,,,,,,,1070.7625694170129,q,1.2914968329714611,1072.1230850420252,,,,,,,47,B,2024-12-16_12h30.56.977,EPIDM,2023.1.2,None,
5972.jpg,6838.jpg,5 Points,5 Points,239 points,PS2_L4.csv,,,,,,,,,,,,,,,,,,,,,,,,,,,,,0,3,3,3,0,21,21,21,,,,,,,,,,,,,,,,,,,1076.365865959,p,1.103212165995501,1077.541643500008,,,,,,,47,B,2024-12-16_12h30.56.977,EPIDM,2023.1.2,None,
2580.jpg,8300.jpg,3 Points,3 Points,242 points,PS2_L4.csv,,,,,,,,,,,,,,,,,,,,,,,,,,,,,0,3,3,3,0,22,22,22,,,,,,,,,,,,,,,,,,,1081.7889694590122,q,1.6331198749830946,1083.4973207920266,,,,,,,47,B,2024-12-16_12h30.56.977,EPIDM,2023.1.2,None,
7280.jpg,7160.jpg,0 Points,0 Points,242 points,PS2_L4.csv,,,,,,,,,,,,,,,,,,,,,,,,,,,,,0,3,3,3,0,23,23,23,,,,,,,,,,,,,,,,,,,1087.7423655420134,p,0.5591084999614395,1088.383524208999,,,1098.867874959018,space,12.017778165987693,,47,B,2024-12-16_12h30.56.977,EPIDM,2023.1.2,None,
6243.jpg,2752.jpg,2 Points,2 Points,244 points,PS2_L5.csv,,,,,,,,,,,,,,,,,,,,,,,,,,,,,0,4,4,4,0,0,0,0,,,,,,,,,,,,,,,,,,,1114.1953662090236,p,2.241775082977256,1116.5119216669991,,,,,,,47,B,2024-12-16_12h30.56.977,EPIDM,2023.1.2,None,
8340.jpg,7546.jpg,2 Points,2 Points,246 points,PS2_L5.csv,,,,,,,,,,,,,,,,,,,,,,,,,,,,,0,4,4,4,0,1,1,1,,,,,,,,,,,,,,,,,,,1120.748046084016,p,1.9210801239823923,1122.7303110840148,2,2.074753790977411,,,,,47,B,2024-12-16_12h30.56.977,EPIDM,2023.1.2,None,
1022.jpg,6930.jpg,1 Point,1 Point,247 points,PS2_L5.csv,,,,,,,,,,,,,,,,,,,,,,,,,,,,,0,4,4,4,0,2,2,2,,,,,,,,,,,,,,,,,,,1129.14103191701,q,1.104527541960124,1130.3115731670114,,,,,,,47,B,2024-12-16_12h30.56.977,EPIDM,2023.1.2,None,
7230.jpg,7570.jpg,5 Points,5 Points,252 points,PS2_L5.csv,,,,,,,,,,,,,,,,,,,,,,,,,,,,,0,4,4,4,0,3,3,3,,,,,,,,,,,,,,,,,,,1134.554406292009,p,2.0818342909915373,1136.7167063750094,,,,,,,47,B,2024-12-16_12h30.56.977,EPIDM,2023.1.2,None,
5760.jpg,1602.jpg,1 Point,1 Point,253 points,PS2_L5.csv,,,,,,,,,,,,,,,,,,,,,,,,,,,,,0,4,4,4,0,4,4,4,,,,,,,,,,,,,,,,,,,1140.9479818340042,q,2.5050131659954786,1143.518571542023,,,,,,,47,B,2024-12-16_12h30.56.977,EPIDM,2023.1.2,None,
9584.jpg,3400.jpg,2 Points,2 Points,255 points,PS2_L5.csv,,,,,,,,,,,,,,,,,,,,,,,,,,,,,0,4,4,4,0,5,5,5,,,,,,,,,,,,,,,,,,,1147.7611410000245,p,1.3076828329649288,1149.1415272090235,,,,,,,47,B,2024-12-16_12h30.56.977,EPIDM,2023.1.2,None,
2560.jpg,5270.jpg,4 Points,4 Points,259 points,PS2_L5.csv,,,,,,,,,,,,,,,,,,,,,,,,,,,,,0,4,4,4,0,6,6,6,,,,,,,,,,,,,,,,,,,1153.3914498340164,p,0.7560050419706386,1154.2260800840158,,,,,,,47,B,2024-12-16_12h30.56.977,EPIDM,2023.1.2,None,
3350.jpg,3210.jpg,1 Point,1 Point,260 points,PS2_L5.csv,,,,,,,,,,,,,,,,,,,,,,,,,,,,,0,4,4,4,0,7,7,7,,,,,,,,,,,,,,,,,,,1158.4539570000197,q,0.6545439999608789,1159.1803375000018,,,,,,,47,B,2024-12-16_12h30.56.977,EPIDM,2023.1.2,None,
5455.jpg,5220.jpg,0 Points,0 Points,260 points,PS2_L5.csv,,,,,,,,,,,,,,,,,,,,,,,,,,,,,0,4,4,4,0,8,8,8,,,,,,,,,,,,,,,,,,,1163.4301129590021,p,1.16560629097512,1164.6613059170195,,,,,,,47,B,2024-12-16_12h30.56.977,EPIDM,2023.1.2,None,
7920.jpg,9102.jpg,3 Points,3 Points,263 points,PS2_L5.csv,,,,,,,,,,,,,,,,,,,,,,,,,,,,,0,4,4,4,0,9,9,9,,,,,,,,,,,,,,,,,,,1168.9142450000218,p,1.5049548329843674,1170.496813375008,,,,,,,47,B,2024-12-16_12h30.56.977,EPIDM,2023.1.2,None,
1301.jpg,1070.jpg,2 Points,2 Points,265 points,PS2_L5.csv,,,,,,,,,,,,,,,,,,,,,,,,,,,,,0,4,4,4,0,10,10,10,,,,,,,,,,,,,,,,,,,1174.7298930420075,p,0.7375269999611191,1175.5377910000097,,,,,,,47,B,2024-12-16_12h30.56.977,EPIDM,2023.1.2,None,
5982.jpg,5260.jpg,5 Points,5 Points,270 points,PS2_L5.csv,,,,,,,,,,,,,,,,,,,,,,,,,,,,,0,4,4,4,0,11,11,11,,,,,,,,,,,,,,,,,,,1179.7678161250078,q,1.7401203749759588,1181.591115542018,,,,,,,47,B,2024-12-16_12h30.56.977,EPIDM,2023.1.2,None,
5000.jpg,8180.jpg,4 Points,4 Points,274 points,PS2_L5.csv,,,,,,,,,,,,,,,,,,,,,,,,,,,,,0,4,4,4,0,12,12,12,,,,,,,,,,,,,,,,,,,1185.830552459025,p,0.9002545829571318,1186.8130071670166,,,,,,,47,B,2024-12-16_12h30.56.977,EPIDM,2023.1.2,None,
6244.jpg,9265.jpg,0 Points,0 Points,274 points,PS2_L5.csv,,,,,,,,,,,,,,,,,,,,,,,,,,,,,0,4,4,4,0,13,13,13,,,,,,,,,,,,,,,,,,,1191.0503565420222,q,1.5849003749608528,1192.711295459012,0,1.6000044989632443,,,,,47,B,2024-12-16_12h30.56.977,EPIDM,2023.1.2,None,
5990.jpg,5780.jpg,3 Points,3 Points,277 points,PS2_L5.csv,,,,,,,,,,,,,,,,,,,,,,,,,,,,,0,4,4,4,0,14,14,14,,,,,,,,,,,,,,,,,,,1198.6131019590248,q,2.942387498973403,1201.6275152090238,,,,,,,47,B,2024-12-16_12h30.56.977,EPIDM,2023.1.2,None,
9440.jpg,6350.jpg,4 Points,4 Points,281 points,PS2_L5.csv,,,,,,,,,,,,,,,,,,,,,,,,,,,,,0,4,4,4,0,15,15,15,,,,,,,,,,,,,,,,,,,1205.8664950840175,p,2.3365033329755533,1208.275051042001,,,,,,,47,B,2024-12-16_12h30.56.977,EPIDM,2023.1.2,None,
1850.jpg,5623.jpg,5 Points,5 Points,286 points,PS2_L5.csv,,,,,,,,,,,,,,,,,,,,,,,,,,,,,0,4,4,4,0,16,16,16,,,,,,,,,,,,,,,,,,,1212.519273834012,p,1.8509514579782262,1214.4418309590255,,,,,,,47,B,2024-12-16_12h30.56.977,EPIDM,2023.1.2,None,
5200.jpg,5020.jpg,0 Points,0 Points,286 points,PS2_L5.csv,,,,,,,,,,,,,,,,,,,,,,,,,,,,,0,4,4,4,0,17,17,17,,,,,,,,,,,,,,,,,,,1218.686043667025,q,1.0844999999681022,1219.8550572920067,,,,,,,47,B,2024-12-16_12h30.56.977,EPIDM,2023.1.2,None,
P211.jpg,9041.jpg,4 Points,4 Points,290 points,PS2_L5.csv,,,,,,,,,,,,,,,,,,,,,,,,,,,,,0,4,4,4,0,18,18,18,,,,,,,,,,,,,,,,,,,1224.0869909170142,q,0.9565550409897696,1225.1514441250183,,,,,,,47,B,2024-12-16_12h30.56.977,EPIDM,2023.1.2,None,
5600.jpg,9080.jpg,5 Points,5 Points,295 points,PS2_L5.csv,,,,,,,,,,,,,,,,,,,,,,,,,,,,,0,4,4,4,0,19,19,19,,,,,,,,,,,,,,,,,,,1229.3620019590016,q,1.4879159159900155,1230.9308997500048,,,,,,,47,B,2024-12-16_12h30.56.977,EPIDM,2023.1.2,None,
6800.jpg,9190.jpg,0 Points,0 Points,295 points,PS2_L5.csv,,,,,,,,,,,,,,,,,,,,,,,,,,,,,0,4,4,4,0,20,20,20,,,,,,,,,,,,,,,,,,,1235.1623748340062,p,2.0468880419794004,1237.297214625025,,,,,,,47,B,2024-12-16_12h30.56.977,EPIDM,2023.1.2,None,
3280.jpg,9270.jpg,0 Points,0 Points,295 points,PS2_L5.csv,,,,,,,,,,,,,,,,,,,,,,,,,,,,,0,4,4,4,0,21,21,21,,,,,,,,,,,,,,,,,,,1241.5321457500104,p,1.2623691239859909,1242.8521070420102,,,,,,,47,B,2024-12-16_12h30.56.977,EPIDM,2023.1.2,None,
4613.jpg,2720.jpg,4 Points,4 Points,299 points,PS2_L5.csv,,,,,,,,,,,,,,,,,,,,,,,,,,,,,0,4,4,4,0,22,22,22,,,,,,,,,,,,,,,,,,,1247.105522124999,q,2.120957749983063,1249.2872182500141,,,,,,,47,B,2024-12-16_12h30.56.977,EPIDM,2023.1.2,None,
1930.jpg,9008.jpg,1 Point,1 Point,300 points,PS2_L5.csv,,,,,,,,,,,,,,,,,,,,,,,,,,,,,0,4,4,4,0,23,23,23,,,,,,,,,,,,,,,,,,,1253.5317880840157,p,1.68575395795051,1255.2939819590247,,,1265.7632474999991,space,2.1100352489738725,,47,B,2024-12-16_12h30.56.977,EPIDM,2023.1.2,None,
2190.jpg,7503.jpg,2 Points,2 Points,302 points,PS2_L6.csv,,,,,,,,,,,,,,,,,,,,,,,,,,,,,0,5,5,5,0,0,0,0,,,,,,,,,,,,,,,,,,,1271.182248666999,p,0.877636707999045,1272.1267032090109,,,,,,,47,B,2024-12-16_12h30.56.977,EPIDM,2023.1.2,None,
2490.jpg,2590.jpg,4 Points,4 Points,306 points,PS2_L6.csv,,,,,,,,,,,,,,,,,,,,,,,,,,,,,0,5,5,5,0,1,1,1,,,,,,,,,,,,,,,,,,,1276.361223667016,q,1.5996209999721032,1278.026568084024,4,1.4969534989795648,,,,,47,B,2024-12-16_12h30.56.977,EPIDM,2023.1.2,None,
9592.jpg,1300.jpg,2 Points,2 Points,308 points,PS2_L6.csv,,,,,,,,,,,,,,,,,,,,,,,,,,,,,0,5,5,5,0,2,2,2,,,,,,,,,,,,,,,,,,,1283.8447650000162,q,1.4356272909790277,1285.3515330840019,,,,,,,47,B,2024-12-16_12h30.56.977,EPIDM,2023.1.2,None,
8230.jpg,2682.jpg,5 Points,5 Points,313 points,PS2_L6.csv,,,,,,,,,,,,,,,,,,,,,,,,,,,,,0,5,5,5,0,3,3,3,,,,,,,,,,,,,,,,,,,1289.5909089170163,p,1.2503142909845337,1290.9088480840146,,,,,,,47,B,2024-12-16_12h30.56.977,EPIDM,2023.1.2,None,
9090.jpg,7580.jpg,3 Points,3 Points,316 points,PS2_L6.csv,,,,,,,,,,,,,,,,,,,,,,,,,,,,,0,5,5,5,0,4,4,4,,,,,,,,,,,,,,,,,,,1295.1474973340228,p,1.373417208000319,1296.5880572500173,,,,,,,47,B,2024-12-16_12h30.56.977,EPIDM,2023.1.2,None,
3530.jpg,6213.jpg,1 Point,1 Point,317 points,PS2_L6.csv,,,,,,,,,,,,,,,,,,,,,,,,,,,,,0,5,5,5,0,5,5,5,,,,,,,,,,,,,,,,,,,1300.821012875007,q,0.8041888329898939,1301.6943322920124,,,,,,,47,B,2024-12-16_12h30.56.977,EPIDM,2023.1.2,None,
1640.jpg,5531.jpg,3 Points,3 Points,320 points,PS2_L6.csv,,,,,,,,,,,,,,,,,,,,,,,,,,,,,0,5,5,5,0,6,6,6,,,,,,,,,,,,,,,,,,,1305.9278057090123,q,0.864758040959714,1306.875232542021,,,,,,,47,B,2024-12-16_12h30.56.977,EPIDM,2023.1.2,None,
3064.jpg,3168.jpg,4 Points,4 Points,324 points,PS2_L6.csv,,,,,,,,,,,,,,,,,,,,,,,,,,,,,0,5,5,5,0,7,7,7,,,,,,,,,,,,,,,,,,,1311.1059718750184,p,0.8065550829924177,1311.9747556250077,,,,,,,47,B,2024-12-16_12h30.56.977,EPIDM,2023.1.2,None,
2710.jpg,9252.jpg,1 Point,1 Point,325 points,PS2_L6.csv,,,,,,,,,,,,,,,,,,,,,,,,,,,,,0,5,5,5,0,8,8,8,,,,,,,,,,,,,,,,,,,1316.2138695419999,q,0.6823251659807283,1316.9695113750058,,,,,,,47,B,2024-12-16_12h30.56.977,EPIDM,2023.1.2,None,
2260.jpg,2830.jpg,5 Points,5 Points,330 points,PS2_L6.csv,,,,,,,,,,,,,,,,,,,,,,,,,,,,,0,5,5,5,0,9,9,9,,,,,,,,,,,,,,,,,,,1321.2211040420225,p,0.9625868329894729,1322.260419541999,,,,,,,47,B,2024-12-16_12h30.56.977,EPIDM,2023.1.2,None,
6510.jpg,A074.jpg,2 Points,2 Points,332 points,PS2_L6.csv,,,,,,,,,,,,,,,,,,,,,,,,,,,,,0,5,5,5,0,10,10,10,,,,,,,,,,,,,,,,,,,1326.5102953750174,q,0.6337141249678098,1327.253307667008,,,,,,,47,B,2024-12-16_12h30.56.977,EPIDM,2023.1.2,None,
5300.jpg,2372.jpg,1 Point,1 Point,333 points,PS2_L6.csv,,,,,,,,,,,,,,,,,,,,,,,,,,,,,0,5,5,5,0,11,11,11,,,,,,,,,,,,,,,,,,,1331.449845959025,q,0.4084482920006849,1331.9704741669993,,,,,,,47,B,2024-12-16_12h30.56.977,EPIDM,2023.1.2,None,
2749.jpg,7282.jpg,3 Points,3 Points,336 points,PS2_L6.csv,,,,,,,,,,,,,,,,,,,,,,,,,,,,,0,5,5,5,0,12,12,12,,,,,,,,,,,,,,,,,,,1336.1738339170115,p,0.8254524159710854,1337.0785772920062,,,,,,,47,B,2024-12-16_12h30.56.977,EPIDM,2023.1.2,None,
3130.jpg,3500.jpg,4 Points,4 Points,340 points,PS2_L6.csv,,,,,,,,,,,,,,,,,,,,,,,,,,,,,0,5,5,5,0,13,13,13,,,,,,,,,,,,,,,,,,,1341.3130335840106,q,1.0056548749853391,1342.3988326670078,4,1.1024849579844158,,,,,47,B,2024-12-16_12h30.56.977,EPIDM,2023.1.2,None,
6312.jpg,3230.jpg,2 Points,2 Points,342 points,PS2_L6.csv,,,,,,,,,,,,,,,,,,,,,,,,,,,,,0,5,5,5,0,14,14,14,,,,,,,,,,,,,,,,,,,1347.7931077920075,p,0.7263909989851527,1348.5972375420097,,,,,,,47,B,2024-12-16_12h30.56.977,EPIDM,2023.1.2,None,
2597.jpg,5870.jpg,5 Points,5 Points,347 points,PS2_L6.csv,,,,,,,,,,,,,,,,,,,,,,,,,,,,,0,5,5,5,0,15,15,15,,,,,,,,,,,,,,,,,,,1352.83932954201,p,0.44697795796673745,1353.3619592090254,,,,,,,47,B,2024-12-16_12h30.56.977,EPIDM,2023.1.2,None,
8033.jpg,7270.jpg,3 Points,3 Points,350 points,PS2_L6.csv,,,,,,,,,,,,,,,,,,,,,,,,,,,,,0,5,5,5,0,16,16,16,,,,,,,,,,,,,,,,,,,1357.5997893340245,q,0.5439237079699524,1358.2116160420119,,,,,,,47,B,2024-12-16_12h30.56.977,EPIDM,2023.1.2,None,
3170.jpg,6560.jpg,2 Points,2 Points,352 points,PS2_L6.csv,,,,,,,,,,,,,,,,,,,,,,,,,,,,,0,5,5,5,0,17,17,17,,,,,,,,,,,,,,,,,,,1362.4530795840255,q,0.8346524159715045,1363.3480728340219,,,,,,,47,B,2024-12-16_12h30.56.977,EPIDM,2023.1.2,None,
6242.jpg,F034.jpg,4 Points,4 Points,356 points,PS2_L6.csv,,,,,,,,,,,,,,,,,,,,,,,,,,,,,0,5,5,5,0,18,18,18,,,,,,,,,,,,,,,,,,,1367.5886502920184,q,0.5146143739984836,1368.2138700840005,,,,,,,47,B,2024-12-16_12h30.56.977,EPIDM,2023.1.2,None,
2485.jpg,7350.jpg,0 Points,0 Points,356 points,PS2_L6.csv,,,,,,,,,,,,,,,,,,,,,,,,,,,,,0,5,5,5,0,19,19,19,,,,,,,,,,,,,,,,,,,1372.4187518340186,p,0.22807483296492137,1372.7252972499991,,,,,,,47,B,2024-12-16_12h30.56.977,EPIDM,2023.1.2,None,
2900.jpg,1101.jpg,3 Points,3 Points,359 points,PS2_L6.csv,,,,,,,,,,,,,,,,,,,,,,,,,,,,,0,5,5,5,0,20,20,20,,,,,,,,,,,,,,,,,,,1376.9620339170215,p,0.6130954159598332,1377.6553086670174,,,,,,,47,B,2024-12-16_12h30.56.977,EPIDM,2023.1.2,None,
7002.jpg,4660.jpg,4 Points,4 Points,363 points,PS2_L6.csv,,,,,,,,,,,,,,,,,,,,,,,,,,,,,0,5,5,5,0,21,21,21,,,,,,,,,,,,,,,,,,,1381.8920883750252,p,0.3939479579858016,1382.366405125009,,,,,,,47,B,2024-12-16_12h30.56.977,EPIDM,2023.1.2,None,
A025.jpg,1051.jpg,0 Points,0 Points,363 points,PS2_L6.csv,,,,,,,,,,,,,,,,,,,,,,,,,,,,,0,5,5,5,0,22,22,22,,,,,,,,,,,,,,,,,,,1386.6078976250137,q,0.9816694999753963,1387.7064845840214,,,,,,,47,B,2024-12-16_12h30.56.977,EPIDM,2023.1.2,None,
4510.jpg,2230.jpg,5 Points,5 Points,368 points,PS2_L6.csv,,,,,,,,,,,,,,,,,,,,,,,,,,,,,0,5,5,5,0,23,23,23,,,,,,,,,,,,,,,,,,,1391.901541416999,q,0.5132261239923537,1392.4975693340239,,,1402.9837364170235,space,1.798472790978849,,47,B,2024-12-16_12h30.56.977,EPIDM,2023.1.2,None,
2383.jpg,1616.jpg,2 Points,2 Points,370 points,PS2_L7.csv,,,,,,,,,,,,,,,,,,,,,,,,,,,,,0,6,6,6,0,0,0,0,,,,,,,,,,,,,,,,,,,1408.094645959005,p,0.5990842919854913,1408.7775049590273,,,,,,,47,B,2024-12-16_12h30.56.977,EPIDM,2023.1.2,None,
1310.jpg,3181.jpg,4 Points,4 Points,374 points,PS2_L7.csv,,,,,,,,,,,,,,,,,,,,,,,,,,,,,0,6,6,6,0,1,1,1,,,,,,,,,,,,,,,,,,,1413.0185439590132,q,0.7638689159648493,1413.846340500022,4,1.0719536659889854,,,,,47,B,2024-12-16_12h30.56.977,EPIDM,2023.1.2,None,
7289.jpg,4534.jpg,0 Points,0 Points,374 points,PS2_L7.csv,,,,,,,,,,,,,,,,,,,,,,,,,,,,,0,6,6,6,0,2,2,2,,,,,,,,,,,,,,,,,,,1419.244649417,p,0.5771162079763599,1419.8963108750177,,,,,,,47,B,2024-12-16_12h30.56.977,EPIDM,2023.1.2,None,
6010.jpg,7361.jpg,2 Points,2 Points,376 points,PS2_L7.csv,,,,,,,,,,,,,,,,,,,,,,,,,,,,,0,6,6,6,0,3,3,3,,,,,,,,,,,,,,,,,,,1424.1342648749996,p,0.3441023329796735,1424.5501772920252,,,,,,,47,B,2024-12-16_12h30.56.977,EPIDM,2023.1.2,None,
2661.jpg,2870.jpg,5 Points,5 Points,381 points,PS2_L7.csv,,,,,,,,,,,,,,,,,,,,,,,,,,,,,0,6,6,6,0,4,4,4,,,,,,,,,,,,,,,,,,,1428.7947557500156,q,0.2770776669785846,1429.1281445420173,,,,,,,47,B,2024-12-16_12h30.56.977,EPIDM,2023.1.2,None,
7220.jpg,8090.jpg,2 Points,2 Points,383 points,PS2_L7.csv,,,,,,,,,,,,,,,,,,,,,,,,,,,,,0,6,6,6,0,5,5,5,,,,,,,,,,,,,,,,,,,1433.3902238340233,p,0.8397507499612402,1434.2945668340253,,,,,,,47,B,2024-12-16_12h30.56.977,EPIDM,2023.1.2,None,
9140.jpg,2810.jpg,3 Points,3 Points,386 points,PS2_L7.csv,,,,,,,,,,,,,,,,,,,,,,,,,,,,,0,6,6,6,0,6,6,6,,,,,,,,,,,,,,,,,,,1438.5336291250132,q,1.5753172919794451,1440.179902459,,,,,,,47,B,2024-12-16_12h30.56.977,EPIDM,2023.1.2,None,
2516.jpg,8500.jpg,4 Points,4 Points,390 points,PS2_L7.csv,,,,,,,,,,,,,,,,,,,,,,,,,,,,,0,6,6,6,0,7,7,7,,,,,,,,,,,,,,,,,,,1444.420370000007,p,0.5043432489910629,1444.9957732500043,,,,,,,47,B,2024-12-16_12h30.56.977,EPIDM,2023.1.2,None,
9070.jpg,9420.jpg,2 Points,2 Points,392 points,PS2_L7.csv,,,,,,,,,,,,,,,,,,,,,,,,,,,,,0,6,6,6,0,8,8,8,,,,,,,,,,,,,,,,,,,1449.2401546670008,q,0.2844279169803485,1449.6025585840107,,,,,,,47,B,2024-12-16_12h30.56.977,EPIDM,2023.1.2,None,
6561.jpg,1525.jpg,2 Points,2 Points,394 points,PS2_L7.csv,,,,,,,,,,,,,,,,,,,,,,,,,,,,,0,6,6,6,0,9,9,9,,,,,,,,,,,,,,,,,,,1453.835106375016,p,0.3457599579705857,1454.2413038750237,,,,,,,47,B,2024-12-16_12h30.56.977,EPIDM,2023.1.2,None,
7175.jpg,7490.jpg,2 Points,2 Points,396 points,PS2_L7.csv,,,,,,,,,,,,,,,,,,,,,,,,,,,,,0,6,6,6,0,10,10,10,,,,,,,,,,,,,,,,,,,1458.490069625026,q,0.6981869159790222,1459.2611992090242,,,,,,,47,B,2024-12-16_12h30.56.977,EPIDM,2023.1.2,None,
8010.jpg,2630.jpg,0 Points,0 Points,396 points,PS2_L7.csv,,,,,,,,,,,,,,,,,,,,,,,,,,,,,0,6,6,6,0,11,11,11,,,,,,,,,,,,,,,,,,,1463.4999617920257,q,0.6968332079704851,1464.2622240000055,,,,,,,47,B,2024-12-16_12h30.56.977,EPIDM,2023.1.2,None,
F174.jpg,9404.jpg,5 Points,5 Points,401 points,PS2_L7.csv,,,,,,,,,,,,,,,,,,,,,,,,,,,,,0,6,6,6,0,12,12,12,,,,,,,,,,,,,,,,,,,1468.497770750022,q,1.082250748993829,1469.6948456250248,,,,,,,47,B,2024-12-16_12h30.56.977,EPIDM,2023.1.2,None,
2692.jpg,8231.jpg,4 Points,4 Points,405 points,PS2_L7.csv,,,,,,,,,,,,,,,,,,,,,,,,,,,,,0,6,6,6,0,13,13,13,,,,,,,,,,,,,,,,,,,1473.891667125019,p,1.127934832999017,1475.1389470420254,4,2.0869264579669107,,,,,47,B,2024-12-16_12h30.56.977,EPIDM,2023.1.2,None,
5994.jpg,5390.jpg,0 Points,0 Points,405 points,PS2_L7.csv,,,,,,,,,,,,,,,,,,,,,,,,,,,,,0,6,6,6,0,14,14,14,,,,,,,,,,,,,,,,,,,1481.4895539590216,q,1.6261006659769919,1483.1759975420136,,,,,,,47,B,2024-12-16_12h30.56.977,EPIDM,2023.1.2,None,
9560.jpg,3071.jpg,1 Point,1 Point,406 points,PS2_L7.csv,,,,,,,,,,,,,,,,,,,,,,,,,,,,,0,6,6,6,0,15,15,15,,,,,,,,,,,,,,,,,,,1487.4314456249995,p,0.4678766249853652,1487.968027584022,,,,,,,47,B,2024-12-16_12h30.56.977,EPIDM,2023.1.2,None,
9330.jpg,3015.jpg,5 Points,5 Points,411 points,PS2_L7.csv,,,,,,,,,,,,,,,,,,,,,,,,,,,,,0,6,6,6,0,16,16,16,,,,,,,,,,,,,,,,,,,1492.2032707500039,p,1.1839231659832876,1493.4498212500184,,,,,,,47,B,2024-12-16_12h30.56.977,EPIDM,2023.1.2,None,
2389.jpg,7320.jpg,0 Points,0 Points,411 points,PS2_L7.csv,,,,,,,,,,,,,,,,,,,,,,,,,,,,,0,6,6,6,0,17,17,17,,,,,,,,,,,,,,,,,,,1497.7059510840045,p,0.8580966249865014,1498.6380084170087,,,,,,,47,B,2024-12-16_12h30.56.977,EPIDM,2023.1.2,None,
6570.1.jpg,9432.jpg,5 Points,5 Points,416 points,PS2_L7.csv,,,,,,,,,,,,,,,,,,,,,,,,,,,,,0,6,6,6,0,18,18,18,,,,,,,,,,,,,,,,,,,1502.8754246250028,q,0.3204971249506343,1503.2737088340218,,,,,,,47,B,2024-12-16_12h30.56.977,EPIDM,2023.1.2,None,
9452.jpg,7184.jpg,4 Points,4 Points,420 points,PS2_L7.csv,,,,,,,,,,,,,,,,,,,,,,,,,,,,,0,6,6,6,0,19,19,19,,,,,,,,,,,,,,,,,,,1507.5123560840148,q,2.9473100829927716,1510.5316941250057,,,,,,,47,B,2024-12-16_12h30.56.977,EPIDM,2023.1.2,None,
5120.jpg,5520.jpg,2 Points,2 Points,422 points,PS2_L7.csv,,,,,,,,,,,,,,,,,,,,,,,,,,,,,0,6,6,6,0,20,20,20,,,,,,,,,,,,,,,,,,,1514.775702709012,q,0.7801035000011325,1515.6418208750256,,,,,,,47,B,2024-12-16_12h30.56.977,EPIDM,2023.1.2,None,
5970.jpg,3300.jpg,0 Points,0 Points,422 points,PS2_L7.csv,,,,,,,,,,,,,,,,,,,,,,,,,,,,,0,6,6,6,0,21,21,21,,,,,,,,,,,,,,,,,,,1519.8726403750188,p,0.34573304097284563,1520.2924131670152,,,,,,,47,B,2024-12-16_12h30.56.977,EPIDM,2023.1.2,None,
7620.jpg,5395.jpg,1 Point,1 Point,423 points,PS2_L7.csv,,,,,,,,,,,,,,,,,,,,,,,,,,,,,0,6,6,6,0,22,22,22,,,,,,,,,,,,,,,,,,,1524.5252303750021,q,0.39833308299421333,1524.9839319590246,,,,,,,47,B,2024-12-16_12h30.56.977,EPIDM,2023.1.2,None,
P019.jpg,F158.jpg,3 Points,3 Points,426 points,PS2_L7.csv,,,,,,,,,,,,,,,,,,,,,,,,,,,,,0,6,6,6,0,23,23,23,,,,,,,,,,,,,,,,,,,1529.2257015420182,p,1.0564727909804787,1530.419957459002,,,1540.8171975000005,space,4.36865683295764,,47,B,2024-12-16_12h30.56.977,EPIDM,2023.1.2,None,
2620.jpg,2594.jpg,0 Points,0 Points,426 points,PS2_L8.csv,,,,,,,,,,,,,,,,,,,,,,,,,,,,,0,7,7,7,0,0,0,0,,,,,,,,,,,,,,,,,,,1548.4911397500255,q,0.4873561249987688,1549.0775022919988,,,,,,,47,B,2024-12-16_12h30.56.977,EPIDM,2023.1.2,None,
F369.jpg,3100.jpg,2 Points,2 Points,428 points,PS2_L8.csv,,,,,,,,,,,,,,,,,,,,,,,,,,,,,0,7,7,7,0,1,1,1,,,,,,,,,,,,,,,,,,,1553.288027417002,p,0.34784991599735804,1553.736902167002,2,1.290907124959631,,,,,47,B,2024-12-16_12h30.56.977,EPIDM,2023.1.2,None,
1052.jpg,1201.jpg,3 Points,3 Points,431 points,PS2_L8.csv,,,,,,,,,,,,,,,,,,,,,,,,,,,,,0,7,7,7,0,2,2,2,,,,,,,,,,,,,,,,,,,1559.3409014170174,q,0.3647801659826655,1559.7794551670086,,,,,,,47,B,2024-12-16_12h30.56.977,EPIDM,2023.1.2,None,
2606.jpg,2480.jpg,1 Point,1 Point,432 points,PS2_L8.csv,,,,,,,,,,,,,,,,,,,,,,,,,,,,,0,7,7,7,0,3,3,3,,,,,,,,,,,,,,,,,,,1564.0204170420184,p,0.2936172919871751,1564.380279459001,,,,,,,47,B,2024-12-16_12h30.56.977,EPIDM,2023.1.2,None,
9594.jpg,1080.jpg,4 Points,4 Points,436 points,PS2_L8.csv,,,,,,,,,,,,,,,,,,,,,,,,,,,,,0,7,7,7,0,4,4,4,,,,,,,,,,,,,,,,,,,1568.6346278340206,p,0.7915202919975854,1569.5000884170004,,,,,,,47,B,2024-12-16_12h30.56.977,EPIDM,2023.1.2,None,
4770.jpg,4275.jpg,3 Points,3 Points,439 points,PS2_L8.csv,,,,,,,,,,,,,,,,,,,,,,,,,,,,,0,7,7,7,0,5,5,5,,,,,,,,,,,,,,,,,,,1573.7404000000097,q,0.5578339159837924,1574.3715084170108,,,,,,,47,B,2024-12-16_12h30.56.977,EPIDM,2023.1.2,None,
P077.jpg,A041.jpg,1 Point,1 Point,440 points,PS2_L8.csv,,,,,,,,,,,,,,,,,,,,,,,,,,,,,0,7,7,7,0,6,6,6,,,,,,,,,,,,,,,,,,,1578.619767709024,p,0.6149748739844654,1579.3822036250203,,,,,,,47,B,2024-12-16_12h30.56.977,EPIDM,2023.1.2,None,
6550.jpg,9582.jpg,5 Points,5 Points,445 points,PS2_L8.csv,,,,,,,,,,,,,,,,,,,,,,,,,,,,,0,7,7,7,0,7,7,7,,,,,,,,,,,,,,,,,,,1583.5505257090263,q,1.675125832989579,1585.3323540840065,,,,,,,47,B,2024-12-16_12h30.56.977,EPIDM,2023.1.2,None,
8040.jpg,7185.jpg,1 Point,1 Point,446 points,PS2_L8.csv,,,,,,,,,,,,,,,,,,,,,,,,,,,,,0,7,7,7,0,8,8,8,,,,,,,,,,,,,,,,,,,1589.5337287090078,p,1.7401157079730183,1591.3574242090108,,,,,,,47,B,2024-12-16_12h30.56.977,EPIDM,2023.1.2,None,
P233.jpg,3060.jpg,1 Point,1 Point,447 points,PS2_L8.csv,,,,,,,,,,,,,,,,,,,,,,,,,,,,,0,7,7,7,0,9,9,9,,,,,,,,,,,,,,,,,,,1595.602808125026,p,1.8312355829693843,1597.5450383340067,,,,,,,47,B,2024-12-16_12h30.56.977,EPIDM,2023.1.2,None,
1090.jpg,P217.jpg,5 Points,5 Points,452 points,PS2_L8.csv,,,,,,,,,,,,,,,,,,,,,,,,,,,,,0,7,7,7,0,10,10,10,,,,,,,,,,,,,,,,,,,1601.7386256669997,p,1.0956892909889575,1602.977858209022,,,,,,,47,B,2024-12-16_12h30.56.977,EPIDM,2023.1.2,None,
9405.jpg,6250.2.jpg,3 Points,3 Points,455 points,PS2_L8.csv,,,,,,,,,,,,,,,,,,,,,,,,,,,,,0,7,7,7,0,11,11,11,,,,,,,,,,,,,,,,,,,1607.1492452920065,q,0.4104837919585407,1607.66935929202,,,,,,,47,B,2024-12-16_12h30.56.977,EPIDM,2023.1.2,None,
1610.jpg,F203.jpg,0 Points,0 Points,455 points,PS2_L8.csv,,,,,,,,,,,,,,,,,,,,,,,,,,,,,0,7,7,7,0,12,12,12,,,,,,,,,,,,,,,,,,,1611.8691237090097,q,0.7553293749806471,1612.7349339170032,,,,,,,47,B,2024-12-16_12h30.56.977,EPIDM,2023.1.2,None,
P222.jpg,9401.jpg,2 Points,2 Points,457 points,PS2_L8.csv,,,,,,,,,,,,,,,,,,,,,,,,,,,,,0,7,7,7,0,13,13,13,,,,,,,,,,,,,,,,,,,1616.9323189590068,q,0.5493543739721645,1617.6149223750108,2,1.2123145409568679,,,,,47,B,2024-12-16_12h30.56.977,EPIDM,2023.1.2,None,
5471.jpg,7352.jpg,2 Points,2 Points,459 points,PS2_L8.csv,,,,,,,,,,,,,,,,,,,,,,,,,,,,,0,7,7,7,0,14,14,14,,,,,,,,,,,,,,,,,,,1623.099757375021,p,0.8045455829706043,1624.01468987501,,,,,,,47,B,2024-12-16_12h30.56.977,EPIDM,2023.1.2,None,
9042.jpg,2753.jpg,0 Points,0 Points,459 points,PS2_L8.csv,,,,,,,,,,,,,,,,,,,,,,,,,,,,,0,7,7,7,0,15,15,15,,,,,,,,,,,,,,,,,,,1628.2290844170202,p,2.1713513329741545,1630.459711500007,,,,,,,47,B,2024-12-16_12h30.56.977,EPIDM,2023.1.2,None,
8311.jpg,4609.jpg,2 Points,2 Points,461 points,PS2_L8.csv,,,,,,,,,,,,,,,,,,,,,,,,,,,,,0,7,7,7,0,16,16,16,,,,,,,,,,,,,,,,,,,1634.7088395840256,q,2.355081124987919,1637.129456292023,,,,,,,47,B,2024-12-16_12h30.56.977,EPIDM,2023.1.2,None,
2320.jpg,2791.jpg,4 Points,4 Points,465 points,PS2_L8.csv,,,,,,,,,,,,,,,,,,,,,,,,,,,,,0,7,7,7,0,17,17,17,,,,,,,,,,,,,,,,,,,1641.3779651670193,p,1.7971862079575658,1643.2398012090125,,,,,,,47,B,2024-12-16_12h30.56.977,EPIDM,2023.1.2,None,
F365.jpg,3180.jpg,5 Points,5 Points,470 points,PS2_L8.csv,,,,,,,,,,,,,,,,,,,,,,,,,,,,,0,7,7,7,0,18,18,18,,,,,,,,,,,,,,,,,,,1647.4873234170082,q,1.3686400409787893,1648.9516247500142,,,,,,,47,B,2024-12-16_12h30.56.977,EPIDM,2023.1.2,None,
9300.jpg,1050.jpg,4 Points,4 Points,474 points,PS2_L8.csv,,,,,,,,,,,,,,,,,,,,,,,,,,,,,0,7,7,7,0,19,19,19,,,,,,,,,,,,,,,,,,,1653.1652351250232,q,1.3541629159881268,1654.594847625005,,,,,,,47,B,2024-12-16_12h30.56.977,EPIDM,2023.1.2,None,
6150.jpg,2206.jpg,0 Points,0 Points,474 points,PS2_L8.csv,,,,,,,,,,,,,,,,,,,,,,,,,,,,,0,7,7,7,0,20,20,20,,,,,,,,,,,,,,,,,,,1658.8356965000276,p,0.6135305829811841,1659.5293661250034,,,,,,,47,B,2024-12-16_12h30.56.977,EPIDM,2023.1.2,None,
6260.jpg,3062.jpg,3 Points,3 Points,477 points,PS2_L8.csv,,,,,,,,,,,,,,,,,,,,,,,,,,,,,0,7,7,7,0,21,21,21,,,,,,,,,,,,,,,,,,,1663.7667796669994,q,0.4725122079544235,1664.306177750026,,,,,,,47,B,2024-12-16_12h30.56.977,EPIDM,2023.1.2,None,
6571.jpg,P237.jpg,2 Points,2 Points,479 points,PS2_L8.csv,,,,,,,,,,,,,,,,,,,,,,,,,,,,,0,7,7,7,0,22,22,22,,,,,,,,,,,,,,,,,,,1668.5519492090098,p,1.4321200419799425,1670.0999563340156,,,,,,,47,B,2024-12-16_12h30.56.977,EPIDM,2023.1.2,None,
7283.jpg,1720.jpg,4 Points,4 Points,483 points,PS2_L8.csv,,,,,,,,,,,,,,,,,,,,,,,,,,,,,0,7,7,7,0,23,23,23,,,,,,,,,,,,,,,,,,,1674.29489262501,p,0.7287812499853317,1675.107921250019,,,1685.5779575000051,space,3.261281749990303,,47,B,2024-12-16_12h30.56.977,EPIDM,2023.1.2,None,
3160.jpg,6210.jpg,1 Point,1 Point,484 points,PS2_L9.csv,,,,,,,,,,,,,,,,,,,,,,,,,,,,,0,8,8,8,0,0,0,0,,,,,,,,,,,,,,,,,,,1692.1423385420057,q,0.7842419999942649,1692.9999020420073,,,,,,,47,B,2024-12-16_12h30.56.977,EPIDM,2023.1.2,None,
2100.jpg,7205.jpg,5 Points,5 Points,489 points,PS2_L9.csv,,,,,,,,,,,,,,,,,,,,,,,,,,,,,0,8,8,8,0,1,1,1,,,,,,,,,,,,,,,,,,,1697.2345891670266,p,0.5161548329924699,1697.8273198750103,5,1.1953403329534922,,,,,47,B,2024-12-16_12h30.56.977,EPIDM,2023.1.2,None,
9110.jpg,3051.jpg,1 Point,1 Point,490 points,PS2_L9.csv,,,,,,,,,,,,,,,,,,,,,,,,,,,,,0,8,8,8,0,2,2,2,,,,,,,,,,,,,,,,,,,1703.3414567090222,q,0.9768138739746064,1704.4034636249999,,,,,,,47,B,2024-12-16_12h30.56.977,EPIDM,2023.1.2,None,
9101.jpg,9571.jpg,2 Points,2 Points,492 points,PS2_L9.csv,,,,,,,,,,,,,,,,,,,,,,,,,,,,,0,8,8,8,0,3,3,3,,,,,,,,,,,,,,,,,,,1708.6307057920203,p,0.9919195409747772,1709.7046598750167,,,,,,,47,B,2024-12-16_12h30.56.977,EPIDM,2023.1.2,None,
5410.jpg,1450.jpg,5 Points,5 Points,497 points,PS2_L9.csv,,,,,,,,,,,,,,,,,,,,,,,,,,,,,0,8,8,8,0,4,4,4,,,,,,,,,,,,,,,,,,,1713.9362417500233,p,0.6051453329855576,1714.6080503750127,,,,,,,47,B,2024-12-16_12h30.56.977,EPIDM,2023.1.2,None,
F149.jpg,3030.jpg,0 Points,0 Points,497 points,PS2_L9.csv,,,,,,,,,,,,,,,,,,,,,,,,,,,,,0,8,8,8,0,5,5,5,,,,,,,,,,,,,,,,,,,1718.8453244170232,p,0.48913283296860754,1719.4436470000073,,,,,,,47,B,2024-12-16_12h30.56.977,EPIDM,2023.1.2,None,
3266.jpg,7360.jpg,1 Point,1 Point,498 points,PS2_L9.csv,,,,,,,,,,,,,,,,,,,,,,,,,,,,,0,8,8,8,0,6,6,6,,,,,,,,,,,,,,,,,,,1723.6502305840258,q,0.6273865409893915,1724.3550574590045,,,,,,,47,B,2024-12-16_12h30.56.977,EPIDM,2023.1.2,None,
5660.jpg,5201.jpg,0 Points,0 Points,498 points,PS2_L9.csv,,,,,,,,,,,,,,,,,,,,,,,,,,,,,0,8,8,8,0,7,7,7,,,,,,,,,,,,,,,,,,,1728.5901524170185,q,0.8479660419689026,1729.513674750022,,,,,,,47,B,2024-12-16_12h30.56.977,EPIDM,2023.1.2,None,
1945.jpg,2800.jpg,4 Points,4 Points,502 points,PS2_L9.csv,,,,,,,,,,,,,,,,,,,,,,,,,,,,,0,8,8,8,0,8,8,8,,,,,,,,,,,,,,,,,,,1733.7460508340155,q,0.7959486669569742,1734.6161546670191,,,,,,,47,B,2024-12-16_12h30.56.977,EPIDM,2023.1.2,None,
3000.jpg,6200.jpg,5 Points,5 Points,507 points,PS2_L9.csv,,,,,,,,,,,,,,,,,,,,,,,,,,,,,0,8,8,8,0,9,9,9,,,,,,,,,,,,,,,,,,,1738.8668110420112,q,0.46673466596985236,1739.4004514590197,,,,,,,47,B,2024-12-16_12h30.56.977,EPIDM,2023.1.2,None,
2215.jpg,2512.jpg,1 Point,1 Point,508 points,PS2_L9.csv,,,,,,,,,,,,,,,,,,,,,,,,,,,,,0,8,8,8,0,10,10,10,,,,,,,,,,,,,,,,,,,1743.649862750026,q,2.363468332972843,1746.0909841670073,,,,,,,47,B,2024-12-16_12h30.56.977,EPIDM,2023.1.2,None,
5460.jpg,5800.jpg,0 Points,0 Points,508 points,PS2_L9.csv,,,,,,,,,,,,,,,,,,,,,,,,,,,,,0,8,8,8,0,11,11,11,,,,,,,,,,,,,,,,,,,1750.330356084014,p,0.5072716659633443,1750.912768375012,,,,,,,47,B,2024-12-16_12h30.56.977,EPIDM,2023.1.2,None,
3061.jpg,2717.jpg,4 Points,4 Points,512 points,PS2_L9.csv,,,,,,,,,,,,,,,,,,,,,,,,,,,,,0,8,8,8,0,12,12,12,,,,,,,,,,,,,,,,,,,1755.143176417012,q,1.3816871249582618,1756.5949259170156,,,,,,,47,B,2024-12-16_12h30.56.977,EPIDM,2023.1.2,None,
7380.jpg,1220.jpg,1 Point,1 Point,513 points,PS2_L9.csv,,,,,,,,,,,,,,,,,,,,,,,,,,,,,0,8,8,8,0,13,13,13,,,,,,,,,,,,,,,,,,,1760.8411732920213,p,1.4604827909788582,1762.354826499999,1,0.9491358749801293,,,,,47,B,2024-12-16_12h30.56.977,EPIDM,2023.1.2,None,
1740.jpg,7480.jpg,0 Points,0 Points,513 points,PS2_L9.csv,,,,,,,,,,,,,,,,,,,,,,,,,,,,,0,8,8,8,0,14,14,14,,,,,,,,,,,,,,,,,,,1767.6083487500146,q,0.30081920797238126,1767.9729995000234,,,,,,,47,B,2024-12-16_12h30.56.977,EPIDM,2023.1.2,None,
7285.jpg,4233.jpg,5 Points,5 Points,518 points,PS2_L9.csv,,,,,,,,,,,,,,,,,,,,,,,,,,,,,0,8,8,8,0,15,15,15,,,,,,,,,,,,,,,,,,,1772.2118351250247,p,0.5203702079597861,1772.8047252920223,,,,,,,47,B,2024-12-16_12h30.56.977,EPIDM,2023.1.2,None,
6830.jpg,6212.jpg,4 Points,4 Points,522 points,PS2_L9.csv,,,,,,,,,,,,,,,,,,,,,,,,,,,,,0,8,8,8,0,16,16,16,,,,,,,,,,,,,,,,,,,1777.0396195840149,p,1.5651653739623725,1778.671952042001,,,,,,,47,B,2024-12-16_12h30.56.977,EPIDM,2023.1.2,None,
7830.jpg,2499.jpg,3 Points,3 Points,525 points,PS2_L9.csv,,,,,,,,,,,,,,,,,,,,,,,,,,,,,0,8,8,8,0,17,17,17,,,,,,,,,,,,,,,,,,,1782.9081100840122,p,0.447957416967256,1783.4278395420115,,,,,,,47,B,2024-12-16_12h30.56.977,EPIDM,2023.1.2,None,
9520.jpg,1931.jpg,3 Points,3 Points,528 points,PS2_L9.csv,,,,,,,,,,,,,,,,,,,,,,,,,,,,,0,8,8,8,0,18,18,18,,,,,,,,,,,,,,,,,,,1787.6682810840139,p,1.3776771659613587,1789.1234092090162,,,,,,,47,B,2024-12-16_12h30.56.977,EPIDM,2023.1.2,None,
9160.jpg,1200.jpg,4 Points,4 Points,532 points,PS2_L9.csv,,,,,,,,,,,,,,,,,,,,,,,,,,,,,0,8,8,8,0,19,19,19,,,,,,,,,,,,,,,,,,,1793.361787583999,p,0.9372919579909649,1794.379170084023,,,,,,,47,B,2024-12-16_12h30.56.977,EPIDM,2023.1.2,None,
2020.jpg,1947.jpg,5 Points,5 Points,537 points,PS2_L9.csv,,,,,,,,,,,,,,,,,,,,,,,,,,,,,0,8,8,8,0,20,20,20,,,,,,,,,,,,,,,,,,,1798.6081213750003,p,1.4597194169764407,1800.1348396250105,,,,,,,47,B,2024-12-16_12h30.56.977,EPIDM,2023.1.2,None,
4535.jpg,1811.jpg,1 Point,1 Point,538 points,PS2_L9.csv,,,,,,,,,,,,,,,,,,,,,,,,,,,,,0,8,8,8,0,21,21,21,,,,,,,,,,,,,,,,,,,1804.3748171670013,p,0.7980014159984421,1805.2437210000062,,,,,,,47,B,2024-12-16_12h30.56.977,EPIDM,2023.1.2,None,
9910.jpg,6940.jpg,2 Points,2 Points,540 points,PS2_L9.csv,,,,,,,,,,,,,,,,,,,,,,,,,,,,,0,8,8,8,0,22,22,22,,,,,,,,,,,,,,,,,,,1809.471106959012,q,0.5085323739622254,1810.049677959003,,,,,,,47,B,2024-12-16_12h30.56.977,EPIDM,2023.1.2,None,
9480.jpg,9250.jpg,0 Points,0 Points,540 points,PS2_L9.csv,,,,,,,,,,,,,,,,,,,,,,,,,,,,,0,8,8,8,0,23,23,23,,,,,,,,,,,,,,,,,,,1814.2986246670189,p,1.201081749954028,1815.5626872920257,,,1826.0241075420054,space,3.370991082978435,,47,B,2024-12-16_12h30.56.977,EPIDM,2023.1.2,None,
1660.jpg,2840.jpg,2 Points,2 Points,542 points,PS2_L10.csv,,,,,,,,,,,,,,,,,,,,,,,,,,,,,0,9,9,9,0,0,0,0,,,,,,,,,,,,,,,,,,,1832.714118584001,q,0.6173171239788644,1833.404334959021,,,,,,,47,B,2024-12-16_12h30.56.977,EPIDM,2023.1.2,None,
2691.jpg,7640.jpg,0 Points,0 Points,542 points,PS2_L10.csv,,,,,,,,,,,,,,,,,,,,,,,,,,,,,0,9,9,9,0,1,1,1,,,,,,,,,,,,,,,,,,,1837.6503586250183,p,0.8640576659527142,1838.587241500005,0,0.5695425829617307,,,,,47,B,2024-12-16_12h30.56.977,EPIDM,2023.1.2,None,
9180.jpg,9046.jpg,3 Points,3 Points,545 points,PS2_L10.csv,,,,,,,,,,,,,,,,,,,,,,,,,,,,,0,9,9,9,0,2,2,2,,,,,,,,,,,,,,,,,,,1843.45388104202,q,0.8219146659830585,1844.3389946670213,,,,,,,47,B,2024-12-16_12h30.56.977,EPIDM,2023.1.2,None,
8041.jpg,2271.jpg,2 Points,2 Points,547 points,PS2_L10.csv,,,,,,,,,,,,,,,,,,,,,,,,,,,,,0,9,9,9,0,3,3,3,,,,,,,,,,,,,,,,,,,1848.5809206670092,q,1.0143487909808755,1849.660860709002,,,,,,,47,B,2024-12-16_12h30.56.977,EPIDM,2023.1.2,None,
1661.jpg,1321.jpg,3 Points,3 Points,550 points,PS2_L10.csv,,,,,,,,,,,,,,,,,,,,,,,,,,,,,0,9,9,9,0,4,4,4,,,,,,,,,,,,,,,,,,,1853.9106975000177,p,0.29210137398331426,1854.257839292026,,,,,,,47,B,2024-12-16_12h30.56.977,EPIDM,2023.1.2,None,
9430.jpg,3010.jpg,5 Points,5 Points,555 points,PS2_L10.csv,,,,,,,,,,,,,,,,,,,,,,,,,,,,,0,9,9,9,0,5,5,5,,,,,,,,,,,,,,,,,,,1858.5031149170245,p,0.443695415975526,1858.9990925000166,,,,,,,47,B,2024-12-16_12h30.56.977,EPIDM,2023.1.2,None,
2616.jpg,7238.jpg,4 Points,4 Points,559 points,PS2_L10.csv,,,,,,,,,,,,,,,,,,,,,,,,,,,,,0,9,9,9,0,6,6,6,,,,,,,,,,,,,,,,,,,1863.2500175000168,p,1.0961357079795562,1864.4088693340018,,,,,,,47,B,2024-12-16_12h30.56.977,EPIDM,2023.1.2,None,
9470.jpg,9400.jpg,3 Points,3 Points,562 points,PS2_L10.csv,,,,,,,,,,,,,,,,,,,,,,,,,,,,,0,9,9,9,0,7,7,7,,,,,,,,,,,,,,,,,,,1868.655775500025,p,1.2748087909712922,1869.9884975840105,,,,,,,47,B,2024-12-16_12h30.56.977,EPIDM,2023.1.2,None,
8260.jpg,8280.jpg,3 Points,3 Points,565 points,PS2_L10.csv,,,,,,,,,,,,,,,,,,,,,,,,,,,,,0,9,9,9,0,8,8,8,,,,,,,,,,,,,,,,,,,1874.23338125,q,0.38532041700091213,1874.6758900840068,,,,,,,47,B,2024-12-16_12h30.56.977,EPIDM,2023.1.2,None,
9230.jpg,9181.jpg,0 Points,0 Points,565 points,PS2_L10.csv,,,,,,,,,,,,,,,,,,,,,,,,,,,,,0,9,9,9,0,9,9,9,,,,,,,,,,,,,,,,,,,1878.9223632500216,p,0.5599519579845946,1879.5562041250232,,,,,,,47,B,2024-12-16_12h30.56.977,EPIDM,2023.1.2,None,
6834.jpg,9120.jpg,5 Points,5 Points,570 points,PS2_L10.csv,,,,,,,,,,,,,,,,,,,,,,,,,,,,,0,9,9,9,0,10,10,10,,,,,,,,,,,,,,,,,,,1883.793911042012,q,0.32010849998914637,1884.1796244590078,,,,,,,47,B,2024-12-16_12h30.56.977,EPIDM,2023.1.2,None,
2440.jpg,7351.jpg,4 Points,4 Points,574 points,PS2_L10.csv,,,,,,,,,,,,,,,,,,,,,,,,,,,,,0,9,9,9,0,11,11,11,,,,,,,,,,,,,,,,,,,1888.432573625003,p,0.3365425419760868,1888.8473380000214,,,,,,,47,B,2024-12-16_12h30.56.977,EPIDM,2023.1.2,None,
9280.jpg,9390.jpg,1 Point,1 Point,575 points,PS2_L10.csv,,,,,,,,,,,,,,,,,,,,,,,,,,,,,0,9,9,9,0,12,12,12,,,,,,,,,,,,,,,,,,,1893.0950588340056,q,0.739070332958363,1893.9160922500014,,,,,,,47,B,2024-12-16_12h30.56.977,EPIDM,2023.1.2,None,
7186.jpg,9182.jpg,2 Points,2 Points,577 points,PS2_L10.csv,,,,,,,,,,,,,,,,,,,,,,,,,,,,,0,9,9,9,0,13,13,13,,,,,,,,,,,,,,,,,,,1898.1523752089997,p,0.9367979159869719,1899.1701285840245,2,1.4465893739834428,,,,,47,B,2024-12-16_12h30.56.977,EPIDM,2023.1.2,None,
7820.jpg,1121.jpg,0 Points,0 Points,577 points,PS2_L10.csv,,,,,,,,,,,,,,,,,,,,,,,,,,,,,0,9,9,9,0,14,14,14,,,,,,,,,,,,,,,,,,,1904.944699375017,p,0.4485172079876065,1905.4572607500013,,,,,,,47,B,2024-12-16_12h30.56.977,EPIDM,2023.1.2,None,
1110.jpg,9331.jpg,2 Points,2 Points,579 points,PS2_L10.csv,,,,,,,,,,,,,,,,,,,,,,,,,,,,,0,9,9,9,0,15,15,15,,,,,,,,,,,,,,,,,,,1909.694779375015,q,0.2664628329803236,1910.0366113340133,,,,,,,47,B,2024-12-16_12h30.56.977,EPIDM,2023.1.2,None,
9001.jpg,9620.jpg,1 Point,1 Point,580 points,PS2_L10.csv,,,,,,,,,,,,,,,,,,,,,,,,,,,,,0,9,9,9,0,16,16,16,,,,,,,,,,,,,,,,,,,1914.2848370000138,p,0.21128374995896593,1914.5817446250003,,,,,,,47,B,2024-12-16_12h30.56.977,EPIDM,2023.1.2,None,
5535.jpg,8210.jpg,3 Points,3 Points,583 points,PS2_L10.csv,,,,,,,,,,,,,,,,,,,,,,,,,,,,,0,9,9,9,0,17,17,17,,,,,,,,,,,,,,,,,,,1918.8048650840065,q,0.25953020798624493,1919.136352750007,,,,,,,47,B,2024-12-16_12h30.56.977,EPIDM,2023.1.2,None,
7950.jpg,7187.jpg,1 Point,1 Point,584 points,PS2_L10.csv,,,,,,,,,,,,,,,,,,,,,,,,,,,,,0,9,9,9,0,18,18,18,,,,,,,,,,,,,,,,,,,1923.371367084008,p,0.3410863749741111,1923.7808197500126,,,,,,,47,B,2024-12-16_12h30.56.977,EPIDM,2023.1.2,None,
3250.jpg,A053.jpg,3 Points,3 Points,587 points,PS2_L10.csv,,,,,,,,,,,,,,,,,,,,,,,,,,,,,0,9,9,9,0,19,19,19,,,,,,,,,,,,,,,,,,,1928.019964542007,q,0.3647617499809712,1928.4889623339986,,,,,,,47,B,2024-12-16_12h30.56.977,EPIDM,2023.1.2,None,
2205.jpg,3053.jpg,4 Points,4 Points,591 points,PS2_L10.csv,,,,,,,,,,,,,,,,,,,,,,,,,,,,,0,9,9,9,0,20,20,20,,,,,,,,,,,,,,,,,,,1932.7105805000174,p,0.3858029999828432,1933.1592970839993,,,,,,,47,B,2024-12-16_12h30.56.977,EPIDM,2023.1.2,None,
5594.jpg,5750.jpg,5 Points,5 Points,596 points,PS2_L10.csv,,,,,,,,,,,,,,,,,,,,,,,,,,,,,0,9,9,9,0,21,21,21,,,,,,,,,,,,,,,,,,,1937.4013077499985,p,0.35848983298637904,1937.8342212920252,,,,,,,47,B,2024-12-16_12h30.56.977,EPIDM,2023.1.2,None,
6900.jpg,8531.jpg,4 Points,4 Points,600 points,PS2_L10.csv,,,,,,,,,,,,,,,,,,,,,,,,,,,,,0,9,9,9,0,22,22,22,,,,,,,,,,,,,,,,,,,1942.0755255420227,q,0.5664564999751747,1942.7113010419998,,,,,,,47,B,2024-12-16_12h30.56.977,EPIDM,2023.1.2,None,
1019.jpg,2120.jpg,0 Points,0 Points,600 points,PS2_L10.csv,,,,,,,,,,,,,,,,,,,,,,,,,,,,,0,9,9,9,0,23,23,23,,,,,,,,,,,,,,,,,,,1946.9538488750113,q,0.6384634159912821,1947.6713073750143,,,1958.147664750024,space,4.243958790990291,,47,B,2024-12-16_12h30.56.977,EPIDM,2023.1.2,None,
