L_Scene,R_Scene,Points_L,Points_R,PtTotal,blockFile,Instructions_Loop.thisRepN,Instructions_Loop.thisTrialN,Instructions_Loop.thisN,Instructions_Loop.thisIndex,Redo_Instructions_Loop.thisRepN,Redo_Instructions_Loop.thisTrialN,Redo_Instructions_Loop.thisN,Redo_Instructions_Loop.thisIndex,Practice_Encoding_Loop.thisRepN,Practice_Encoding_Loop.thisTrialN,Practice_Encoding_Loop.thisN,Practice_Encoding_Loop.thisIndex,Practice_Response_Fail_Loop.thisRepN,Practice_Response_Fail_Loop.thisTrialN,Practice_Response_Fail_Loop.thisN,Practice_Response_Fail_Loop.thisIndex,Practice_FB_Loop.thisRepN,Practice_FB_Loop.thisTrialN,Practice_FB_Loop.thisN,Practice_FB_Loop.thisIndex,Practice_Attention_Loop.thisRepN,Practice_Attention_Loop.thisTrialN,Practice_Attention_Loop.thisN,Practice_Attention_Loop.thisIndex,Practice_EncBrk_Loop.thisRepN,Practice_EncBrk_Loop.thisTrialN,Practice_EncBrk_Loop.thisN,Practice_EncBrk_Loop.thisIndex,Encoding_Loop.thisRepN,Encoding_Loop.thisTrialN,Encoding_Loop.thisN,Encoding_Loop.thisIndex,EncStim_Loop.thisRepN,EncStim_Loop.thisTrialN,EncStim_Loop.thisN,EncStim_Loop.thisIndex,Response_Fail_Loop.thisRepN,Response_Fail_Loop.thisTrialN,Response_Fail_Loop.thisN,Response_Fail_Loop.thisIndex,FB_Loop.thisRepN,FB_Loop.thisTrialN,FB_Loop.thisN,FB_Loop.thisIndex,Attention_Loop.thisRepN,Attention_Loop.thisTrialN,Attention_Loop.thisN,Attention_Loop.thisIndex,EncBrk_Loop.thisRepN,EncBrk_Loop.thisTrialN,EncBrk_Loop.thisN,EncBrk_Loop.thisIndex,Transition_Enc.keys,Transition_Enc.rt,Encoding_Resp.started,Encoding_Resp.keys,Encoding_Resp.rt,R_Point_FB_Stim.started,Attn_resp.keys,Attn_resp.rt,Progress_Tracker.started,EncBrk_Resp.keys,EncBrk_Resp.rt,participant,Group,date,expName,psychopyVersion,frameRate,
,,,,,,,,,,,,,,,,,,,,,,,,,,,,,,,,,,,,,,,,,,,,,,,,,,,,,,,,,,space,7.011521625012392,,,,,,,,,,48,A,2025-01-10_09h11.07.282,EPIDM,2023.1.2,59.61516906382729,
A060.jpg,F041.jpg,5 Points,5 Points,5 Points,,,,,,,,,,0,0,0,0,,,,,,,,,,,,,,,,,,,,,,,,,,,,,,,,,,,,,,,,,,,128.98503095901106,q,2.1874054160143714,131.3241178750177,,,,,,48,A,2025-01-10_09h11.07.282,EPIDM,2023.1.2,59.61516906382729,
O161.jpg,1812.jpg,2 Points,2 Points,7 Points,,,,,,,,,,0,1,1,1,,,,,,,,,,,,,,,,,,,,,,,,,,,,,,,,,,,,,,,,,,,135.4924220420071,p,1.9597479999938514,137.5953105840017,,,,,,48,A,2025-01-10_09h11.07.282,EPIDM,2023.1.2,59.61516906382729,
O013.jpg,A001.jpg,3 Points,3 Points,10 Points,,,,,,,,,,0,2,2,2,,,,,,,,,,,,,,,,,,,,,,,,,,,,,,,,,,,,,,,,,,,141.7747857500217,q,1.9252518749854062,143.84268579201307,,,,,,48,A,2025-01-10_09h11.07.282,EPIDM,2023.1.2,59.61516906382729,
P036.jpg,F273.jpg,5 Points,5 Points,15 Points,,,,,,,,,,0,3,3,3,,,,,,,,,,,,,,,,,,,,,,,,,,,,,,,,,,,,,,,,,,,148.00702925000223,q,2.509217125014402,150.69148450001376,,,,,,48,A,2025-01-10_09h11.07.282,EPIDM,2023.1.2,59.61516906382729,
L130.jpg,2393.jpg,0 Points,0 Points,15 Points,,,,,,,,,,0,4,4,4,,,,,,,,,,,,,,,,,,,,,,,,,,,,,,,,,,,,,,,,,,,154.8338314590219,q,1.9462634999945294,156.92165212502005,0,4.82138604199281,,,,48,A,2025-01-10_09h11.07.282,EPIDM,2023.1.2,59.61516906382729,
F279.jpg,P033.jpg,3 Points,3 Points,18 Points,,,,,,,,,,0,5,5,5,,,,,,,,,,,,,,,,,,,,,,,,,,,,,,,,,,,,,,,,,,,166.01981145900209,p,3.353076833009254,169.55085391702596,,,,,,48,A,2025-01-10_09h11.07.282,EPIDM,2023.1.2,59.61516906382729,
A104.jpg,2593.jpg,2 Points,2 Points,20 Points,,,,,,,,,,0,6,6,6,,,,,,,,,,,,,,,,,,,,,,,,,,,,,,,,,,,,,,,,,,,173.68374033400323,q,1.9603645829774905,175.7877327919996,,,,,,48,A,2025-01-10_09h11.07.282,EPIDM,2023.1.2,59.61516906382729,
2598.jpg,2605.jpg,0 Points,0 Points,20 Points,,,,,,,,,,0,7,7,7,,,,,,,,,,,,,,,,,,,,,,,,,,,,,,,,,,,,,,,,,,,179.97502066701418,q,1.804229542001849,181.840303459001,,,,,,48,A,2025-01-10_09h11.07.282,EPIDM,2023.1.2,59.61516906382729,
L005.jpg,O011.jpg,1 Points,1 Points,21 Points,,,,,,,,,,0,8,8,8,,,,,,,,,,,,,,,,,,,,,,,,,,,,,,,,,,,,,,,,,,,186.09371204199851,p,1.7263490000041202,187.9538178340008,,,,,,48,A,2025-01-10_09h11.07.282,EPIDM,2023.1.2,59.61516906382729,
8186.jpg,F078.jpg,2 Points,2 Points,23 Points,,,,,,,,,,0,9,9,9,,,,,,,,,,,,,,,,,,,,,,,,,,,,,,,,,,,,,,,,,,,192.12073879200034,q,1.2818830000178423,193.54706837501726,2,1.8579687500023283,205.67654091701843,space,12.030168666009558,48,A,2025-01-10_09h11.07.282,EPIDM,2023.1.2,59.61516906382729,
,,,,,,,,,,,,,,,,,,,,,,,,,,,,,,,,,,,,,,,,,,,,,,,,,,,,,,,,,,space,2.870311416016193,,,,,,,,,,48,A,2025-01-10_09h11.07.282,EPIDM,2023.1.2,59.61516906382729,
1019.jpg,2120.jpg,0 Points,0 Points,0 Points,PS1_L1.csv,,,,,,,,,,,,,,,,,,,,,,,,,,,,,0,0,0,0,0,0,0,0,,,,,,,,,,,,,,,,,,,232.76757466699928,q,0.9550841670134105,233.84279695901205,,,,,,48,A,2025-01-10_09h11.07.282,EPIDM,2023.1.2,59.61516906382729,
6900.jpg,8531.jpg,4 Points,4 Points,4 Points,PS1_L1.csv,,,,,,,,,,,,,,,,,,,,,,,,,,,,,0,0,0,0,0,1,1,1,,,,,,,,,,,,,,,,,,,238.04854095901828,p,1.0182972500042524,239.14592570901732,4,2.085278125014156,,,,48,A,2025-01-10_09h11.07.282,EPIDM,2023.1.2,59.61516906382729,
5594.jpg,5750.jpg,5 Points,5 Points,9 Points,PS1_L1.csv,,,,,,,,,,,,,,,,,,,,,,,,,,,,,0,0,0,0,0,2,2,2,,,,,,,,,,,,,,,,,,,245.55047737501445,q,1.5955602089816239,247.22884350002278,,,,,,48,A,2025-01-10_09h11.07.282,EPIDM,2023.1.2,59.61516906382729,
2205.jpg,3053.jpg,4 Points,4 Points,13 Points,PS1_L1.csv,,,,,,,,,,,,,,,,,,,,,,,,,,,,,0,0,0,0,0,3,3,3,,,,,,,,,,,,,,,,,,,251.46737749999738,p,1.6781394999998156,253.21690100000706,,,,,,48,A,2025-01-10_09h11.07.282,EPIDM,2023.1.2,59.61516906382729,
3250.jpg,A053.jpg,3 Points,3 Points,16 Points,PS1_L1.csv,,,,,,,,,,,,,,,,,,,,,,,,,,,,,0,0,0,0,0,4,4,4,,,,,,,,,,,,,,,,,,,257.4726424170076,q,1.2569817499897908,258.8428326249996,,,,,,48,A,2025-01-10_09h11.07.282,EPIDM,2023.1.2,59.61516906382729,
7950.jpg,7187.jpg,1 Point,1 Point,17 Points,PS1_L1.csv,,,,,,,,,,,,,,,,,,,,,,,,,,,,,0,0,0,0,0,5,5,5,,,,,,,,,,,,,,,,,,,263.0367874170188,q,1.350628041982418,264.49375187500846,,,,,,48,A,2025-01-10_09h11.07.282,EPIDM,2023.1.2,59.61516906382729,
5535.jpg,8210.jpg,3 Points,3 Points,20 Points,PS1_L1.csv,,,,,,,,,,,,,,,,,,,,,,,,,,,,,0,0,0,0,0,6,6,6,,,,,,,,,,,,,,,,,,,268.7042059590167,q,1.2580782499862835,270.0344976670167,,,,,,48,A,2025-01-10_09h11.07.282,EPIDM,2023.1.2,59.61516906382729,
9001.jpg,9620.jpg,1 Point,1 Point,21 Points,PS1_L1.csv,,,,,,,,,,,,,,,,,,,,,,,,,,,,,0,0,0,0,0,7,7,7,,,,,,,,,,,,,,,,,,,274.26797458401415,q,1.484911750012543,275.8388369590102,,,,,,48,A,2025-01-10_09h11.07.282,EPIDM,2023.1.2,59.61516906382729,
1110.jpg,9331.jpg,2 Points,2 Points,23 Points,PS1_L1.csv,,,,,,,,,,,,,,,,,,,,,,,,,,,,,0,0,0,0,0,8,8,8,,,,,,,,,,,,,,,,,,,280.06609391700476,q,1.4312096250068862,281.5790635840094,,,,,,48,A,2025-01-10_09h11.07.282,EPIDM,2023.1.2,59.61516906382729,
7820.jpg,1121.jpg,0 Points,0 Points,23 Points,PS1_L1.csv,,,,,,,,,,,,,,,,,,,,,,,,,,,,,0,0,0,0,0,9,9,9,,,,,,,,,,,,,,,,,,,285.8176137090195,p,1.391626249998808,287.29193854201003,,,,,,48,A,2025-01-10_09h11.07.282,EPIDM,2023.1.2,59.61516906382729,
7186.jpg,9182.jpg,2 Points,2 Points,25 Points,PS1_L1.csv,,,,,,,,,,,,,,,,,,,,,,,,,,,,,0,0,0,0,0,10,10,10,,,,,,,,,,,,,,,,,,,291.5300958750013,p,1.0488183330162428,292.64290804200573,,,,,,48,A,2025-01-10_09h11.07.282,EPIDM,2023.1.2,59.61516906382729,
9280.jpg,9390.jpg,1 Point,1 Point,26 Points,PS1_L1.csv,,,,,,,,,,,,,,,,,,,,,,,,,,,,,0,0,0,0,0,11,11,11,,,,,,,,,,,,,,,,,,,296.8937581250211,q,1.1466345000080764,298.12891650001984,,,,,,48,A,2025-01-10_09h11.07.282,EPIDM,2023.1.2,59.61516906382729,
2440.jpg,7351.jpg,4 Points,4 Points,30 Points,PS1_L1.csv,,,,,,,,,,,,,,,,,,,,,,,,,,,,,0,0,0,0,0,12,12,12,,,,,,,,,,,,,,,,,,,302.37172679201467,p,1.30963416598388,303.76054737501545,,,,,,48,A,2025-01-10_09h11.07.282,EPIDM,2023.1.2,59.61516906382729,
6834.jpg,9120.jpg,5 Points,5 Points,35 Points,PS1_L1.csv,,,,,,,,,,,,,,,,,,,,,,,,,,,,,0,0,0,0,0,13,13,13,,,,,,,,,,,,,,,,,,,307.99774591700407,p,1.2833223749767058,309.34804229202564,5,1.8228260000178125,,,,48,A,2025-01-10_09h11.07.282,EPIDM,2023.1.2,59.61516906382729,
9230.jpg,9181.jpg,0 Points,0 Points,35 Points,PS1_L1.csv,,,,,,,,,,,,,,,,,,,,,,,,,,,,,0,0,0,0,0,14,14,14,,,,,,,,,,,,,,,,,,,315.4883050000062,p,1.415305458009243,316.95916374999797,,,,,,48,A,2025-01-10_09h11.07.282,EPIDM,2023.1.2,59.61516906382729,
8260.jpg,8280.jpg,3 Points,3 Points,38 Points,PS1_L1.csv,,,,,,,,,,,,,,,,,,,,,,,,,,,,,0,0,0,0,0,15,15,15,,,,,,,,,,,,,,,,,,,321.20566037500976,p,1.4666884579928592,322.74248316700687,,,,,,48,A,2025-01-10_09h11.07.282,EPIDM,2023.1.2,59.61516906382729,
9470.jpg,9400.jpg,3 Points,3 Points,41 Points,PS1_L1.csv,,,,,,,,,,,,,,,,,,,,,,,,,,,,,0,0,0,0,0,16,16,16,,,,,,,,,,,,,,,,,,,326.9868852090149,q,1.2690680419909768,328.31596887501655,,,,,,48,A,2025-01-10_09h11.07.282,EPIDM,2023.1.2,59.61516906382729,
2616.jpg,7238.jpg,4 Points,4 Points,45 Points,PS1_L1.csv,,,,,,,,,,,,,,,,,,,,,,,,,,,,,0,0,0,0,0,17,17,17,,,,,,,,,,,,,,,,,,,332.5886129999999,p,0.9640584170119837,333.62608550000004,,,,,,48,A,2025-01-10_09h11.07.282,EPIDM,2023.1.2,59.61516906382729,
9430.jpg,3010.jpg,5 Points,5 Points,50 Points,PS1_L1.csv,,,,,,,,,,,,,,,,,,,,,,,,,,,,,0,0,0,0,0,18,18,18,,,,,,,,,,,,,,,,,,,337.86778220901033,p,0.8843802500050515,338.8108190839994,,,,,,48,A,2025-01-10_09h11.07.282,EPIDM,2023.1.2,59.61516906382729,
1661.jpg,1321.jpg,3 Points,3 Points,53 Points,PS1_L1.csv,,,,,,,,,,,,,,,,,,,,,,,,,,,,,0,0,0,0,0,19,19,19,,,,,,,,,,,,,,,,,,,343.05548083400936,p,1.5684271250211168,344.68120783401537,,,,,,48,A,2025-01-10_09h11.07.282,EPIDM,2023.1.2,59.61516906382729,
8041.jpg,2271.jpg,2 Points,2 Points,55 Points,PS1_L1.csv,,,,,,,,,,,,,,,,,,,,,,,,,,,,,0,0,0,0,0,20,20,20,,,,,,,,,,,,,,,,,,,348.9283820420096,q,1.0407643750077114,350.04248812500737,,,,,,48,A,2025-01-10_09h11.07.282,EPIDM,2023.1.2,59.61516906382729,
9180.jpg,9046.jpg,3 Points,3 Points,58 Points,PS1_L1.csv,,,,,,,,,,,,,,,,,,,,,,,,,,,,,0,0,0,0,0,21,21,21,,,,,,,,,,,,,,,,,,,354.28290908402414,q,1.181646124983672,355.53725074999966,,,,,,48,A,2025-01-10_09h11.07.282,EPIDM,2023.1.2,59.61516906382729,
2691.jpg,7640.jpg,0 Points,0 Points,58 Points,PS1_L1.csv,,,,,,,,,,,,,,,,,,,,,,,,,,,,,0,0,0,0,0,22,22,22,,,,,,,,,,,,,,,,,,,359.77516483401996,q,1.265411291999044,361.10988712499966,,,,,,48,A,2025-01-10_09h11.07.282,EPIDM,2023.1.2,59.61516906382729,
1660.jpg,2840.jpg,2 Points,2 Points,60 Points,PS1_L1.csv,,,,,,,,,,,,,,,,,,,,,,,,,,,,,0,0,0,0,0,23,23,23,,,,,,,,,,,,,,,,,,,365.3514304590062,p,1.8479770830017515,367.2683287920081,,,377.7689285840024,space,19.82200595899485,48,A,2025-01-10_09h11.07.282,EPIDM,2023.1.2,59.61516906382729,
9480.jpg,9250.jpg,0 Points,0 Points,60 Points,PS1_L2.csv,,,,,,,,,,,,,,,,,,,,,,,,,,,,,0,1,1,1,0,0,0,0,,,,,,,,,,,,,,,,,,,400.9075977500179,q,1.2033539999974892,402.1805528750119,,,,,,48,A,2025-01-10_09h11.07.282,EPIDM,2023.1.2,59.61516906382729,
9910.jpg,6940.jpg,2 Points,2 Points,62 Points,PS1_L2.csv,,,,,,,,,,,,,,,,,,,,,,,,,,,,,0,1,1,1,0,1,1,1,,,,,,,,,,,,,,,,,,,406.42703650001204,q,2.019208207988413,408.50094812500174,0,2.4127423339814413,,,,48,A,2025-01-10_09h11.07.282,EPIDM,2023.1.2,59.61516906382729,
4535.jpg,1811.jpg,1 Point,1 Point,63 Points,PS1_L2.csv,,,,,,,,,,,,,,,,,,,,,,,,,,,,,0,1,1,1,0,2,2,2,,,,,,,,,,,,,,,,,,,415.213522459002,p,2.176128624996636,417.46875,,,,,,48,A,2025-01-10_09h11.07.282,EPIDM,2023.1.2,59.61516906382729,
2020.jpg,1947.jpg,5 Points,5 Points,68 Points,PS1_L2.csv,,,,,,,,,,,,,,,,,,,,,,,,,,,,,0,1,1,1,0,3,3,3,,,,,,,,,,,,,,,,,,,421.7002280840243,p,1.2843401660211384,423.0607871670218,,,,,,48,A,2025-01-10_09h11.07.282,EPIDM,2023.1.2,59.61516906382729,
9160.jpg,1200.jpg,4 Points,4 Points,72 Points,PS1_L2.csv,,,,,,,,,,,,,,,,,,,,,,,,,,,,,0,1,1,1,0,4,4,4,,,,,,,,,,,,,,,,,,,427.3071875840251,p,1.1553341249818914,428.53658079201705,,,,,,48,A,2025-01-10_09h11.07.282,EPIDM,2023.1.2,59.61516906382729,
9520.jpg,1931.jpg,3 Points,3 Points,75 Points,PS1_L2.csv,,,,,,,,,,,,,,,,,,,,,,,,,,,,,0,1,1,1,0,5,5,5,,,,,,,,,,,,,,,,,,,432.7856723340228,q,1.732656957989093,434.59670612501213,,,,,,48,A,2025-01-10_09h11.07.282,EPIDM,2023.1.2,59.61516906382729,
7830.jpg,2499.jpg,3 Points,3 Points,78 Points,PS1_L2.csv,,,,,,,,,,,,,,,,,,,,,,,,,,,,,0,1,1,1,0,6,6,6,,,,,,,,,,,,,,,,,,,438.8359638750262,p,1.2347106669913046,440.12988895902527,,,,,,48,A,2025-01-10_09h11.07.282,EPIDM,2023.1.2,59.61516906382729,
6830.jpg,6212.jpg,4 Points,4 Points,82 Points,PS1_L2.csv,,,,,,,,,,,,,,,,,,,,,,,,,,,,,0,1,1,1,0,7,7,7,,,,,,,,,,,,,,,,,,,444.37944491702365,q,1.5067792500194628,445.9596492499986,,,,,,48,A,2025-01-10_09h11.07.282,EPIDM,2023.1.2,59.61516906382729,
7285.jpg,4233.jpg,5 Points,5 Points,87 Points,PS1_L2.csv,,,,,,,,,,,,,,,,,,,,,,,,,,,,,0,1,1,1,0,8,8,8,,,,,,,,,,,,,,,,,,,450.2092861670244,p,1.6849371249845717,451.9727304590051,,,,,,48,A,2025-01-10_09h11.07.282,EPIDM,2023.1.2,59.61516906382729,
1740.jpg,7480.jpg,0 Points,0 Points,87 Points,PS1_L2.csv,,,,,,,,,,,,,,,,,,,,,,,,,,,,,0,1,1,1,0,9,9,9,,,,,,,,,,,,,,,,,,,456.2092382500123,p,1.0607484579959419,457.33780220901826,,,,,,48,A,2025-01-10_09h11.07.282,EPIDM,2023.1.2,59.61516906382729,
7380.jpg,1220.jpg,1 Point,1 Point,88 Points,PS1_L2.csv,,,,,,,,,,,,,,,,,,,,,,,,,,,,,0,1,1,1,0,10,10,10,,,,,,,,,,,,,,,,,,,461.57943662500475,q,1.2653026249899995,462.9131047920091,,,,,,48,A,2025-01-10_09h11.07.282,EPIDM,2023.1.2,59.61516906382729,
3061.jpg,2717.jpg,4 Points,4 Points,92 Points,PS1_L2.csv,,,,,,,,,,,,,,,,,,,,,,,,,,,,,0,1,1,1,0,11,11,11,,,,,,,,,,,,,,,,,,,467.1593439170101,q,1.4860792909748852,468.70614212501096,,,,,,48,A,2025-01-10_09h11.07.282,EPIDM,2023.1.2,59.61516906382729,
5460.jpg,5800.jpg,0 Points,0 Points,92 Points,PS1_L2.csv,,,,,,,,,,,,,,,,,,,,,,,,,,,,,0,1,1,1,0,12,12,12,,,,,,,,,,,,,,,,,,,472.9627379590238,q,1.2830251249833964,474.3301324589993,,,,,,48,A,2025-01-10_09h11.07.282,EPIDM,2023.1.2,59.61516906382729,
2215.jpg,2512.jpg,1 Point,1 Point,93 Points,PS1_L2.csv,,,,,,,,,,,,,,,,,,,,,,,,,,,,,0,1,1,1,0,13,13,13,,,,,,,,,,,,,,,,,,,478.5657184590236,p,1.1837944589788094,479.81822987500345,1,1.3216160419979133,,,,48,A,2025-01-10_09h11.07.282,EPIDM,2023.1.2,59.61516906382729,
3000.jpg,6200.jpg,5 Points,5 Points,98 Points,PS1_L2.csv,,,,,,,,,,,,,,,,,,,,,,,,,,,,,0,1,1,1,0,14,14,14,,,,,,,,,,,,,,,,,,,485.43921395900543,q,0.9260676249978133,486.435908000014,,,,,,48,A,2025-01-10_09h11.07.282,EPIDM,2023.1.2,59.61516906382729,
1945.jpg,2800.jpg,4 Points,4 Points,102 Points,PS1_L2.csv,,,,,,,,,,,,,,,,,,,,,,,,,,,,,0,1,1,1,0,15,15,15,,,,,,,,,,,,,,,,,,,490.6847944170004,p,1.7357639159890823,492.49786508400575,,,,,,48,A,2025-01-10_09h11.07.282,EPIDM,2023.1.2,59.61516906382729,
5660.jpg,5201.jpg,0 Points,0 Points,102 Points,PS1_L2.csv,,,,,,,,,,,,,,,,,,,,,,,,,,,,,0,1,1,1,0,16,16,16,,,,,,,,,,,,,,,,,,,496.73545812501106,q,1.3813704169879202,498.18487029202515,,,,,,48,A,2025-01-10_09h11.07.282,EPIDM,2023.1.2,59.61516906382729,
3266.jpg,7360.jpg,1 Point,1 Point,103 Points,PS1_L2.csv,,,,,,,,,,,,,,,,,,,,,,,,,,,,,0,1,1,1,0,17,17,17,,,,,,,,,,,,,,,,,,,502.4325537920231,q,1.0993054170103278,503.60027858402464,,,,,,48,A,2025-01-10_09h11.07.282,EPIDM,2023.1.2,59.61516906382729,
F149.jpg,3030.jpg,0 Points,0 Points,103 Points,PS1_L2.csv,,,,,,,,,,,,,,,,,,,,,,,,,,,,,0,1,1,1,0,18,18,18,,,,,,,,,,,,,,,,,,,507.83754612502526,p,1.382513624994317,509.3299196670123,,,,,,48,A,2025-01-10_09h11.07.282,EPIDM,2023.1.2,59.61516906382729,
5410.jpg,1450.jpg,5 Points,5 Points,108 Points,PS1_L2.csv,,,,,,,,,,,,,,,,,,,,,,,,,,,,,0,1,1,1,0,19,19,19,,,,,,,,,,,,,,,,,,,513.5357032090251,q,1.4121288330061361,515.0124348750105,,,,,,48,A,2025-01-10_09h11.07.282,EPIDM,2023.1.2,59.61516906382729,
9101.jpg,9571.jpg,2 Points,2 Points,110 Points,PS1_L2.csv,,,,,,,,,,,,,,,,,,,,,,,,,,,,,0,1,1,1,0,20,20,20,,,,,,,,,,,,,,,,,,,519.2643542920123,p,0.9393073329993058,520.273757042014,,,,,,48,A,2025-01-10_09h11.07.282,EPIDM,2023.1.2,59.61516906382729,
9110.jpg,3051.jpg,1 Point,1 Point,111 Points,PS1_L2.csv,,,,,,,,,,,,,,,,,,,,,,,,,,,,,0,1,1,1,0,21,21,21,,,,,,,,,,,,,,,,,,,524.515266041999,p,1.017585624998901,525.6195317500096,,,,,,48,A,2025-01-10_09h11.07.282,EPIDM,2023.1.2,59.61516906382729,
2100.jpg,7205.jpg,5 Points,5 Points,116 Points,PS1_L2.csv,,,,,,,,,,,,,,,,,,,,,,,,,,,,,0,1,1,1,0,22,22,22,,,,,,,,,,,,,,,,,,,529.8480450000206,p,1.6033020000031684,531.53286854201,,,,,,48,A,2025-01-10_09h11.07.282,EPIDM,2023.1.2,59.61516906382729,
3160.jpg,6210.jpg,1 Point,1 Point,117 Points,PS1_L2.csv,,,,,,,,,,,,,,,,,,,,,,,,,,,,,0,1,1,1,0,23,23,23,,,,,,,,,,,,,,,,,,,535.7647142920177,q,1.158862540993141,536.9940238750132,,,547.4509015420044,space,5.079956083005527,48,A,2025-01-10_09h11.07.282,EPIDM,2023.1.2,59.61516906382729,
7283.jpg,1720.jpg,4 Points,4 Points,121 Points,PS1_L3.csv,,,,,,,,,,,,,,,,,,,,,,,,,,,,,0,2,2,2,0,0,0,0,,,,,,,,,,,,,,,,,,,555.8369919590186,q,1.4705265419906937,557.3807408749999,,,,,,48,A,2025-01-10_09h11.07.282,EPIDM,2023.1.2,59.61516906382729,
6571.jpg,P237.jpg,2 Points,2 Points,123 Points,PS1_L3.csv,,,,,,,,,,,,,,,,,,,,,,,,,,,,,0,2,2,2,0,1,1,1,,,,,,,,,,,,,,,,,,,561.6166441250243,p,1.4660454999830108,563.2001816249976,2,1.395977917010896,,,,48,A,2025-01-10_09h11.07.282,EPIDM,2023.1.2,59.61516906382729,
6260.jpg,3062.jpg,3 Points,3 Points,126 Points,PS1_L3.csv,,,,,,,,,,,,,,,,,,,,,,,,,,,,,0,2,2,2,0,2,2,2,,,,,,,,,,,,,,,,,,,568.8963377920154,p,1.2016972080164123,570.1664567090047,,,,,,48,A,2025-01-10_09h11.07.282,EPIDM,2023.1.2,59.61516906382729,
6150.jpg,2206.jpg,0 Points,0 Points,126 Points,PS1_L3.csv,,,,,,,,,,,,,,,,,,,,,,,,,,,,,0,2,2,2,0,3,3,3,,,,,,,,,,,,,,,,,,,574.4011537500191,p,1.298464999999851,575.7720955000259,,,,,,48,A,2025-01-10_09h11.07.282,EPIDM,2023.1.2,59.61516906382729,
9300.jpg,1050.jpg,4 Points,4 Points,130 Points,PS1_L3.csv,,,,,,,,,,,,,,,,,,,,,,,,,,,,,0,2,2,2,0,4,4,4,,,,,,,,,,,,,,,,,,,579.999270084023,q,0.9398541249975096,581.0117531670257,,,,,,48,A,2025-01-10_09h11.07.282,EPIDM,2023.1.2,59.61516906382729,
F365.jpg,3180.jpg,5 Points,5 Points,135 Points,PS1_L3.csv,,,,,,,,,,,,,,,,,,,,,,,,,,,,,0,2,2,2,0,5,5,5,,,,,,,,,,,,,,,,,,,585.2569542500132,p,1.537671166996006,586.8903681670199,,,,,,48,A,2025-01-10_09h11.07.282,EPIDM,2023.1.2,59.61516906382729,
2320.jpg,2791.jpg,4 Points,4 Points,139 Points,PS1_L3.csv,,,,,,,,,,,,,,,,,,,,,,,,,,,,,0,2,2,2,0,6,6,6,,,,,,,,,,,,,,,,,,,591.1056173340185,p,1.4646167079918087,592.669745250023,,,,,,48,A,2025-01-10_09h11.07.282,EPIDM,2023.1.2,59.61516906382729,
8311.jpg,4609.jpg,2 Points,2 Points,141 Points,PS1_L3.csv,,,,,,,,,,,,,,,,,,,,,,,,,,,,,0,2,2,2,0,7,7,7,,,,,,,,,,,,,,,,,,,596.8894117920136,p,1.5288579589978326,598.4875966670224,,,,,,48,A,2025-01-10_09h11.07.282,EPIDM,2023.1.2,59.61516906382729,
9042.jpg,2753.jpg,0 Points,0 Points,141 Points,PS1_L3.csv,,,,,,,,,,,,,,,,,,,,,,,,,,,,,0,2,2,2,0,8,8,8,,,,,,,,,,,,,,,,,,,602.7255447500211,q,1.2605322909948882,604.0547896250209,,,,,,48,A,2025-01-10_09h11.07.282,EPIDM,2023.1.2,59.61516906382729,
5471.jpg,7352.jpg,2 Points,2 Points,143 Points,PS1_L3.csv,,,,,,,,,,,,,,,,,,,,,,,,,,,,,0,2,2,2,0,9,9,9,,,,,,,,,,,,,,,,,,,608.295481875015,q,1.218100250000134,609.5865349170053,,,,,,48,A,2025-01-10_09h11.07.282,EPIDM,2023.1.2,59.61516906382729,
P222.jpg,9401.jpg,2 Points,2 Points,145 Points,PS1_L3.csv,,,,,,,,,,,,,,,,,,,,,,,,,,,,,0,2,2,2,0,10,10,10,,,,,,,,,,,,,,,,,,,613.832047792006,q,1.1858957920048852,615.1214774170076,,,,,,48,A,2025-01-10_09h11.07.282,EPIDM,2023.1.2,59.61516906382729,
1610.jpg,F203.jpg,0 Points,0 Points,145 Points,PS1_L3.csv,,,,,,,,,,,,,,,,,,,,,,,,,,,,,0,2,2,2,0,11,11,11,,,,,,,,,,,,,,,,,,,619.3248462089978,p,1.5895527910033707,621.0608043340035,,,,,,48,A,2025-01-10_09h11.07.282,EPIDM,2023.1.2,59.61516906382729,
9405.jpg,6250.2.jpg,3 Points,3 Points,148 Points,PS1_L3.csv,,,,,,,,,,,,,,,,,,,,,,,,,,,,,0,2,2,2,0,12,12,12,,,,,,,,,,,,,,,,,,,625.2383293340099,q,1.0831562079838477,626.4285283750214,,,,,,48,A,2025-01-10_09h11.07.282,EPIDM,2023.1.2,59.61516906382729,
1090.jpg,P217.jpg,5 Points,5 Points,153 Points,PS1_L3.csv,,,,,,,,,,,,,,,,,,,,,,,,,,,,,0,2,2,2,0,13,13,13,,,,,,,,,,,,,,,,,,,630.6277992920077,p,1.1484990839962848,631.8895528750145,5,1.5043982499919366,,,,48,A,2025-01-10_09h11.07.282,EPIDM,2023.1.2,59.61516906382729,
P233.jpg,3060.jpg,1 Point,1 Point,154 Points,PS1_L3.csv,,,,,,,,,,,,,,,,,,,,,,,,,,,,,0,2,2,2,0,14,14,14,,,,,,,,,,,,,,,,,,,637.7113047090243,q,1.4021519999951124,639.2526040420053,,,,,,48,A,2025-01-10_09h11.07.282,EPIDM,2023.1.2,59.61516906382729,
8040.jpg,7185.jpg,1 Point,1 Point,155 Points,PS1_L3.csv,,,,,,,,,,,,,,,,,,,,,,,,,,,,,0,2,2,2,0,15,15,15,,,,,,,,,,,,,,,,,,,643.4305259590037,p,1.090471790987067,644.6384789170115,,,,,,48,A,2025-01-10_09h11.07.282,EPIDM,2023.1.2,59.61516906382729,
6550.jpg,9582.jpg,5 Points,5 Points,160 Points,PS1_L3.csv,,,,,,,,,,,,,,,,,,,,,,,,,,,,,0,2,2,2,0,16,16,16,,,,,,,,,,,,,,,,,,,648.8276897090254,p,2.1807899169798475,651.0840581250086,,,,,,48,A,2025-01-10_09h11.07.282,EPIDM,2023.1.2,59.61516906382729,
P077.jpg,A041.jpg,1 Point,1 Point,161 Points,PS1_L3.csv,,,,,,,,,,,,,,,,,,,,,,,,,,,,,0,2,2,2,0,17,17,17,,,,,,,,,,,,,,,,,,,655.3272918750008,p,1.6500597079866566,657.1190644590242,,,,,,48,A,2025-01-10_09h11.07.282,EPIDM,2023.1.2,59.61516906382729,
4770.jpg,4275.jpg,3 Points,3 Points,164 Points,PS1_L3.csv,,,,,,,,,,,,,,,,,,,,,,,,,,,,,0,2,2,2,0,18,18,18,,,,,,,,,,,,,,,,,,,661.2922672090062,q,1.3721469589800108,662.7858395000221,,,,,,48,A,2025-01-10_09h11.07.282,EPIDM,2023.1.2,59.61516906382729,
9594.jpg,1080.jpg,4 Points,4 Points,168 Points,PS1_L3.csv,,,,,,,,,,,,,,,,,,,,,,,,,,,,,0,2,2,2,0,19,19,19,,,,,,,,,,,,,,,,,,,666.9879672920215,q,1.7804583340184763,668.8457542920078,,,,,,48,A,2025-01-10_09h11.07.282,EPIDM,2023.1.2,59.61516906382729,
2606.jpg,2480.jpg,1 Point,1 Point,169 Points,PS1_L3.csv,,,,,,,,,,,,,,,,,,,,,,,,,,,,,0,2,2,2,0,20,20,20,,,,,,,,,,,,,,,,,,,673.0746219170105,q,1.4529359589796513,674.5981280000124,,,,,,48,A,2025-01-10_09h11.07.282,EPIDM,2023.1.2,59.61516906382729,
1052.jpg,1201.jpg,3 Points,3 Points,172 Points,PS1_L3.csv,,,,,,,,,,,,,,,,,,,,,,,,,,,,,0,2,2,2,0,21,21,21,,,,,,,,,,,,,,,,,,,678.8379209999985,p,1.385028125019744,680.2954224170244,,,,,,48,A,2025-01-10_09h11.07.282,EPIDM,2023.1.2,59.61516906382729,
F369.jpg,3100.jpg,2 Points,2 Points,174 Points,PS1_L3.csv,,,,,,,,,,,,,,,,,,,,,,,,,,,,,0,2,2,2,0,22,22,22,,,,,,,,,,,,,,,,,,,684.537926250021,q,1.4401129169855267,686.0871369590168,,,,,,48,A,2025-01-10_09h11.07.282,EPIDM,2023.1.2,59.61516906382729,
2620.jpg,2594.jpg,0 Points,0 Points,174 Points,PS1_L3.csv,,,,,,,,,,,,,,,,,,,,,,,,,,,,,0,2,2,2,0,23,23,23,,,,,,,,,,,,,,,,,,,690.3047415000037,q,2.023780415998772,692.4059431670175,,,702.8681307500228,space,5.331114791013533,48,A,2025-01-10_09h11.07.282,EPIDM,2023.1.2,59.61516906382729,
P019.jpg,F158.jpg,3 Points,3 Points,177 Points,PS1_L4.csv,,,,,,,,,,,,,,,,,,,,,,,,,,,,,0,3,3,3,0,0,0,0,,,,,,,,,,,,,,,,,,,711.5296412090247,q,1.4475752909784205,713.1139960840228,,,,,,48,A,2025-01-10_09h11.07.282,EPIDM,2023.1.2,59.61516906382729,
7620.jpg,5395.jpg,1 Point,1 Point,178 Points,PS1_L4.csv,,,,,,,,,,,,,,,,,,,,,,,,,,,,,0,3,3,3,0,1,1,1,,,,,,,,,,,,,,,,,,,717.2916572500253,p,1.73179641700699,719.13006950001,1,1.4740575829928275,,,,48,A,2025-01-10_09h11.07.282,EPIDM,2023.1.2,59.61516906382729,
5970.jpg,3300.jpg,0 Points,0 Points,178 Points,PS1_L4.csv,,,,,,,,,,,,,,,,,,,,,,,,,,,,,0,3,3,3,0,2,2,2,,,,,,,,,,,,,,,,,,,724.8599692920106,p,1.6986940829956438,726.6322589170013,,,,,,48,A,2025-01-10_09h11.07.282,EPIDM,2023.1.2,59.61516906382729,
5120.jpg,5520.jpg,2 Points,2 Points,180 Points,PS1_L4.csv,,,,,,,,,,,,,,,,,,,,,,,,,,,,,0,3,3,3,0,3,3,3,,,,,,,,,,,,,,,,,,,730.8713442920125,p,0.7994787499774247,731.7388261250162,,,,,,48,A,2025-01-10_09h11.07.282,EPIDM,2023.1.2,59.61516906382729,
9452.jpg,7184.jpg,4 Points,4 Points,184 Points,PS1_L4.csv,,,,,,,,,,,,,,,,,,,,,,,,,,,,,0,3,3,3,0,4,4,4,,,,,,,,,,,,,,,,,,,735.9777388750226,q,1.6534714160079602,737.7001704170252,,,,,,48,A,2025-01-10_09h11.07.282,EPIDM,2023.1.2,59.61516906382729,
6570.1.jpg,9432.jpg,5 Points,5 Points,189 Points,PS1_L4.csv,,,,,,,,,,,,,,,,,,,,,,,,,,,,,0,3,3,3,0,5,5,5,,,,,,,,,,,,,,,,,,,741.9421382920118,p,1.6569215829949826,743.6704484170186,,,,,,48,A,2025-01-10_09h11.07.282,EPIDM,2023.1.2,59.61516906382729,
2389.jpg,7320.jpg,0 Points,0 Points,189 Points,PS1_L4.csv,,,,,,,,,,,,,,,,,,,,,,,,,,,,,0,3,3,3,0,6,6,6,,,,,,,,,,,,,,,,,,,747.9119608340261,p,1.647595916991122,749.6380857090116,,,,,,48,A,2025-01-10_09h11.07.282,EPIDM,2023.1.2,59.61516906382729,
9330.jpg,3015.jpg,5 Points,5 Points,194 Points,PS1_L4.csv,,,,,,,,,,,,,,,,,,,,,,,,,,,,,0,3,3,3,0,7,7,7,,,,,,,,,,,,,,,,,,,753.8654586250195,p,1.3808239999925718,755.3093790840067,,,,,,48,A,2025-01-10_09h11.07.282,EPIDM,2023.1.2,59.61516906382729,
9560.jpg,3071.jpg,1 Point,1 Point,195 Points,PS1_L4.csv,,,,,,,,,,,,,,,,,,,,,,,,,,,,,0,3,3,3,0,8,8,8,,,,,,,,,,,,,,,,,,,759.5454702090065,p,1.2367351250140928,760.8465440840228,,,,,,48,A,2025-01-10_09h11.07.282,EPIDM,2023.1.2,59.61516906382729,
5994.jpg,5390.jpg,0 Points,0 Points,195 Points,PS1_L4.csv,,,,,,,,,,,,,,,,,,,,,,,,,,,,,0,3,3,3,0,9,9,9,,,,,,,,,,,,,,,,,,,765.0867990840052,q,1.144064125022851,766.3036505420168,,,,,,48,A,2025-01-10_09h11.07.282,EPIDM,2023.1.2,59.61516906382729,
2692.jpg,8231.jpg,4 Points,4 Points,199 Points,PS1_L4.csv,,,,,,,,,,,,,,,,,,,,,,,,,,,,,0,3,3,3,0,10,10,10,,,,,,,,,,,,,,,,,,,770.5481812920189,q,1.4974826249817852,772.1136601670005,,,,,,48,A,2025-01-10_09h11.07.282,EPIDM,2023.1.2,59.61516906382729,
F174.jpg,9404.jpg,5 Points,5 Points,204 Points,PS1_L4.csv,,,,,,,,,,,,,,,,,,,,,,,,,,,,,0,3,3,3,0,11,11,11,,,,,,,,,,,,,,,,,,,776.3634124590026,p,1.1225489579956047,777.5976235420094,,,,,,48,A,2025-01-10_09h11.07.282,EPIDM,2023.1.2,59.61516906382729,
8010.jpg,2630.jpg,0 Points,0 Points,204 Points,PS1_L4.csv,,,,,,,,,,,,,,,,,,,,,,,,,,,,,0,3,3,3,0,12,12,12,,,,,,,,,,,,,,,,,,,781.8012299170077,p,1.3743703749787528,783.2791891670204,,,,,,48,A,2025-01-10_09h11.07.282,EPIDM,2023.1.2,59.61516906382729,
7175.jpg,7490.jpg,2 Points,2 Points,206 Points,PS1_L4.csv,,,,,,,,,,,,,,,,,,,,,,,,,,,,,0,3,3,3,0,13,13,13,,,,,,,,,,,,,,,,,,,787.4935155420098,q,1.4887742499704473,789.0667673340067,2,1.245337833010126,,,,48,A,2025-01-10_09h11.07.282,EPIDM,2023.1.2,59.61516906382729,
6561.jpg,1525.jpg,2 Points,2 Points,208 Points,PS1_L4.csv,,,,,,,,,,,,,,,,,,,,,,,,,,,,,0,3,3,3,0,14,14,14,,,,,,,,,,,,,,,,,,,794.6246335420001,p,1.6597349160001613,796.3536097090109,,,,,,48,A,2025-01-10_09h11.07.282,EPIDM,2023.1.2,59.61516906382729,
9070.jpg,9420.jpg,2 Points,2 Points,210 Points,PS1_L4.csv,,,,,,,,,,,,,,,,,,,,,,,,,,,,,0,3,3,3,0,15,15,15,,,,,,,,,,,,,,,,,,,800.6057349170151,p,1.1850790409953333,801.8537041250092,,,,,,48,A,2025-01-10_09h11.07.282,EPIDM,2023.1.2,59.61516906382729,
2516.jpg,8500.jpg,4 Points,4 Points,214 Points,PS1_L4.csv,,,,,,,,,,,,,,,,,,,,,,,,,,,,,0,3,3,3,0,16,16,16,,,,,,,,,,,,,,,,,,,806.1079440420144,p,1.0570655000046827,807.2391375419975,,,,,,48,A,2025-01-10_09h11.07.282,EPIDM,2023.1.2,59.61516906382729,
9140.jpg,2810.jpg,3 Points,3 Points,217 Points,PS1_L4.csv,,,,,,,,,,,,,,,,,,,,,,,,,,,,,0,3,3,3,0,17,17,17,,,,,,,,,,,,,,,,,,,811.4730158340244,q,1.4839401250064839,813.0253461250104,,,,,,48,A,2025-01-10_09h11.07.282,EPIDM,2023.1.2,59.61516906382729,
7220.jpg,8090.jpg,2 Points,2 Points,219 Points,PS1_L4.csv,,,,,,,,,,,,,,,,,,,,,,,,,,,,,0,3,3,3,0,18,18,18,,,,,,,,,,,,,,,,,,,817.2644455840054,q,1.7794578329776414,819.1181044590194,,,,,,48,A,2025-01-10_09h11.07.282,EPIDM,2023.1.2,59.61516906382729,
2661.jpg,2870.jpg,5 Points,5 Points,224 Points,PS1_L4.csv,,,,,,,,,,,,,,,,,,,,,,,,,,,,,0,3,3,3,0,19,19,19,,,,,,,,,,,,,,,,,,,823.3759796670056,p,1.020269750006264,824.4602342500002,,,,,,48,A,2025-01-10_09h11.07.282,EPIDM,2023.1.2,59.61516906382729,
6010.jpg,7361.jpg,2 Points,2 Points,226 Points,PS1_L4.csv,,,,,,,,,,,,,,,,,,,,,,,,,,,,,0,3,3,3,0,20,20,20,,,,,,,,,,,,,,,,,,,828.7064874590142,q,2.025057040998945,830.8018135840248,,,,,,48,A,2025-01-10_09h11.07.282,EPIDM,2023.1.2,59.61516906382729,
7289.jpg,4534.jpg,0 Points,0 Points,226 Points,PS1_L4.csv,,,,,,,,,,,,,,,,,,,,,,,,,,,,,0,3,3,3,0,21,21,21,,,,,,,,,,,,,,,,,,,835.05017958401,q,1.4906671670032665,836.619652250025,,,,,,48,A,2025-01-10_09h11.07.282,EPIDM,2023.1.2,59.61516906382729,
1310.jpg,3181.jpg,4 Points,4 Points,230 Points,PS1_L4.csv,,,,,,,,,,,,,,,,,,,,,,,,,,,,,0,3,3,3,0,22,22,22,,,,,,,,,,,,,,,,,,,840.8495858340175,q,1.4268518750031944,842.3489832920022,,,,,,48,A,2025-01-10_09h11.07.282,EPIDM,2023.1.2,59.61516906382729,
2383.jpg,1616.jpg,2 Points,2 Points,232 Points,PS1_L4.csv,,,,,,,,,,,,,,,,,,,,,,,,,,,,,0,3,3,3,0,23,23,23,,,,,,,,,,,,,,,,,,,846.5937215420126,p,1.57970933400793,848.2379828340199,,,858.7191566670081,space,4.588435499987099,48,A,2025-01-10_09h11.07.282,EPIDM,2023.1.2,59.61516906382729,
4510.jpg,2230.jpg,5 Points,5 Points,237 Points,PS1_L5.csv,,,,,,,,,,,,,,,,,,,,,,,,,,,,,0,4,4,4,0,0,0,0,,,,,,,,,,,,,,,,,,,866.6157267920207,p,1.2445349160116166,867.9274250000017,,,,,,48,A,2025-01-10_09h11.07.282,EPIDM,2023.1.2,59.61516906382729,
A025.jpg,1051.jpg,0 Points,0 Points,237 Points,PS1_L5.csv,,,,,,,,,,,,,,,,,,,,,,,,,,,,,0,4,4,4,0,1,1,1,,,,,,,,,,,,,,,,,,,872.1720234170207,p,1.9031364170077723,874.18748779202,0,2.201631500007352,,,,48,A,2025-01-10_09h11.07.282,EPIDM,2023.1.2,59.61516906382729,
7002.jpg,4660.jpg,4 Points,4 Points,241 Points,PS1_L5.csv,,,,,,,,,,,,,,,,,,,,,,,,,,,,,0,4,4,4,0,2,2,2,,,,,,,,,,,,,,,,,,,880.6962255420221,p,2.1875898749858607,883.0111345000041,,,,,,48,A,2025-01-10_09h11.07.282,EPIDM,2023.1.2,59.61516906382729,
2900.jpg,1101.jpg,3 Points,3 Points,244 Points,PS1_L5.csv,,,,,,,,,,,,,,,,,,,,,,,,,,,,,0,4,4,4,0,3,3,3,,,,,,,,,,,,,,,,,,,887.2056844170147,p,1.9841753329965286,889.2737674590026,,,,,,48,A,2025-01-10_09h11.07.282,EPIDM,2023.1.2,59.61516906382729,
2485.jpg,7350.jpg,0 Points,0 Points,244 Points,PS1_L5.csv,,,,,,,,,,,,,,,,,,,,,,,,,,,,,0,4,4,4,0,4,4,4,,,,,,,,,,,,,,,,,,,893.508350167016,q,1.510225874983007,895.0937622920028,,,,,,48,A,2025-01-10_09h11.07.282,EPIDM,2023.1.2,59.61516906382729,
6242.jpg,F034.jpg,4 Points,4 Points,248 Points,PS1_L5.csv,,,,,,,,,,,,,,,,,,,,,,,,,,,,,0,4,4,4,0,5,5,5,,,,,,,,,,,,,,,,,,,899.3228873750195,q,1.6559726670093369,901.0897233750147,,,,,,48,A,2025-01-10_09h11.07.282,EPIDM,2023.1.2,59.61516906382729,
3170.jpg,6560.jpg,2 Points,2 Points,250 Points,PS1_L5.csv,,,,,,,,,,,,,,,,,,,,,,,,,,,,,0,4,4,4,0,6,6,6,,,,,,,,,,,,,,,,,,,905.2815006250166,p,1.2006810000166297,906.5538412500173,,,,,,48,A,2025-01-10_09h11.07.282,EPIDM,2023.1.2,59.61516906382729,
8033.jpg,7270.jpg,3 Points,3 Points,253 Points,PS1_L5.csv,,,,,,,,,,,,,,,,,,,,,,,,,,,,,0,4,4,4,0,7,7,7,,,,,,,,,,,,,,,,,,,910.8014897090034,q,1.4967256669769995,912.360004792019,,,,,,48,A,2025-01-10_09h11.07.282,EPIDM,2023.1.2,59.61516906382729,
2597.jpg,5870.jpg,5 Points,5 Points,258 Points,PS1_L5.csv,,,,,,,,,,,,,,,,,,,,,,,,,,,,,0,4,4,4,0,8,8,8,,,,,,,,,,,,,,,,,,,916.6077439590008,q,1.1391179169877432,917.8250957090058,,,,,,48,A,2025-01-10_09h11.07.282,EPIDM,2023.1.2,59.61516906382729,
6312.jpg,3230.jpg,2 Points,2 Points,260 Points,PS1_L5.csv,,,,,,,,,,,,,,,,,,,,,,,,,,,,,0,4,4,4,0,9,9,9,,,,,,,,,,,,,,,,,,,922.067486459011,p,1.5420818749989849,923.6835999170144,,,,,,48,A,2025-01-10_09h11.07.282,EPIDM,2023.1.2,59.61516906382729,
3130.jpg,3500.jpg,4 Points,4 Points,264 Points,PS1_L5.csv,,,,,,,,,,,,,,,,,,,,,,,,,,,,,0,4,4,4,0,10,10,10,,,,,,,,,,,,,,,,,,,927.9241106670233,q,1.03049945802195,929.0178649590234,,,,,,48,A,2025-01-10_09h11.07.282,EPIDM,2023.1.2,59.61516906382729,
2749.jpg,7282.jpg,3 Points,3 Points,267 Points,PS1_L5.csv,,,,,,,,,,,,,,,,,,,,,,,,,,,,,0,4,4,4,0,11,11,11,,,,,,,,,,,,,,,,,,,933.2659845000017,q,1.2243445419881027,934.5633569170022,,,,,,48,A,2025-01-10_09h11.07.282,EPIDM,2023.1.2,59.61516906382729,
5300.jpg,2372.jpg,1 Point,1 Point,268 Points,PS1_L5.csv,,,,,,,,,,,,,,,,,,,,,,,,,,,,,0,4,4,4,0,12,12,12,,,,,,,,,,,,,,,,,,,938.8036472500244,q,1.4060443750058766,940.2906551250198,,,,,,48,A,2025-01-10_09h11.07.282,EPIDM,2023.1.2,59.61516906382729,
6510.jpg,A074.jpg,2 Points,2 Points,270 Points,PS1_L5.csv,,,,,,,,,,,,,,,,,,,,,,,,,,,,,0,4,4,4,0,13,13,13,,,,,,,,,,,,,,,,,,,944.5346076670103,p,1.4025189589883666,946.0532337920158,2,1.2264273750188295,,,,48,A,2025-01-10_09h11.07.282,EPIDM,2023.1.2,59.61516906382729,
2260.jpg,2830.jpg,5 Points,5 Points,275 Points,PS1_L5.csv,,,,,,,,,,,,,,,,,,,,,,,,,,,,,0,4,4,4,0,14,14,14,,,,,,,,,,,,,,,,,,,951.5873879590072,p,1.6128786250192206,953.2930329170194,,,,,,48,A,2025-01-10_09h11.07.282,EPIDM,2023.1.2,59.61516906382729,
2710.jpg,9252.jpg,1 Point,1 Point,276 Points,PS1_L5.csv,,,,,,,,,,,,,,,,,,,,,,,,,,,,,0,4,4,4,0,15,15,15,,,,,,,,,,,,,,,,,,,957.5400290000252,p,2.2843306669965386,959.8973777920182,,,,,,48,A,2025-01-10_09h11.07.282,EPIDM,2023.1.2,59.61516906382729,
3064.jpg,3168.jpg,4 Points,4 Points,280 Points,PS1_L5.csv,,,,,,,,,,,,,,,,,,,,,,,,,,,,,0,4,4,4,0,16,16,16,,,,,,,,,,,,,,,,,,,964.155845500005,q,1.3897503330081236,965.6028948340099,,,,,,48,A,2025-01-10_09h11.07.282,EPIDM,2023.1.2,59.61516906382729,
1640.jpg,5531.jpg,3 Points,3 Points,283 Points,PS1_L5.csv,,,,,,,,,,,,,,,,,,,,,,,,,,,,,0,4,4,4,0,17,17,17,,,,,,,,,,,,,,,,,,,969.8459244590194,p,1.1788697089941707,971.1006901670189,,,,,,48,A,2025-01-10_09h11.07.282,EPIDM,2023.1.2,59.61516906382729,
3530.jpg,6213.jpg,1 Point,1 Point,284 Points,PS1_L5.csv,,,,,,,,,,,,,,,,,,,,,,,,,,,,,0,4,4,4,0,18,18,18,,,,,,,,,,,,,,,,,,,975.3367173750012,q,2.175238249998074,977.5919935840066,,,,,,48,A,2025-01-10_09h11.07.282,EPIDM,2023.1.2,59.61516906382729,
9090.jpg,7580.jpg,3 Points,3 Points,287 Points,PS1_L5.csv,,,,,,,,,,,,,,,,,,,,,,,,,,,,,0,4,4,4,0,19,19,19,,,,,,,,,,,,,,,,,,,981.831759749999,q,1.6174810419906862,983.5264554590103,,,,,,48,A,2025-01-10_09h11.07.282,EPIDM,2023.1.2,59.61516906382729,
8230.jpg,2682.jpg,5 Points,5 Points,292 Points,PS1_L5.csv,,,,,,,,,,,,,,,,,,,,,,,,,,,,,0,4,4,4,0,20,20,20,,,,,,,,,,,,,,,,,,,987.7527807500155,q,1.3747460000158753,989.2009896670061,,,,,,48,A,2025-01-10_09h11.07.282,EPIDM,2023.1.2,59.61516906382729,
9592.jpg,1300.jpg,2 Points,2 Points,294 Points,PS1_L5.csv,,,,,,,,,,,,,,,,,,,,,,,,,,,,,0,4,4,4,0,21,21,21,,,,,,,,,,,,,,,,,,,993.4344343749981,p,1.9354088749969378,995.4332966670045,,,,,,48,A,2025-01-10_09h11.07.282,EPIDM,2023.1.2,59.61516906382729,
2490.jpg,2590.jpg,4 Points,4 Points,298 Points,PS1_L5.csv,,,,,,,,,,,,,,,,,,,,,,,,,,,,,0,4,4,4,0,22,22,22,,,,,,,,,,,,,,,,,,,999.6823266670108,p,1.5975701670104172,1001.3458127500198,,,,,,48,A,2025-01-10_09h11.07.282,EPIDM,2023.1.2,59.61516906382729,
2190.jpg,7503.jpg,2 Points,2 Points,300 Points,PS1_L5.csv,,,,,,,,,,,,,,,,,,,,,,,,,,,,,0,4,4,4,0,23,23,23,,,,,,,,,,,,,,,,,,,1005.58233879201,q,1.4574244579998776,1007.1180014999991,,,1017.6366828750179,space,3.4110352499992587,48,A,2025-01-10_09h11.07.282,EPIDM,2023.1.2,59.61516906382729,
1930.jpg,9008.jpg,1 Point,1 Point,301 Points,PS1_L6.csv,,,,,,,,,,,,,,,,,,,,,,,,,,,,,0,5,5,5,0,0,0,0,,,,,,,,,,,,,,,,,,,1024.3707771670015,p,1.412022167001851,1025.8629554170184,,,,,,48,A,2025-01-10_09h11.07.282,EPIDM,2023.1.2,59.61516906382729,
4613.jpg,2720.jpg,4 Points,4 Points,305 Points,PS1_L6.csv,,,,,,,,,,,,,,,,,,,,,,,,,,,,,0,5,5,5,0,1,1,1,,,,,,,,,,,,,,,,,,,1030.104643958999,p,1.5500849579984788,1031.7309004590206,4,1.4284560419910122,,,,48,A,2025-01-10_09h11.07.282,EPIDM,2023.1.2,59.61516906382729,
3280.jpg,9270.jpg,0 Points,0 Points,305 Points,PS1_L6.csv,,,,,,,,,,,,,,,,,,,,,,,,,,,,,0,5,5,5,0,2,2,2,,,,,,,,,,,,,,,,,,,1037.4700519170146,p,2.176535332982894,1039.7133259999973,,,,,,48,A,2025-01-10_09h11.07.282,EPIDM,2023.1.2,59.61516906382729,
6800.jpg,9190.jpg,0 Points,0 Points,305 Points,PS1_L6.csv,,,,,,,,,,,,,,,,,,,,,,,,,,,,,0,5,5,5,0,3,3,3,,,,,,,,,,,,,,,,,,,1043.9546210000117,p,1.3637074999860488,1045.3778862090257,,,,,,48,A,2025-01-10_09h11.07.282,EPIDM,2023.1.2,59.61516906382729,
5600.jpg,9080.jpg,5 Points,5 Points,310 Points,PS1_L6.csv,,,,,,,,,,,,,,,,,,,,,,,,,,,,,0,5,5,5,0,4,4,4,,,,,,,,,,,,,,,,,,,1049.6211801250174,p,1.1213764160056598,1050.827923875011,,,,,,48,A,2025-01-10_09h11.07.282,EPIDM,2023.1.2,59.61516906382729,
P211.jpg,9041.jpg,4 Points,4 Points,314 Points,PS1_L6.csv,,,,,,,,,,,,,,,,,,,,,,,,,,,,,0,5,5,5,0,5,5,5,,,,,,,,,,,,,,,,,,,1055.0635526670085,q,1.4469810420123395,1056.6119490840065,,,,,,48,A,2025-01-10_09h11.07.282,EPIDM,2023.1.2,59.61516906382729,
5200.jpg,5020.jpg,0 Points,0 Points,314 Points,PS1_L6.csv,,,,,,,,,,,,,,,,,,,,,,,,,,,,,0,5,5,5,0,6,6,6,,,,,,,,,,,,,,,,,,,1060.8203365840018,q,0.9537689999851864,1061.844820584025,,,,,,48,A,2025-01-10_09h11.07.282,EPIDM,2023.1.2,59.61516906382729,
1850.jpg,5623.jpg,5 Points,5 Points,319 Points,PS1_L6.csv,,,,,,,,,,,,,,,,,,,,,,,,,,,,,0,5,5,5,0,7,7,7,,,,,,,,,,,,,,,,,,,1066.103619875008,p,1.5831431660044473,1067.7703482090146,,,,,,48,A,2025-01-10_09h11.07.282,EPIDM,2023.1.2,59.61516906382729,
9440.jpg,6350.jpg,4 Points,4 Points,323 Points,PS1_L6.csv,,,,,,,,,,,,,,,,,,,,,,,,,,,,,0,5,5,5,0,8,8,8,,,,,,,,,,,,,,,,,,,1072.0177994999976,q,1.4845026249822695,1073.5682493339991,,,,,,48,A,2025-01-10_09h11.07.282,EPIDM,2023.1.2,59.61516906382729,
5990.jpg,5780.jpg,3 Points,3 Points,326 Points,PS1_L6.csv,,,,,,,,,,,,,,,,,,,,,,,,,,,,,0,5,5,5,0,9,9,9,,,,,,,,,,,,,,,,,,,1077.8043229170144,q,1.2738605000195093,1079.145756959013,,,,,,48,A,2025-01-10_09h11.07.282,EPIDM,2023.1.2,59.61516906382729,
6244.jpg,9265.jpg,0 Points,0 Points,326 Points,PS1_L6.csv,,,,,,,,,,,,,,,,,,,,,,,,,,,,,0,5,5,5,0,10,10,10,,,,,,,,,,,,,,,,,,,1083.3931437090214,p,1.4686554580111988,1084.934771625005,,,,,,48,A,2025-01-10_09h11.07.282,EPIDM,2023.1.2,59.61516906382729,
5000.jpg,8180.jpg,4 Points,4 Points,330 Points,PS1_L6.csv,,,,,,,,,,,,,,,,,,,,,,,,,,,,,0,5,5,5,0,11,11,11,,,,,,,,,,,,,,,,,,,1089.1832334170176,p,1.638565999979619,1090.8965808750072,,,,,,48,A,2025-01-10_09h11.07.282,EPIDM,2023.1.2,59.61516906382729,
5982.jpg,5260.jpg,5 Points,5 Points,335 Points,PS1_L6.csv,,,,,,,,,,,,,,,,,,,,,,,,,,,,,0,5,5,5,0,12,12,12,,,,,,,,,,,,,,,,,,,1095.136440125003,p,2.1086996250087395,1097.3273507920094,,,,,,48,A,2025-01-10_09h11.07.282,EPIDM,2023.1.2,59.61516906382729,
1301.jpg,1070.jpg,2 Points,2 Points,337 Points,PS1_L6.csv,,,,,,,,,,,,,,,,,,,,,,,,,,,,,0,5,5,5,0,13,13,13,,,,,,,,,,,,,,,,,,,1101.556202250009,p,1.8484032499836758,1103.4852257920138,2,1.5597990829846822,,,,48,A,2025-01-10_09h11.07.282,EPIDM,2023.1.2,59.61516906382729,
7920.jpg,9102.jpg,3 Points,3 Points,340 Points,PS1_L6.csv,,,,,,,,,,,,,,,,,,,,,,,,,,,,,0,5,5,5,0,14,14,14,,,,,,,,,,,,,,,,,,,1109.35565529202,p,1.9370028340199497,1111.368495458999,,,,,,48,A,2025-01-10_09h11.07.282,EPIDM,2023.1.2,59.61516906382729,
5455.jpg,5220.jpg,0 Points,0 Points,340 Points,PS1_L6.csv,,,,,,,,,,,,,,,,,,,,,,,,,,,,,0,5,5,5,0,15,15,15,,,,,,,,,,,,,,,,,,,1115.6058775420242,q,1.5827213750162628,1117.255049667001,,,,,,48,A,2025-01-10_09h11.07.282,EPIDM,2023.1.2,59.61516906382729,
3350.jpg,3210.jpg,1 Point,1 Point,341 Points,PS1_L6.csv,,,,,,,,,,,,,,,,,,,,,,,,,,,,,0,5,5,5,0,16,16,16,,,,,,,,,,,,,,,,,,,1121.500613125012,q,2.287904416996753,1123.8491840420174,,,,,,48,A,2025-01-10_09h11.07.282,EPIDM,2023.1.2,59.61516906382729,
2560.jpg,5270.jpg,4 Points,4 Points,345 Points,PS1_L6.csv,,,,,,,,,,,,,,,,,,,,,,,,,,,,,0,5,5,5,0,17,17,17,,,,,,,,,,,,,,,,,,,1128.1008658750216,p,2.127624457993079,1130.3042610840057,,,,,,48,A,2025-01-10_09h11.07.282,EPIDM,2023.1.2,59.61516906382729,
9584.jpg,3400.jpg,2 Points,2 Points,347 Points,PS1_L6.csv,,,,,,,,,,,,,,,,,,,,,,,,,,,,,0,5,5,5,0,18,18,18,,,,,,,,,,,,,,,,,,,1134.5486205000198,p,1.2011718330031727,1135.8200730420067,,,,,,48,A,2025-01-10_09h11.07.282,EPIDM,2023.1.2,59.61516906382729,
5760.jpg,1602.jpg,1 Point,1 Point,348 Points,PS1_L6.csv,,,,,,,,,,,,,,,,,,,,,,,,,,,,,0,5,5,5,0,19,19,19,,,,,,,,,,,,,,,,,,,1140.05989683402,p,1.3925235829956364,1141.5196272090252,,,,,,48,A,2025-01-10_09h11.07.282,EPIDM,2023.1.2,59.61516906382729,
7230.jpg,7570.jpg,5 Points,5 Points,353 Points,PS1_L6.csv,,,,,,,,,,,,,,,,,,,,,,,,,,,,,0,5,5,5,0,20,20,20,,,,,,,,,,,,,,,,,,,1145.7619592499977,p,1.594171833974542,1147.4293060000055,,,,,,48,A,2025-01-10_09h11.07.282,EPIDM,2023.1.2,59.61516906382729,
1022.jpg,6930.jpg,1 Point,1 Point,354 Points,PS1_L6.csv,,,,,,,,,,,,,,,,,,,,,,,,,,,,,0,5,5,5,0,21,21,21,,,,,,,,,,,,,,,,,,,1151.6847946250055,q,0.7748532500118017,1152.5314200840076,,,,,,48,A,2025-01-10_09h11.07.282,EPIDM,2023.1.2,59.61516906382729,
8340.jpg,7546.jpg,2 Points,2 Points,356 Points,PS1_L6.csv,,,,,,,,,,,,,,,,,,,,,,,,,,,,,0,5,5,5,0,22,22,22,,,,,,,,,,,,,,,,,,,1156.7723042500147,p,1.1121044589963276,1157.9614539169997,,,,,,48,A,2025-01-10_09h11.07.282,EPIDM,2023.1.2,59.61516906382729,
6243.jpg,2752.jpg,2 Points,2 Points,358 Points,PS1_L6.csv,,,,,,,,,,,,,,,,,,,,,,,,,,,,,0,5,5,5,0,23,23,23,,,,,,,,,,,,,,,,,,,1162.2042473340116,p,1.574732209002832,1163.866523042001,,,1174.348922834004,space,46.87774141700356,48,A,2025-01-10_09h11.07.282,EPIDM,2023.1.2,59.61516906382729,
7280.jpg,7160.jpg,0 Points,0 Points,358 Points,PS1_L7.csv,,,,,,,,,,,,,,,,,,,,,,,,,,,,,0,6,6,6,0,0,0,0,,,,,,,,,,,,,,,,,,,1224.532742084004,p,1.7576013749931008,1226.361356459005,,,,,,48,A,2025-01-10_09h11.07.282,EPIDM,2023.1.2,59.61516906382729,
2580.jpg,8300.jpg,3 Points,3 Points,361 Points,PS1_L7.csv,,,,,,,,,,,,,,,,,,,,,,,,,,,,,0,6,6,6,0,1,1,1,,,,,,,,,,,,,,,,,,,1230.5991837920155,p,1.5137657919840422,1232.1869276250072,3,1.379672750015743,,,,48,A,2025-01-10_09h11.07.282,EPIDM,2023.1.2,59.61516906382729,
5972.jpg,6838.jpg,5 Points,5 Points,366 Points,PS1_L7.csv,,,,,,,,,,,,,,,,,,,,,,,,,,,,,0,6,6,6,0,2,2,2,,,,,,,,,,,,,,,,,,,1237.879177499999,q,1.5070508749922737,1239.4539325840014,,,,,,48,A,2025-01-10_09h11.07.282,EPIDM,2023.1.2,59.61516906382729,
5621.jpg,5534.jpg,3 Points,3 Points,369 Points,PS1_L7.csv,,,,,,,,,,,,,,,,,,,,,,,,,,,,,0,6,6,6,0,3,3,3,,,,,,,,,,,,,,,,,,,1243.6900836670247,q,1.4071130419906694,1245.1725115000154,,,,,,48,A,2025-01-10_09h11.07.282,EPIDM,2023.1.2,59.61516906382729,
8480.jpg,6410.jpg,1 Point,1 Point,370 Points,PS1_L7.csv,,,,,,,,,,,,,,,,,,,,,,,,,,,,,0,6,6,6,0,4,4,4,,,,,,,,,,,,,,,,,,,1249.416354917019,p,1.480470290989615,1250.9612670420029,,,,,,48,A,2025-01-10_09h11.07.282,EPIDM,2023.1.2,59.61516906382729,
2702.jpg,1590.jpg,5 Points,5 Points,375 Points,PS1_L7.csv,,,,,,,,,,,,,,,,,,,,,,,,,,,,,0,6,6,6,0,5,5,5,,,,,,,,,,,,,,,,,,,1255.2093510840205,q,1.423931333993096,1256.715420624998,,,,,,48,A,2025-01-10_09h11.07.282,EPIDM,2023.1.2,59.61516906382729,
1275.jpg,3150.jpg,1 Point,1 Point,376 Points,PS1_L7.csv,,,,,,,,,,,,,,,,,,,,,,,,,,,,,0,6,6,6,0,6,6,6,,,,,,,,,,,,,,,,,,,1260.9504287090094,q,1.2828019589942414,1262.3027894170082,,,,,,48,A,2025-01-10_09h11.07.282,EPIDM,2023.1.2,59.61516906382729,
1910.jpg,2575.jpg,2 Points,2 Points,378 Points,PS1_L7.csv,,,,,,,,,,,,,,,,,,,,,,,,,,,,,0,6,6,6,0,7,7,7,,,,,,,,,,,,,,,,,,,1266.5416101670125,q,1.0207714170101099,1267.617414834007,,,,,,48,A,2025-01-10_09h11.07.282,EPIDM,2023.1.2,59.61516906382729,
2518.jpg,2381.jpg,1 Point,1 Point,382 Points,PS1_L7.csv,,,,,,,,,,,,,,,,,,,,,,,,,,,,,0,6,6,6,0,8,8,8,,,,,,,,,,,,,,,,,,,1271.871355875017,p,0.8972542909905314,1272.8247981670138,,,,,,48,A,2025-01-10_09h11.07.282,EPIDM,2023.1.2,59.61516906382729,
6250.1.jpg,3301.jpg,0 Points,0 Points,382 Points,PS1_L7.csv,,,,,,,,,,,,,,,,,,,,,,,,,,,,,0,6,6,6,0,9,9,9,,,,,,,,,,,,,,,,,,,1277.0753068340127,p,1.061546749988338,1278.2035957089975,,,,,,48,A,2025-01-10_09h11.07.282,EPIDM,2023.1.2,59.61516906382729,
7234.jpg,5533.jpg,3 Points,3 Points,385 Points,PS1_L7.csv,,,,,,,,,,,,,,,,,,,,,,,,,,,,,0,6,6,6,0,10,10,10,,,,,,,,,,,,,,,,,,,1282.448053,p,1.7204367079830263,1284.2363628340245,,,,,,48,A,2025-01-10_09h11.07.282,EPIDM,2023.1.2,59.61516906382729,
9920.jpg,3068.jpg,5 Points,5 Points,390 Points,PS1_L7.csv,,,,,,,,,,,,,,,,,,,,,,,,,,,,,0,6,6,6,0,11,11,11,,,,,,,,,,,,,,,,,,,1288.4810705840064,p,1.4875922909996007,1290.0305340000195,,,,,,48,A,2025-01-10_09h11.07.282,EPIDM,2023.1.2,59.61516906382729,
3022.jpg,2352.2.jpg,0 Points,0 Points,390 Points,PS1_L7.csv,,,,,,,,,,,,,,,,,,,,,,,,,,,,,0,6,6,6,0,12,12,12,,,,,,,,,,,,,,,,,,,1294.2785171249998,p,1.8897417080006562,1296.238863000006,,,,,,48,A,2025-01-10_09h11.07.282,EPIDM,2023.1.2,59.61516906382729,
8250.jpg,1313.jpg,4 Points,4 Points,394 Points,PS1_L7.csv,,,,,,,,,,,,,,,,,,,,,,,,,,,,,0,6,6,6,0,13,13,13,,,,,,,,,,,,,,,,,,,1300.481210292026,q,1.822786917007761,1302.379681542021,4,1.371399958996335,,,,48,A,2025-01-10_09h11.07.282,EPIDM,2023.1.2,59.61516906382729,
2690.jpg,9360.jpg,1 Point,1 Point,395 Points,PS1_L7.csv,,,,,,,,,,,,,,,,,,,,,,,,,,,,,0,6,6,6,0,14,14,14,,,,,,,,,,,,,,,,,,,1308.0704417920206,q,1.4570966669998597,1309.6023752500187,,,,,,48,A,2025-01-10_09h11.07.282,EPIDM,2023.1.2,59.61516906382729,
9570.jpg,6610.jpg,0 Points,0 Points,395 Points,PS1_L7.csv,,,,,,,,,,,,,,,,,,,,,,,,,,,,,0,6,6,6,0,15,15,15,,,,,,,,,,,,,,,,,,,1313.8402254590183,q,1.280060749995755,1315.1926181669987,,,,,,48,A,2025-01-10_09h11.07.282,EPIDM,2023.1.2,59.61516906382729,
3110.jpg,9000.jpg,4 Points,4 Points,399 Points,PS1_L7.csv,,,,,,,,,,,,,,,,,,,,,,,,,,,,,0,6,6,6,0,16,16,16,,,,,,,,,,,,,,,,,,,1319.4371788749995,p,2.0101588329998776,1321.5087072500028,,,,,,48,A,2025-01-10_09h11.07.282,EPIDM,2023.1.2,59.61516906382729,
8465.jpg,8400.jpg,1 Point,1 Point,400 Points,PS1_L7.csv,,,,,,,,,,,,,,,,,,,,,,,,,,,,,0,6,6,6,0,17,17,17,,,,,,,,,,,,,,,,,,,1325.760238042014,p,1.9274201249936596,1327.7650220840005,,,,,,48,A,2025-01-10_09h11.07.282,EPIDM,2023.1.2,59.61516906382729,
1540.jpg,2600.jpg,1 Point,1 Point,401 Points,PS1_L7.csv,,,,,,,,,,,,,,,,,,,,,,,,,,,,,0,6,6,6,0,18,18,18,,,,,,,,,,,,,,,,,,,1332.0107614590088,q,1.1651340419775806,1333.2379907920258,,,,,,48,A,2025-01-10_09h11.07.282,EPIDM,2023.1.2,59.61516906382729,
2276.jpg,6540.jpg,3 Points,3 Points,404 Points,PS1_L7.csv,,,,,,,,,,,,,,,,,,,,,,,,,,,,,0,6,6,6,0,19,19,19,,,,,,,,,,,,,,,,,,,1337.4833099590032,q,1.4676821250177454,1339.0199996670126,,,,,,48,A,2025-01-10_09h11.07.282,EPIDM,2023.1.2,59.61516906382729,
5030.jpg,1670.jpg,3 Points,3 Points,407 Points,PS1_L7.csv,,,,,,,,,,,,,,,,,,,,,,,,,,,,,0,6,6,6,0,20,20,20,,,,,,,,,,,,,,,,,,,1343.2634474170045,q,0.942568291007774,1344.2691439590126,,,,,,48,A,2025-01-10_09h11.07.282,EPIDM,2023.1.2,59.61516906382729,
9040.jpg,1120.jpg,3 Points,3 Points,410 Points,PS1_L7.csv,,,,,,,,,,,,,,,,,,,,,,,,,,,,,0,6,6,6,0,21,21,21,,,,,,,,,,,,,,,,,,,1348.5296772090078,q,1.2612937079975381,1349.8618178340257,,,,,,48,A,2025-01-10_09h11.07.282,EPIDM,2023.1.2,59.61516906382729,
3220.jpg,3063.jpg,5 Points,5 Points,415 Points,PS1_L7.csv,,,,,,,,,,,,,,,,,,,,,,,,,,,,,0,6,6,6,0,22,22,22,,,,,,,,,,,,,,,,,,,1354.119339500001,p,1.7030785839888267,1355.8765481250011,,,,,,48,A,2025-01-10_09h11.07.282,EPIDM,2023.1.2,59.61516906382729,
8117.jpg,2880.jpg,5 Points,5 Points,420 Points,PS1_L7.csv,,,,,,,,,,,,,,,,,,,,,,,,,,,,,0,6,6,6,0,23,23,23,,,,,,,,,,,,,,,,,,,1360.132426791999,q,1.7867033329966944,1361.9840385840216,,,1372.4578417500015,space,6.243628291005734,48,A,2025-01-10_09h11.07.282,EPIDM,2023.1.2,59.61516906382729,
4274.jpg,8160.jpg,2 Points,2 Points,422 Points,PS1_L8.csv,,,,,,,,,,,,,,,,,,,,,,,,,,,,,0,7,7,7,0,0,0,0,,,,,,,,,,,,,,,,,,,1382.0159590840049,p,1.7494812920049299,1383.8426942500228,,,,,,48,A,2025-01-10_09h11.07.282,EPIDM,2023.1.2,59.61516906382729,
6314.jpg,O022.jpg,2 Points,2 Points,424 Points,PS1_L8.csv,,,,,,,,,,,,,,,,,,,,,,,,,,,,,0,7,7,7,0,1,1,1,,,,,,,,,,,,,,,,,,,1388.080558250018,p,1.3164589169900864,1389.5064039170102,2,1.3263755000079982,,,,48,A,2025-01-10_09h11.07.282,EPIDM,2023.1.2,59.61516906382729,
1560.jpg,8185.jpg,0 Points,0 Points,424 Points,PS1_L8.csv,,,,,,,,,,,,,,,,,,,,,,,,,,,,,0,7,7,7,0,2,2,2,,,,,,,,,,,,,,,,,,,1395.148835,p,1.1925232500070706,1396.4140707920014,,,,,,48,A,2025-01-10_09h11.07.282,EPIDM,2023.1.2,59.61516906382729,
2850.jpg,4532.jpg,3 Points,3 Points,427 Points,PS1_L8.csv,,,,,,,,,,,,,,,,,,,,,,,,,,,,,0,7,7,7,0,3,3,3,,,,,,,,,,,,,,,,,,,1400.6625126670115,q,1.454637457994977,1402.188297167013,,,,,,48,A,2025-01-10_09h11.07.282,EPIDM,2023.1.2,59.61516906382729,
1390.jpg,9421.jpg,2 Points,2 Points,429 Points,PS1_L8.csv,,,,,,,,,,,,,,,,,,,,,,,,,,,,,0,7,7,7,0,4,4,4,,,,,,,,,,,,,,,,,,,1406.4436368750175,p,1.1535428340139333,1407.6713540840137,,,,,,48,A,2025-01-10_09h11.07.282,EPIDM,2023.1.2,59.61516906382729,
9800.jpg,9433.jpg,1 Point,1 Point,430 Points,PS1_L8.csv,,,,,,,,,,,,,,,,,,,,,,,,,,,,,0,7,7,7,0,5,5,5,,,,,,,,,,,,,,,,,,,1411.9271098750178,p,1.581642166012898,1413.5791022500198,,,,,,48,A,2025-01-10_09h11.07.282,EPIDM,2023.1.2,59.61516906382729,
8161.jpg,1900.jpg,4 Points,4 Points,434 Points,PS1_L8.csv,,,,,,,,,,,,,,,,,,,,,,,,,,,,,0,7,7,7,0,6,6,6,,,,,,,,,,,,,,,,,,,1417.8213195000135,p,1.9200431249919347,1419.808101750008,,,,,,48,A,2025-01-10_09h11.07.282,EPIDM,2023.1.2,59.61516906382729,
1112.jpg,6230.jpg,3 Points,3 Points,437 Points,PS1_L8.csv,,,,,,,,,,,,,,,,,,,,,,,,,,,,,0,7,7,7,0,7,7,7,,,,,,,,,,,,,,,,,,,1424.0551027920155,p,1.7898082909814548,1425.9122164170258,,,,,,48,A,2025-01-10_09h11.07.282,EPIDM,2023.1.2,59.61516906382729,
1111.jpg,1040.jpg,0 Points,0 Points,437 Points,PS1_L8.csv,,,,,,,,,,,,,,,,,,,,,,,,,,,,,0,7,7,7,0,8,8,8,,,,,,,,,,,,,,,,,,,1430.1477864170156,q,2.0407602910127025,1432.2549841670261,,,,,,48,A,2025-01-10_09h11.07.282,EPIDM,2023.1.2,59.61516906382729,
5622.jpg,9156.jpg,4 Points,4 Points,441 Points,PS1_L8.csv,,,,,,,,,,,,,,,,,,,,,,,,,,,,,0,7,7,7,0,9,9,9,,,,,,,,,,,,,,,,,,,1436.5000853340025,q,1.2090559999924153,1437.796665709,,,,,,48,A,2025-01-10_09h11.07.282,EPIDM,2023.1.2,59.61516906382729,
2681.jpg,7100.jpg,3 Points,3 Points,444 Points,PS1_L8.csv,,,,,,,,,,,,,,,,,,,,,,,,,,,,,0,7,7,7,0,10,10,10,,,,,,,,,,,,,,,,,,,1442.0366814169975,p,0.8559382499952335,1442.968034584017,,,,,,48,A,2025-01-10_09h11.07.282,EPIDM,2023.1.2,59.61516906382729,
6821.jpg,9622.jpg,2 Points,2 Points,446 Points,PS1_L8.csv,,,,,,,,,,,,,,,,,,,,,,,,,,,,,0,7,7,7,0,11,11,11,,,,,,,,,,,,,,,,,,,1447.2002812090213,q,1.7477324579958804,1449.0146581669978,,,,,,48,A,2025-01-10_09h11.07.282,EPIDM,2023.1.2,59.61516906382729,
9490.jpg,9210.jpg,1 Point,1 Point,447 Points,PS1_L8.csv,,,,,,,,,,,,,,,,,,,,,,,,,,,,,0,7,7,7,0,12,12,12,,,,,,,,,,,,,,,,,,,1453.2699373340001,p,1.1102707910176832,1454.432006750023,,,,,,48,A,2025-01-10_09h11.07.282,EPIDM,2023.1.2,59.61516906382729,
4605.jpg,1510.jpg,4 Points,4 Points,451 Points,PS1_L8.csv,,,,,,,,,,,,,,,,,,,,,,,,,,,,,0,7,7,7,0,13,13,13,,,,,,,,,,,,,,,,,,,1458.6860132500005,q,1.2538903749955352,1460.0156383750145,4,1.4996308750123717,,,,48,A,2025-01-10_09h11.07.282,EPIDM,2023.1.2,59.61516906382729,
2240.jpg,5010.jpg,5 Points,5 Points,456 Points,PS1_L8.csv,,,,,,,,,,,,,,,,,,,,,,,,,,,,,0,7,7,7,0,14,14,14,,,,,,,,,,,,,,,,,,,1465.8212948750006,p,1.4785464580054395,1467.3784525000083,,,,,,48,A,2025-01-10_09h11.07.282,EPIDM,2023.1.2,59.61516906382729,
3102.jpg,F032.jpg,1 Point,1 Point,457 Points,PS1_L8.csv,,,,,,,,,,,,,,,,,,,,,,,,,,,,,0,7,7,7,0,15,15,15,,,,,,,,,,,,,,,,,,,1471.6262616250024,p,1.3049246250011493,1473.0431280420162,,,,,,48,A,2025-01-10_09h11.07.282,EPIDM,2023.1.2,59.61516906382729,
4100.jpg,6570.2.jpg,3 Points,3 Points,460 Points,PS1_L8.csv,,,,,,,,,,,,,,,,,,,,,,,,,,,,,0,7,7,7,0,16,16,16,,,,,,,,,,,,,,,,,,,1477.2467204999994,q,1.301133041997673,1478.6520496250014,,,,,,48,A,2025-01-10_09h11.07.282,EPIDM,2023.1.2,59.61516906382729,
2650.jpg,4531.jpg,5 Points,5 Points,465 Points,PS1_L8.csv,,,,,,,,,,,,,,,,,,,,,,,,,,,,,0,7,7,7,0,17,17,17,,,,,,,,,,,,,,,,,,,1482.860322292021,q,1.262116416997742,1484.2020448340045,,,,,,48,A,2025-01-10_09h11.07.282,EPIDM,2023.1.2,59.61516906382729,
9320.jpg,9007.jpg,0 Points,0 Points,465 Points,PS1_L8.csv,,,,,,,,,,,,,,,,,,,,,,,,,,,,,0,7,7,7,0,18,18,18,,,,,,,,,,,,,,,,,,,1488.4372761670093,q,1.7497210830042604,1490.2600228750089,,,,,,48,A,2025-01-10_09h11.07.282,EPIDM,2023.1.2,59.61516906382729,
8460.jpg,8330.jpg,0 Points,0 Points,465 Points,PS1_L8.csv,,,,,,,,,,,,,,,,,,,,,,,,,,,,,0,7,7,7,0,19,19,19,,,,,,,,,,,,,,,,,,,1494.4921952500008,p,1.2870538749848492,1495.841806417011,,,,,,48,A,2025-01-10_09h11.07.282,EPIDM,2023.1.2,59.61516906382729,
2570.jpg,5500.jpg,3 Points,3 Points,468 Points,PS1_L8.csv,,,,,,,,,,,,,,,,,,,,,,,,,,,,,0,7,7,7,0,20,20,20,,,,,,,,,,,,,,,,,,,1500.1082294590014,q,1.1020680829824414,1501.2877254170016,,,,,,48,A,2025-01-10_09h11.07.282,EPIDM,2023.1.2,59.61516906382729,
6190.jpg,3120.jpg,5 Points,5 Points,473 Points,PS1_L8.csv,,,,,,,,,,,,,,,,,,,,,,,,,,,,,0,7,7,7,0,21,21,21,,,,,,,,,,,,,,,,,,,1505.5259685420024,q,1.316691832995275,1506.92476808402,,,,,,48,A,2025-01-10_09h11.07.282,EPIDM,2023.1.2,59.61516906382729,
2200.jpg,4598.jpg,1 Point,1 Point,474 Points,PS1_L8.csv,,,,,,,,,,,,,,,,,,,,,,,,,,,,,0,7,7,7,0,22,22,22,,,,,,,,,,,,,,,,,,,1511.1744229170145,q,1.7643012079934124,1513.0181070420076,,,,,,48,A,2025-01-10_09h11.07.282,EPIDM,2023.1.2,59.61516906382729,
1303.jpg,2000.jpg,0 Points,0 Points,474 Points,PS1_L8.csv,,,,,,,,,,,,,,,,,,,,,,,,,,,,,0,7,7,7,0,23,23,23,,,,,,,,,,,,,,,,,,,1517.251700334018,p,1.2864967089844868,1518.6105121250148,,,1529.0745922090136,space,6.9992617499956395,48,A,2025-01-10_09h11.07.282,EPIDM,2023.1.2,59.61516906382729,
9010.jpg,9253.jpg,0 Points,0 Points,474 Points,PS1_L9.csv,,,,,,,,,,,,,,,,,,,,,,,,,,,,,0,8,8,8,0,0,0,0,,,,,,,,,,,,,,,,,,,1539.3749581250013,q,1.7799197080021258,1541.2328633750149,,,,,,48,A,2025-01-10_09h11.07.282,EPIDM,2023.1.2,59.61516906382729,
1302.jpg,2700.jpg,3 Points,3 Points,477 Points,PS1_L9.csv,,,,,,,,,,,,,,,,,,,,,,,,,,,,,0,8,8,8,0,1,1,1,,,,,,,,,,,,,,,,,,,1545.4699606670183,p,1.2849632499855943,1546.8348304590036,3,1.3937445420015138,,,,48,A,2025-01-10_09h11.07.282,EPIDM,2023.1.2,59.61516906382729,
2030.jpg,2495.jpg,0 Points,0 Points,477 Points,PS1_L9.csv,,,,,,,,,,,,,,,,,,,,,,,,,,,,,0,8,8,8,0,2,2,2,,,,,,,,,,,,,,,,,,,1552.537695542007,q,1.6555850830045529,1554.2739052920078,,,,,,48,A,2025-01-10_09h11.07.282,EPIDM,2023.1.2,59.61516906382729,
2110.jpg,7260.jpg,5 Points,5 Points,482 Points,PS1_L9.csv,,,,,,,,,,,,,,,,,,,,,,,,,,,,,0,8,8,8,0,3,3,3,,,,,,,,,,,,,,,,,,,1558.5080657920043,p,0.6520992089936044,1559.2407795840118,,,,,,48,A,2025-01-10_09h11.07.282,EPIDM,2023.1.2,59.61516906382729,
2053.jpg,9415.jpg,4 Points,4 Points,486 Points,PS1_L9.csv,,,,,,,,,,,,,,,,,,,,,,,,,,,,,0,8,8,8,0,4,4,4,,,,,,,,,,,,,,,,,,,1563.471541167004,p,1.4895534999959636,1565.0254347920127,,,,,,48,A,2025-01-10_09h11.07.282,EPIDM,2023.1.2,59.61516906382729,
6211.jpg,9611.jpg,3 Points,3 Points,489 Points,PS1_L9.csv,,,,,,,,,,,,,,,,,,,,,,,,,,,,,0,8,8,8,0,5,5,5,,,,,,,,,,,,,,,,,,,1569.2635853750107,q,1.9692686659982428,1571.2865835420089,,,,,,48,A,2025-01-10_09h11.07.282,EPIDM,2023.1.2,59.61516906382729,
8350.jpg,7190.jpg,5 Points,5 Points,494 Points,PS1_L9.csv,,,,,,,,,,,,,,,,,,,,,,,,,,,,,0,8,8,8,0,6,6,6,,,,,,,,,,,,,,,,,,,1575.543625750026,p,1.137216625007568,1576.7482822920138,,,,,,48,A,2025-01-10_09h11.07.282,EPIDM,2023.1.2,59.61516906382729,
9340.jpg,6910.jpg,0 Points,0 Points,494 Points,PS1_L9.csv,,,,,,,,,,,,,,,,,,,,,,,,,,,,,0,8,8,8,0,7,7,7,,,,,,,,,,,,,,,,,,,1580.9872835840215,q,1.214288667018991,1582.275271792023,,,,,,48,A,2025-01-10_09h11.07.282,EPIDM,2023.1.2,59.61516906382729,
4533.jpg,2385.jpg,3 Points,3 Points,497 Points,PS1_L9.csv,,,,,,,,,,,,,,,,,,,,,,,,,,,,,0,8,8,8,0,8,8,8,,,,,,,,,,,,,,,,,,,1586.509661417018,p,1.4603965829883236,1588.0456829169998,,,,,,48,A,2025-01-10_09h11.07.282,EPIDM,2023.1.2,59.61516906382729,
5940.jpg,9411.jpg,0 Points,0 Points,497 Points,PS1_L9.csv,,,,,,,,,,,,,,,,,,,,,,,,,,,,,0,8,8,8,0,9,9,9,,,,,,,,,,,,,,,,,,,1592.2835139170056,q,1.252969708002638,1593.6048855000117,,,,,,48,A,2025-01-10_09h11.07.282,EPIDM,2023.1.2,59.61516906382729,
2220.jpg,2010.jpg,5 Points,5 Points,502 Points,PS1_L9.csv,,,,,,,,,,,,,,,,,,,,,,,,,,,,,0,8,8,8,0,10,10,10,,,,,,,,,,,,,,,,,,,1597.8559160840232,p,1.2715479169855826,1599.2054709590157,,,,,,48,A,2025-01-10_09h11.07.282,EPIDM,2023.1.2,59.61516906382729,
9500.jpg,6360.jpg,1 Point,1 Point,503 Points,PS1_L9.csv,,,,,,,,,,,,,,,,,,,,,,,,,,,,,0,8,8,8,0,11,11,11,,,,,,,,,,,,,,,,,,,1603.4371028340247,q,1.722279959009029,1605.2360125420091,,,,,,48,A,2025-01-10_09h11.07.282,EPIDM,2023.1.2,59.61516906382729,
2092.jpg,2210.jpg,0 Points,0 Points,503 Points,PS1_L9.csv,,,,,,,,,,,,,,,,,,,,,,,,,,,,,0,8,8,8,0,12,12,12,,,,,,,,,,,,,,,,,,,1609.4699764590187,p,1.8012759580160491,1611.3412307500257,,,,,,48,A,2025-01-10_09h11.07.282,EPIDM,2023.1.2,59.61516906382729,
9530.jpg,9220.jpg,1 Point,1 Point,504 Points,PS1_L9.csv,,,,,,,,,,,,,,,,,,,,,,,,,,,,,0,8,8,8,0,13,13,13,,,,,,,,,,,,,,,,,,,1615.5930690000241,q,1.3337213750055525,1616.993641417008,1,1.45979058399098,,,,48,A,2025-01-10_09h11.07.282,EPIDM,2023.1.2,59.61516906382729,
9254.jpg,9290.jpg,2 Points,2 Points,506 Points,PS1_L9.csv,,,,,,,,,,,,,,,,,,,,,,,,,,,,,0,8,8,8,0,14,14,14,,,,,,,,,,,,,,,,,,,1622.778588917019,p,1.8613703750015702,1624.6922526250128,,,,,,48,A,2025-01-10_09h11.07.282,EPIDM,2023.1.2,59.61516906382729,
4608.jpg,8320.jpg,1 Point,1 Point,507 Points,PS1_L9.csv,,,,,,,,,,,,,,,,,,,,,,,,,,,,,0,8,8,8,0,15,15,15,,,,,,,,,,,,,,,,,,,1628.939300625003,q,1.6595062910055276,1630.6685480840097,,,,,,48,A,2025-01-10_09h11.07.282,EPIDM,2023.1.2,59.61516906382729,
7237.jpg,8510.jpg,4 Points,4 Points,511 Points,PS1_L9.csv,,,,,,,,,,,,,,,,,,,,,,,,,,,,,0,8,8,8,0,16,16,16,,,,,,,,,,,,,,,,,,,1634.9188297920045,q,0.9838826659834012,1635.9731462089985,,,,,,48,A,2025-01-10_09h11.07.282,EPIDM,2023.1.2,59.61516906382729,
9417.jpg,6530.jpg,1 Point,1 Point,512 Points,PS1_L9.csv,,,,,,,,,,,,,,,,,,,,,,,,,,,,,0,8,8,8,0,17,17,17,,,,,,,,,,,,,,,,,,,1640.2119831670134,q,1.4274002499878407,1641.7202532500087,,,,,,48,A,2025-01-10_09h11.07.282,EPIDM,2023.1.2,59.61516906382729,
6831.jpg,2141.jpg,5 Points,5 Points,517 Points,PS1_L9.csv,,,,,,,,,,,,,,,,,,,,,,,,,,,,,0,8,8,8,0,18,18,18,,,,,,,,,,,,,,,,,,,1645.966316584003,p,1.072450084000593,1647.1182263750234,,,,,,48,A,2025-01-10_09h11.07.282,EPIDM,2023.1.2,59.61516906382729,
4689.jpg,7009.jpg,5 Points,5 Points,522 Points,PS1_L9.csv,,,,,,,,,,,,,,,,,,,,,,,,,,,,,0,8,8,8,0,19,19,19,,,,,,,,,,,,,,,,,,,1651.3653705420147,p,1.0028556670004036,1652.4460372090107,,,,,,48,A,2025-01-10_09h11.07.282,EPIDM,2023.1.2,59.61516906382729,
2751.jpg,6313.jpg,3 Points,3 Points,525 Points,PS1_L9.csv,,,,,,,,,,,,,,,,,,,,,,,,,,,,,0,8,8,8,0,20,20,20,,,,,,,,,,,,,,,,,,,1656.684352250013,q,1.1221379589987919,1657.8818325840111,,,,,,48,A,2025-01-10_09h11.07.282,EPIDM,2023.1.2,59.61516906382729,
4621.jpg,3550.jpg,2 Points,2 Points,527 Points,PS1_L9.csv,,,,,,,,,,,,,,,,,,,,,,,,,,,,,0,8,8,8,0,21,21,21,,,,,,,,,,,,,,,,,,,1662.1246110840002,q,1.409182208997663,1663.6015238340187,,,,,,48,A,2025-01-10_09h11.07.282,EPIDM,2023.1.2,59.61516906382729,
8220.jpg,2410.jpg,4 Points,4 Points,531 Points,PS1_L9.csv,,,,,,,,,,,,,,,,,,,,,,,,,,,,,0,8,8,8,0,22,22,22,,,,,,,,,,,,,,,,,,,1667.8494530840253,p,1.036990209016949,1668.968888250005,,,,,,48,A,2025-01-10_09h11.07.282,EPIDM,2023.1.2,59.61516906382729,
1113.jpg,1240.jpg,3 Points,3 Points,534 Points,PS1_L9.csv,,,,,,,,,,,,,,,,,,,,,,,,,,,,,0,8,8,8,0,23,23,23,,,,,,,,,,,,,,,,,,,1673.2106090000016,p,1.3398577089828905,1674.6294258749986,,,1685.079091542022,space,5.79881325000315,48,A,2025-01-10_09h11.07.282,EPIDM,2023.1.2,59.61516906382729,
2750.jpg,9050.jpg,4 Points,4 Points,538 Points,PS1_L10.csv,,,,,,,,,,,,,,,,,,,,,,,,,,,,,0,9,9,9,0,0,0,0,,,,,,,,,,,,,,,,,,,1694.1810908339976,q,1.0240515419864096,1695.2725009999995,,,,,,48,A,2025-01-10_09h11.07.282,EPIDM,2023.1.2,59.61516906382729,
2312.jpg,2722.jpg,1 Points,1 Points,539 Points,PS1_L10.csv,,,,,,,,,,,,,,,,,,,,,,,,,,,,,0,9,9,9,0,1,1,1,,,,,,,,,,,,,,,,,,,1699.5175958750187,q,1.5588778329838533,1701.1474954590085,1,1.2277151659945957,,,,48,A,2025-01-10_09h11.07.282,EPIDM,2023.1.2,59.61516906382729,
8232.jpg,4279.jpg,5 Points,5 Points,544 Points,PS1_L10.csv,,,,,,,,,,,,,,,,,,,,,,,,,,,,,0,9,9,9,0,2,2,2,,,,,,,,,,,,,,,,,,,1706.6930016250117,p,0.9032330829941202,1707.6788451670145,,,,,,48,A,2025-01-10_09h11.07.282,EPIDM,2023.1.2,59.61516906382729,
6000.jpg,6836.jpg,4 Points,4 Points,548 Points,PS1_L10.csv,,,,,,,,,,,,,,,,,,,,,,,,,,,,,0,9,9,9,0,3,3,3,,,,,,,,,,,,,,,,,,,1711.9135430419992,p,0.762977292004507,1712.7558320000244,,,,,,48,A,2025-01-10_09h11.07.282,EPIDM,2023.1.2,59.61516906382729,
4536.jpg,2280.jpg,4 Points,4 Points,552 Points,PS1_L10.csv,,,,,,,,,,,,,,,,,,,,,,,,,,,,,0,9,9,9,0,4,4,4,,,,,,,,,,,,,,,,,,,1716.9930680000107,p,1.2914511249982752,1718.3545896249998,,,,,,48,A,2025-01-10_09h11.07.282,EPIDM,2023.1.2,59.61516906382729,
6241.jpg,9561.jpg,3 Points,3 Points,555 Points,PS1_L10.csv,,,,,,,,,,,,,,,,,,,,,,,,,,,,,0,9,9,9,0,5,5,5,,,,,,,,,,,,,,,,,,,1722.5932611250028,p,1.1468524170049932,1723.8097485420003,,,,,,48,A,2025-01-10_09h11.07.282,EPIDM,2023.1.2,59.61516906382729,
1942.jpg,2890.jpg,1 Points,1 Points,556 Points,PS1_L10.csv,,,,,,,,,,,,,,,,,,,,,,,,,,,,,0,9,9,9,0,6,6,6,,,,,,,,,,,,,,,,,,,1728.0527232919994,p,0.9914092499820981,1729.1194202500046,,,,,,48,A,2025-01-10_09h11.07.282,EPIDM,2023.1.2,59.61516906382729,
6020.jpg,6300.jpg,2 Points,2 Points,558 Points,PS1_L10.csv,,,,,,,,,,,,,,,,,,,,,,,,,,,,,0,9,9,9,0,7,7,7,,,,,,,,,,,,,,,,,,,1733.3531476670178,q,1.3156787089828867,1734.739851625025,,,,,,48,A,2025-01-10_09h11.07.282,EPIDM,2023.1.2,59.61516906382729,
7170.jpg,2170.jpg,2 Points,2 Points,560 Points,PS1_L10.csv,,,,,,,,,,,,,,,,,,,,,,,,,,,,,0,9,9,9,0,8,8,8,,,,,,,,,,,,,,,,,,,1738.9819981670007,p,1.053947833017446,1740.0997027500125,,,,,,48,A,2025-01-10_09h11.07.282,EPIDM,2023.1.2,59.61516906382729,
5510.jpg,2514.jpg,5 Points,5 Points,565 Points,PS1_L10.csv,,,,,,,,,,,,,,,,,,,,,,,,,,,,,0,9,9,9,0,9,9,9,,,,,,,,,,,,,,,,,,,1744.3513310000126,p,0.7478431659983471,1745.169165584026,,,,,,48,A,2025-01-10_09h11.07.282,EPIDM,2023.1.2,59.61516906382729,
6840.jpg,3080.jpg,1 Points,1 Points,566 Points,PS1_L10.csv,,,,,,,,,,,,,,,,,,,,,,,,,,,,,0,9,9,9,0,10,10,10,,,,,,,,,,,,,,,,,,,1749.4084303750133,q,1.3245398750004824,1750.7909031670133,,,,,,48,A,2025-01-10_09h11.07.282,EPIDM,2023.1.2,59.61516906382729,
7195.jpg,2487.jpg,2 Points,2 Points,568 Points,PS1_L10.csv,,,,,,,,,,,,,,,,,,,,,,,,,,,,,0,9,9,9,0,11,11,11,,,,,,,,,,,,,,,,,,,1755.0412424590031,q,1.0253937089873943,1756.1332820000243,,,,,,48,A,2025-01-10_09h11.07.282,EPIDM,2023.1.2,59.61516906382729,
5971.jpg,9912.jpg,5 Points,5 Points,573 Points,PS1_L10.csv,,,,,,,,,,,,,,,,,,,,,,,,,,,,,0,9,9,9,0,12,12,12,,,,,,,,,,,,,,,,,,,1760.3774235840247,q,1.0813242080039345,1761.5238075420202,,,,,,48,A,2025-01-10_09h11.07.282,EPIDM,2023.1.2,59.61516906382729,
2520.jpg,8503.jpg,2 Points,2 Points,575 Points,PS1_L10.csv,,,,,,,,,,,,,,,,,,,,,,,,,,,,,0,9,9,9,0,13,13,13,,,,,,,,,,,,,,,,,,,1765.7761134590255,p,1.0742045000079088,1766.9205171250214,2,1.3025974160118494,,,,48,A,2025-01-10_09h11.07.282,EPIDM,2023.1.2,59.61516906382729,
5480.jpg,8200.jpg,4 Points,4 Points,579 Points,PS1_L10.csv,,,,,,,,,,,,,,,,,,,,,,,,,,,,,0,9,9,9,0,14,14,14,,,,,,,,,,,,,,,,,,,1772.5385408750153,q,0.9598926669859793,1773.5806985420058,,,,,,48,A,2025-01-10_09h11.07.282,EPIDM,2023.1.2,59.61516906382729,
6370.jpg,1270.jpg,4 Points,4 Points,583 Points,PS1_L10.csv,,,,,,,,,,,,,,,,,,,,,,,,,,,,,0,9,9,9,0,15,15,15,,,,,,,,,,,,,,,,,,,1777.8167073340155,q,0.7942588340083603,1778.6915599589993,,,,,,48,A,2025-01-10_09h11.07.282,EPIDM,2023.1.2,59.61516906382729,
5130.jpg,1810.jpg,3 Points,3 Points,586 Points,PS1_L10.csv,,,,,,,,,,,,,,,,,,,,,,,,,,,,,0,9,9,9,0,16,16,16,,,,,,,,,,,,,,,,,,,1782.9279675840226,q,0.9465506249980535,1783.9566606669978,,,,,,48,A,2025-01-10_09h11.07.282,EPIDM,2023.1.2,59.61516906382729,
4250.jpg,7060.jpg,5 Points,5 Points,591 Points,PS1_L10.csv,,,,,,,,,,,,,,,,,,,,,,,,,,,,,0,9,9,9,0,17,17,17,,,,,,,,,,,,,,,,,,,1788.1849591670034,q,1.562904582999181,1789.83225675,,,,,,48,A,2025-01-10_09h11.07.282,EPIDM,2023.1.2,59.61516906382729,
9373.jpg,9410.jpg,0 Points,0 Points,591 Points,PS1_L10.csv,,,,,,,,,,,,,,,,,,,,,,,,,,,,,0,9,9,9,0,18,18,18,,,,,,,,,,,,,,,,,,,1794.0658550000226,p,0.8089978329953738,1794.9552101670124,,,,,,48,A,2025-01-10_09h11.07.282,EPIDM,2023.1.2,59.61516906382729,
2221.jpg,2270.jpg,2 Points,2 Points,593 Points,PS1_L10.csv,,,,,,,,,,,,,,,,,,,,,,,,,,,,,0,9,9,9,0,19,19,19,,,,,,,,,,,,,,,,,,,1799.1948362920084,p,0.8080937499762513,1800.0789620420255,,,,,,48,A,2025-01-10_09h11.07.282,EPIDM,2023.1.2,59.61516906382729,
1650.jpg,2130.jpg,1 Points,1 Points,594 Points,PS1_L10.csv,,,,,,,,,,,,,,,,,,,,,,,,,,,,,0,9,9,9,0,20,20,20,,,,,,,,,,,,,,,,,,,1804.3175149590243,q,1.2365723749971949,1805.6242958750227,,,,,,48,A,2025-01-10_09h11.07.282,EPIDM,2023.1.2,59.61516906382729,
1280.jpg,9402.jpg,2 Points,2 Points,596 Points,PS1_L10.csv,,,,,,,,,,,,,,,,,,,,,,,,,,,,,0,9,9,9,0,21,21,21,,,,,,,,,,,,,,,,,,,1809.8735186250124,p,0.8085147080128081,1810.7565632089972,,,,,,48,A,2025-01-10_09h11.07.282,EPIDM,2023.1.2,59.61516906382729,
2214.jpg,4500.jpg,3 Points,3 Points,599 Points,PS1_L10.csv,,,,,,,,,,,,,,,,,,,,,,,,,,,,,0,9,9,9,0,22,22,22,,,,,,,,,,,,,,,,,,,1815.0064687920094,q,0.8832968339847866,1815.970684,,,,,,48,A,2025-01-10_09h11.07.282,EPIDM,2023.1.2,59.61516906382729,
7284.jpg,8021.jpg,4 Points,4 Points,603 Points,PS1_L10.csv,,,,,,,,,,,,,,,,,,,,,,,,,,,,,0,9,9,9,0,23,23,23,,,,,,,,,,,,,,,,,,,1820.2102587500121,p,0.8550847909937147,1821.145403542003,,,1831.6360532500257,space,44.596939000010025,48,A,2025-01-10_09h11.07.282,EPIDM,2023.1.2,59.61516906382729,
