L_Scene,R_Scene,Points_L,Points_R,PtTotal,blockFile,Instructions_Loop.thisRepN,Instructions_Loop.thisTrialN,Instructions_Loop.thisN,Instructions_Loop.thisIndex,Redo_Instructions_Loop.thisRepN,Redo_Instructions_Loop.thisTrialN,Redo_Instructions_Loop.thisN,Redo_Instructions_Loop.thisIndex,Practice_Encoding_Loop.thisRepN,Practice_Encoding_Loop.thisTrialN,Practice_Encoding_Loop.thisN,Practice_Encoding_Loop.thisIndex,Practice_Response_Fail_Loop.thisRepN,Practice_Response_Fail_Loop.thisTrialN,Practice_Response_Fail_Loop.thisN,Practice_Response_Fail_Loop.thisIndex,Practice_FB_Loop.thisRepN,Practice_FB_Loop.thisTrialN,Practice_FB_Loop.thisN,Practice_FB_Loop.thisIndex,Practice_Attention_Loop.thisRepN,Practice_Attention_Loop.thisTrialN,Practice_Attention_Loop.thisN,Practice_Attention_Loop.thisIndex,Practice_EncBrk_Loop.thisRepN,Practice_EncBrk_Loop.thisTrialN,Practice_EncBrk_Loop.thisN,Practice_EncBrk_Loop.thisIndex,Encoding_Loop.thisRepN,Encoding_Loop.thisTrialN,Encoding_Loop.thisN,Encoding_Loop.thisIndex,EncStim_Loop.thisRepN,EncStim_Loop.thisTrialN,EncStim_Loop.thisN,EncStim_Loop.thisIndex,Response_Fail_Loop.thisRepN,Response_Fail_Loop.thisTrialN,Response_Fail_Loop.thisN,Response_Fail_Loop.thisIndex,FB_Loop.thisRepN,FB_Loop.thisTrialN,FB_Loop.thisN,FB_Loop.thisIndex,Attention_Loop.thisRepN,Attention_Loop.thisTrialN,Attention_Loop.thisN,Attention_Loop.thisIndex,EncBrk_Loop.thisRepN,EncBrk_Loop.thisTrialN,EncBrk_Loop.thisN,EncBrk_Loop.thisIndex,Transition_Enc.keys,Transition_Enc.rt,Encoding_Resp.started,Encoding_Resp.stopped,Encoding_Resp.keys,Encoding_Resp.rt,R_Point_FB_Stim.started,Attn_resp.keys,Attn_resp.rt,Progress_Tracker.started,EncBrk_Resp.keys,EncBrk_Resp.rt,participant,Group,date,expName,psychopyVersion,frameRate,
,,,,,,,,,,,,,,,,,,,,,,,,,,,,,,,,,,,,,,,,,,,,,,,,,,,,,,,,,,space,3.11144641705323,,,,,,,,,,,270448,A,2024-07-25_11h48.32.854,EPIDM,2023.1.2,None,
A060.jpg,F041.jpg,5 Points,5 Points,5 Points,,,,,,,,,,0,0,0,0,,,,,,,,,,,,,,,,,,,,,,,,,,,,,,,,,,,,,,,,,,,211.96887879096903,215.67435983300675,None,,,,,,,,270448,A,2024-07-25_11h48.32.854,EPIDM,2023.1.2,None,
O161.jpg,1812.jpg,2 Points,2 Points,7 Points,,,,,,,,,,0,1,1,1,,,,,,,,,,,,,,,,,,,,,,,,,,,,,,,,,,,,,,,,,,,219.47107537498232,,q,1.8811881251167506,221.47258529101964,,,,,,270448,A,2024-07-25_11h48.32.854,EPIDM,2023.1.2,None,
O013.jpg,A001.jpg,3 Points,3 Points,10 Points,,,,,,,,,,0,2,2,2,,,,,,,,,,,,,,,,,,,,,,,,,,,,,,,,,,,,,,,,,,,225.66456766601186,,q,1.471021126024425,227.28578541590832,,,,,,270448,A,2024-07-25_11h48.32.854,EPIDM,2023.1.2,None,
P036.jpg,F273.jpg,5 Points,5 Points,15 Points,,,,,,,,,,0,3,3,3,,,,,,,,,,,,,,,,,,,,,,,,,,,,,,,,,,,,,,,,,,,231.43498229095712,,p,2.155086208949797,233.76696191600058,,,,,,270448,A,2024-07-25_11h48.32.854,EPIDM,2023.1.2,None,
L130.jpg,2393.jpg,0 Points,0 Points,15 Points,,,,,,,,,,0,4,4,4,,,,,,,,,,,,,,,,,,,,,,,,,,,,,,,,,,,,,,,,,,,237.9078077080194,,p,2.675839500967413,240.7226166659966,0,7.971559667028487,,,,270448,A,2024-07-25_11h48.32.854,EPIDM,2023.1.2,None,
F279.jpg,P033.jpg,3 Points,3 Points,18 Points,,,,,,,,,,0,5,5,5,,,,,,,,,,,,,,,,,,,,,,,,,,,,,,,,,,,,,,,,,,,252.97906533291098,256.6759360829601,None,,,,,,,,270448,A,2024-07-25_11h48.32.854,EPIDM,2023.1.2,None,
A104.jpg,2593.jpg,2 Points,2 Points,20 Points,,,,,,,,,,0,6,6,6,,,,,,,,,,,,,,,,,,,,,,,,,,,,,,,,,,,,,,,,,,,260.4784589159535,,p,0.9361505419947207,261.55035112495534,,,,,,270448,A,2024-07-25_11h48.32.854,EPIDM,2023.1.2,None,
2598.jpg,2605.jpg,0 Points,0 Points,20 Points,,,,,,,,,,0,7,7,7,,,,,,,,,,,,,,,,,,,,,,,,,,,,,,,,,,,,,,,,,,,265.7382331249537,,p,1.4600448340643197,267.3039417079417,,,,,,270448,A,2024-07-25_11h48.32.854,EPIDM,2023.1.2,None,
L005.jpg,O011.jpg,1 Points,1 Points,21 Points,,,,,,,,,,0,8,8,8,,,,,,,,,,,,,,,,,,,,,,,,,,,,,,,,,,,,,,,,,,,271.51367833290715,,q,1.9967950839782134,273.64314545795787,,,,,,270448,A,2024-07-25_11h48.32.854,EPIDM,2023.1.2,None,
8186.jpg,F078.jpg,2 Points,2 Points,23 Points,,,,,,,,,,0,9,9,9,,,,,,,,,,,,,,,,,,,,,,,,,,,,,,,,,,,,,,,,,,,277.8177842909936,,q,1.8524734590901062,279.80819237499963,2,1.8831254590768367,291.8974982079817,space,39.26065816706978,270448,A,2024-07-25_11h48.32.854,EPIDM,2023.1.2,None,
,,,,,,,,,,,,,,,,,,,,,,,,,,,,,,,,,,,,,,,,,,,,,,,,,,,,,,,,,,space,5.128097668057308,,,,,,,,,,,270448,A,2024-07-25_11h48.32.854,EPIDM,2023.1.2,None,
1019.jpg,2120.jpg,0 Points,0 Points,0 Points,PS1_L1.csv,,,,,,,,,,,,,,,,,,,,,,,,,,,,,0,0,0,0,0,0,0,0,,,,,,,,,,,,,,,,,,,357.55621154094115,,q,1.9216085419757292,359.58598362491466,,,,,,270448,A,2024-07-25_11h48.32.854,EPIDM,2023.1.2,None,
6900.jpg,8531.jpg,4 Points,4 Points,4 Points,PS1_L1.csv,,,,,,,,,,,,,,,,,,,,,,,,,,,,,0,0,0,0,0,1,1,1,,,,,,,,,,,,,,,,,,,363.77958649990615,,q,2.129805168020539,365.97411183291115,4,1.9268011261010543,,,,270448,A,2024-07-25_11h48.32.854,EPIDM,2023.1.2,None,
5594.jpg,5750.jpg,5 Points,5 Points,9 Points,PS1_L1.csv,,,,,,,,,,,,,,,,,,,,,,,,,,,,,0,0,0,0,0,2,2,2,,,,,,,,,,,,,,,,,,,372.2361441659741,,q,1.8812722089933231,374.1900267499732,,,,,,270448,A,2024-07-25_11h48.32.854,EPIDM,2023.1.2,None,
2205.jpg,3053.jpg,4 Points,4 Points,13 Points,PS1_L1.csv,,,,,,,,,,,,,,,,,,,,,,,,,,,,,0,0,0,0,0,3,3,3,,,,,,,,,,,,,,,,,,,378.42746416595764,,p,1.7854747920064256,380.2810215409845,,,,,,270448,A,2024-07-25_11h48.32.854,EPIDM,2023.1.2,None,
3250.jpg,A053.jpg,3 Points,3 Points,16 Points,PS1_L1.csv,,,,,,,,,,,,,,,,,,,,,,,,,,,,,0,0,0,0,0,4,4,4,,,,,,,,,,,,,,,,,,,384.52270462492015,,q,1.5931087920907885,386.2197009579977,,,,,,270448,A,2024-07-25_11h48.32.854,EPIDM,2023.1.2,None,
7950.jpg,7187.jpg,1 Point,1 Point,17 Points,PS1_L1.csv,,,,,,,,,,,,,,,,,,,,,,,,,,,,,0,0,0,0,0,5,5,5,,,,,,,,,,,,,,,,,,,390.42201224993914,,q,2.111252126051113,392.63285791594535,,,,,,270448,A,2024-07-25_11h48.32.854,EPIDM,2023.1.2,None,
5535.jpg,8210.jpg,3 Points,3 Points,20 Points,PS1_L1.csv,,,,,,,,,,,,,,,,,,,,,,,,,,,,,0,0,0,0,0,6,6,6,,,,,,,,,,,,,,,,,,,396.8424530409975,,p,1.7773072090931237,398.6836384999333,,,,,,270448,A,2024-07-25_11h48.32.854,EPIDM,2023.1.2,None,
9001.jpg,9620.jpg,1 Point,1 Point,21 Points,PS1_L1.csv,,,,,,,,,,,,,,,,,,,,,,,,,,,,,0,0,0,0,0,7,7,7,,,,,,,,,,,,,,,,,,,402.93242245796137,,p,3.072087083943188,406.08320649992675,,,,,,270448,A,2024-07-25_11h48.32.854,EPIDM,2023.1.2,None,
1110.jpg,9331.jpg,2 Points,2 Points,23 Points,PS1_L1.csv,,,,,,,,,,,,,,,,,,,,,,,,,,,,,0,0,0,0,0,8,8,8,,,,,,,,,,,,,,,,,,,410.3186845409218,,q,3.277085541980341,413.6684517909307,,,,,,270448,A,2024-07-25_11h48.32.854,EPIDM,2023.1.2,None,
7820.jpg,1121.jpg,0 Points,0 Points,23 Points,PS1_L1.csv,,,,,,,,,,,,,,,,,,,,,,,,,,,,,0,0,0,0,0,9,9,9,,,,,,,,,,,,,,,,,,,417.89764329092577,,p,2.78567804209888,420.76348970795516,,,,,,270448,A,2024-07-25_11h48.32.854,EPIDM,2023.1.2,None,
7186.jpg,9182.jpg,2 Points,2 Points,25 Points,PS1_L1.csv,,,,,,,,,,,,,,,,,,,,,,,,,,,,,0,0,0,0,0,10,10,10,,,,,,,,,,,,,,,,,,,425.00084445800167,,p,2.6660398760577664,427.742674332927,,,,,,270448,A,2024-07-25_11h48.32.854,EPIDM,2023.1.2,None,
9280.jpg,9390.jpg,1 Point,1 Point,26 Points,PS1_L1.csv,,,,,,,,,,,,,,,,,,,,,,,,,,,,,0,0,0,0,0,11,11,11,,,,,,,,,,,,,,,,,,,431.9747635410167,,q,2.5407485420582816,434.592128957971,,,,,,270448,A,2024-07-25_11h48.32.854,EPIDM,2023.1.2,None,
2440.jpg,7351.jpg,4 Points,4 Points,30 Points,PS1_L1.csv,,,,,,,,,,,,,,,,,,,,,,,,,,,,,0,0,0,0,0,12,12,12,,,,,,,,,,,,,,,,,,,438.81784758297727,,q,1.9765548760769889,440.8786713749869,,,,,,270448,A,2024-07-25_11h48.32.854,EPIDM,2023.1.2,None,
6834.jpg,9120.jpg,5 Points,5 Points,35 Points,PS1_L1.csv,,,,,,,,,,,,,,,,,,,,,,,,,,,,,0,0,0,0,0,13,13,13,,,,,,,,,,,,,,,,,,,445.1078252909938,,p,2.7200749590992928,447.8927234580042,5,1.311375334043987,,,,270448,A,2024-07-25_11h48.32.854,EPIDM,2023.1.2,None,
9230.jpg,9181.jpg,0 Points,0 Points,35 Points,PS1_L1.csv,,,,,,,,,,,,,,,,,,,,,,,,,,,,,0,0,0,0,0,14,14,14,,,,,,,,,,,,,,,,,,,453.5141321249539,,q,2.297623500111513,455.8662862909259,,,,,,270448,A,2024-07-25_11h48.32.854,EPIDM,2023.1.2,None,
8260.jpg,8280.jpg,3 Points,3 Points,38 Points,PS1_L1.csv,,,,,,,,,,,,,,,,,,,,,,,,,,,,,0,0,0,0,0,15,15,15,,,,,,,,,,,,,,,,,,,460.1140803329181,,p,2.4177862510550767,462.5947943329811,,,,,,270448,A,2024-07-25_11h48.32.854,EPIDM,2023.1.2,None,
9470.jpg,9400.jpg,3 Points,3 Points,41 Points,PS1_L1.csv,,,,,,,,,,,,,,,,,,,,,,,,,,,,,0,0,0,0,0,16,16,16,,,,,,,,,,,,,,,,,,,466.83378908294253,,p,2.185168250114657,469.0816110409796,,,,,,270448,A,2024-07-25_11h48.32.854,EPIDM,2023.1.2,None,
2616.jpg,7238.jpg,4 Points,4 Points,45 Points,PS1_L1.csv,,,,,,,,,,,,,,,,,,,,,,,,,,,,,0,0,0,0,0,17,17,17,,,,,,,,,,,,,,,,,,,473.3347292909166,,q,2.18860316707287,475.58556883293204,,,,,,270448,A,2024-07-25_11h48.32.854,EPIDM,2023.1.2,None,
9430.jpg,3010.jpg,5 Points,5 Points,50 Points,PS1_L1.csv,,,,,,,,,,,,,,,,,,,,,,,,,,,,,0,0,0,0,0,18,18,18,,,,,,,,,,,,,,,,,,,479.8243962499546,,p,2.066047334112227,481.949110415997,,,,,,270448,A,2024-07-25_11h48.32.854,EPIDM,2023.1.2,None,
1661.jpg,1321.jpg,3 Points,3 Points,53 Points,PS1_L1.csv,,,,,,,,,,,,,,,,,,,,,,,,,,,,,0,0,0,0,0,19,19,19,,,,,,,,,,,,,,,,,,,486.2014947499847,,p,1.913784667965956,488.1685495409183,,,,,,270448,A,2024-07-25_11h48.32.854,EPIDM,2023.1.2,None,
8041.jpg,2271.jpg,2 Points,2 Points,55 Points,PS1_L1.csv,,,,,,,,,,,,,,,,,,,,,,,,,,,,,0,0,0,0,0,20,20,20,,,,,,,,,,,,,,,,,,,492.414866915904,,q,2.0125383340055123,494.49230062495917,,,,,,270448,A,2024-07-25_11h48.32.854,EPIDM,2023.1.2,None,
9180.jpg,9046.jpg,3 Points,3 Points,58 Points,PS1_L1.csv,,,,,,,,,,,,,,,,,,,,,,,,,,,,,0,0,0,0,0,21,21,21,,,,,,,,,,,,,,,,,,,498.73995091591496,,q,2.6304971260251477,501.4434572500177,,,,,,270448,A,2024-07-25_11h48.32.854,EPIDM,2023.1.2,None,
2691.jpg,7640.jpg,0 Points,0 Points,58 Points,PS1_L1.csv,,,,,,,,,,,,,,,,,,,,,,,,,,,,,0,0,0,0,0,22,22,22,,,,,,,,,,,,,,,,,,,505.68495137500577,,q,2.589318917132914,508.34164200001396,,,,,,270448,A,2024-07-25_11h48.32.854,EPIDM,2023.1.2,None,
1660.jpg,2840.jpg,2 Points,2 Points,60 Points,PS1_L1.csv,,,,,,,,,,,,,,,,,,,,,,,,,,,,,0,0,0,0,0,23,23,23,,,,,,,,,,,,,,,,,,,512.5832643329632,,q,2.6678252511192113,515.3137219579658,,,525.7863736249274,space,23.50370483403094,270448,A,2024-07-25_11h48.32.854,EPIDM,2023.1.2,None,
9480.jpg,9250.jpg,0 Points,0 Points,60 Points,PS1_L2.csv,,,,,,,,,,,,,,,,,,,,,,,,,,,,,0,1,1,1,0,0,0,0,,,,,,,,,,,,,,,,,,,552.5918440410169,,p,2.2647815430536866,554.9282460829709,,,,,,270448,A,2024-07-25_11h48.32.854,EPIDM,2023.1.2,None,
9910.jpg,6940.jpg,2 Points,2 Points,62 Points,PS1_L2.csv,,,,,,,,,,,,,,,,,,,,,,,,,,,,,0,1,1,1,0,1,1,1,,,,,,,,,,,,,,,,,,,559.1692769159563,,q,2.1839588340371847,561.4091675829841,2,1.653440042049624,,,,270448,A,2024-07-25_11h48.32.854,EPIDM,2023.1.2,None,
4535.jpg,1811.jpg,1 Point,1 Point,63 Points,PS1_L2.csv,,,,,,,,,,,,,,,,,,,,,,,,,,,,,0,1,1,1,0,2,2,2,,,,,,,,,,,,,,,,,,,567.369014582946,,q,1.9837315420154482,569.4239546249155,,,,,,270448,A,2024-07-25_11h48.32.854,EPIDM,2023.1.2,None,
2020.jpg,1947.jpg,5 Points,5 Points,68 Points,PS1_L2.csv,,,,,,,,,,,,,,,,,,,,,,,,,,,,,0,1,1,1,0,3,3,3,,,,,,,,,,,,,,,,,,,573.6550032909727,,q,2.018098959000781,575.7453672079137,,,,,,270448,A,2024-07-25_11h48.32.854,EPIDM,2023.1.2,None,
9160.jpg,1200.jpg,4 Points,4 Points,72 Points,PS1_L2.csv,,,,,,,,,,,,,,,,,,,,,,,,,,,,,0,1,1,1,0,4,4,4,,,,,,,,,,,,,,,,,,,579.9853540830081,,q,1.9446466260123998,582.0123013330158,,,,,,270448,A,2024-07-25_11h48.32.854,EPIDM,2023.1.2,None,
9520.jpg,1931.jpg,3 Points,3 Points,75 Points,PS1_L2.csv,,,,,,,,,,,,,,,,,,,,,,,,,,,,,0,1,1,1,0,5,5,5,,,,,,,,,,,,,,,,,,,586.2513879999751,,q,1.885355083970353,588.2134724579519,,,,,,270448,A,2024-07-25_11h48.32.854,EPIDM,2023.1.2,None,
7830.jpg,2499.jpg,3 Points,3 Points,78 Points,PS1_L2.csv,,,,,,,,,,,,,,,,,,,,,,,,,,,,,0,1,1,1,0,6,6,6,,,,,,,,,,,,,,,,,,,592.4574191659922,,q,2.0719049170147628,594.5935999999056,,,,,,270448,A,2024-07-25_11h48.32.854,EPIDM,2023.1.2,None,
6830.jpg,6212.jpg,4 Points,4 Points,82 Points,PS1_L2.csv,,,,,,,,,,,,,,,,,,,,,,,,,,,,,0,1,1,1,0,7,7,7,,,,,,,,,,,,,,,,,,,598.8404485000065,,p,1.8893924590665847,600.7937288749963,,,,,,270448,A,2024-07-25_11h48.32.854,EPIDM,2023.1.2,None,
7285.jpg,4233.jpg,5 Points,5 Points,87 Points,PS1_L2.csv,,,,,,,,,,,,,,,,,,,,,,,,,,,,,0,1,1,1,0,8,8,8,,,,,,,,,,,,,,,,,,,605.0460014579585,,q,2.017713626031764,607.1375012079952,,,,,,270448,A,2024-07-25_11h48.32.854,EPIDM,2023.1.2,None,
1740.jpg,7480.jpg,0 Points,0 Points,87 Points,PS1_L2.csv,,,,,,,,,,,,,,,,,,,,,,,,,,,,,0,1,1,1,0,9,9,9,,,,,,,,,,,,,,,,,,,611.3776186659234,,q,3.1687651670072228,614.6143654579064,,,,,,270448,A,2024-07-25_11h48.32.854,EPIDM,2023.1.2,None,
7380.jpg,1220.jpg,1 Point,1 Point,88 Points,PS1_L2.csv,,,,,,,,,,,,,,,,,,,,,,,,,,,,,0,1,1,1,0,10,10,10,,,,,,,,,,,,,,,,,,,618.8648279159097,,q,2.527446750085801,621.456469124998,,,,,,270448,A,2024-07-25_11h48.32.854,EPIDM,2023.1.2,None,
3061.jpg,2717.jpg,4 Points,4 Points,92 Points,PS1_L2.csv,,,,,,,,,,,,,,,,,,,,,,,,,,,,,0,1,1,1,0,11,11,11,,,,,,,,,,,,,,,,,,,625.7146865829127,,q,2.4468453340232372,628.2236848329194,,,,,,270448,A,2024-07-25_11h48.32.854,EPIDM,2023.1.2,None,
5460.jpg,5800.jpg,0 Points,0 Points,92 Points,PS1_L2.csv,,,,,,,,,,,,,,,,,,,,,,,,,,,,,0,1,1,1,0,12,12,12,,,,,,,,,,,,,,,,,,,632.4777832910186,,q,2.3936479589901865,634.9453198749106,,,,,,270448,A,2024-07-25_11h48.32.854,EPIDM,2023.1.2,None,
2215.jpg,2512.jpg,1 Point,1 Point,93 Points,PS1_L2.csv,,,,,,,,,,,,,,,,,,,,,,,,,,,,,0,1,1,1,0,13,13,13,,,,,,,,,,,,,,,,,,,639.1805859159213,,p,1.9626570000546053,641.2174546249444,1,1.5068085009697825,,,,270448,A,2024-07-25_11h48.32.854,EPIDM,2023.1.2,None,
3000.jpg,6200.jpg,5 Points,5 Points,98 Points,PS1_L2.csv,,,,,,,,,,,,,,,,,,,,,,,,,,,,,0,1,1,1,0,14,14,14,,,,,,,,,,,,,,,,,,,647.026883249986,,q,1.3474463750608265,648.4471895829774,,,,,,270448,A,2024-07-25_11h48.32.854,EPIDM,2023.1.2,None,
1945.jpg,2800.jpg,4 Points,4 Points,102 Points,PS1_L2.csv,,,,,,,,,,,,,,,,,,,,,,,,,,,,,0,1,1,1,0,15,15,15,,,,,,,,,,,,,,,,,,,652.6895874579204,,p,1.589405000093393,654.3564607079607,,,,,,270448,A,2024-07-25_11h48.32.854,EPIDM,2023.1.2,None,
5660.jpg,5201.jpg,0 Points,0 Points,102 Points,PS1_L2.csv,,,,,,,,,,,,,,,,,,,,,,,,,,,,,0,1,1,1,0,16,16,16,,,,,,,,,,,,,,,,,,,658.5933305409271,,q,2.6696380011271685,661.3273271250073,,,,,,270448,A,2024-07-25_11h48.32.854,EPIDM,2023.1.2,None,
3266.jpg,7360.jpg,1 Point,1 Point,103 Points,PS1_L2.csv,,,,,,,,,,,,,,,,,,,,,,,,,,,,,0,1,1,1,0,17,17,17,,,,,,,,,,,,,,,,,,,665.5667034159414,,q,1.0164662930183113,666.6482964159222,,,,,,270448,A,2024-07-25_11h48.32.854,EPIDM,2023.1.2,None,
F149.jpg,3030.jpg,0 Points,0 Points,103 Points,PS1_L2.csv,,,,,,,,,,,,,,,,,,,,,,,,,,,,,0,1,1,1,0,18,18,18,,,,,,,,,,,,,,,,,,,670.8963518749224,,p,2.4940850840648636,673.4965866659768,,,,,,270448,A,2024-07-25_11h48.32.854,EPIDM,2023.1.2,None,
5410.jpg,1450.jpg,5 Points,5 Points,108 Points,PS1_L2.csv,,,,,,,,,,,,,,,,,,,,,,,,,,,,,0,1,1,1,0,19,19,19,,,,,,,,,,,,,,,,,,,677.7066236659884,,q,2.4128512090537697,680.177671500016,,,,,,270448,A,2024-07-25_11h48.32.854,EPIDM,2023.1.2,None,
9101.jpg,9571.jpg,2 Points,2 Points,110 Points,PS1_L2.csv,,,,,,,,,,,,,,,,,,,,,,,,,,,,,0,1,1,1,0,20,20,20,,,,,,,,,,,,,,,,,,,684.4302064159419,,p,2.1203717500902712,686.6162717499537,,,,,,270448,A,2024-07-25_11h48.32.854,EPIDM,2023.1.2,None,
9110.jpg,3051.jpg,1 Point,1 Point,111 Points,PS1_L2.csv,,,,,,,,,,,,,,,,,,,,,,,,,,,,,0,1,1,1,0,21,21,21,,,,,,,,,,,,,,,,,,,690.8628092500148,,p,2.1113420841284096,693.07273575,,,,,,270448,A,2024-07-25_11h48.32.854,EPIDM,2023.1.2,None,
2100.jpg,7205.jpg,5 Points,5 Points,116 Points,PS1_L2.csv,,,,,,,,,,,,,,,,,,,,,,,,,,,,,0,1,1,1,0,22,22,22,,,,,,,,,,,,,,,,,,,697.2957223749254,,p,1.3345718340715393,698.7092088329373,,,,,,270448,A,2024-07-25_11h48.32.854,EPIDM,2023.1.2,None,
3160.jpg,6210.jpg,1 Point,1 Point,117 Points,PS1_L2.csv,,,,,,,,,,,,,,,,,,,,,,,,,,,,,0,1,1,1,0,23,23,23,,,,,,,,,,,,,,,,,,,702.9437459160108,,p,2.7901663340162486,705.8091606659582,,,716.2639684579335,space,24.05320487509016,270448,A,2024-07-25_11h48.32.854,EPIDM,2023.1.2,None,
7283.jpg,1720.jpg,4 Points,4 Points,121 Points,PS1_L3.csv,,,,,,,,,,,,,,,,,,,,,,,,,,,,,0,2,2,2,0,0,0,0,,,,,,,,,,,,,,,,,,,743.6286382079124,,p,2.513979084091261,746.215103165945,,,,,,270448,A,2024-07-25_11h48.32.854,EPIDM,2023.1.2,None,
6571.jpg,P237.jpg,2 Points,2 Points,123 Points,PS1_L3.csv,,,,,,,,,,,,,,,,,,,,,,,,,,,,,0,2,2,2,0,1,1,1,,,,,,,,,,,,,,,,,,,750.4544273329666,,p,2.8714220840483904,753.4437777079875,2,1.3412376260384917,,,,270448,A,2024-07-25_11h48.32.854,EPIDM,2023.1.2,None,
6260.jpg,3062.jpg,3 Points,3 Points,126 Points,PS1_L3.csv,,,,,,,,,,,,,,,,,,,,,,,,,,,,,0,2,2,2,0,2,2,2,,,,,,,,,,,,,,,,,,,759.0815772080095,,q,1.7074999590404332,760.8952956249705,,,,,,270448,A,2024-07-25_11h48.32.854,EPIDM,2023.1.2,None,
6150.jpg,2206.jpg,0 Points,0 Points,126 Points,PS1_L3.csv,,,,,,,,,,,,,,,,,,,,,,,,,,,,,0,2,2,2,0,3,3,3,,,,,,,,,,,,,,,,,,,765.0942942079855,,p,2.4224173759575933,767.5999442499597,,,,,,270448,A,2024-07-25_11h48.32.854,EPIDM,2023.1.2,None,
9300.jpg,1050.jpg,4 Points,4 Points,130 Points,PS1_L3.csv,,,,,,,,,,,,,,,,,,,,,,,,,,,,,0,2,2,2,0,4,4,4,,,,,,,,,,,,,,,,,,,771.8306475830032,,q,2.6132024590624496,774.5155154159293,,,,,,270448,A,2024-07-25_11h48.32.854,EPIDM,2023.1.2,None,
F365.jpg,3180.jpg,5 Points,5 Points,135 Points,PS1_L3.csv,,,,,,,,,,,,,,,,,,,,,,,,,,,,,0,2,2,2,0,5,5,5,,,,,,,,,,,,,,,,,,,778.7531775829848,,p,2.9071094170212746,781.7680292079458,,,,,,270448,A,2024-07-25_11h48.32.854,EPIDM,2023.1.2,None,
2320.jpg,2791.jpg,4 Points,4 Points,139 Points,PS1_L3.csv,,,,,,,,,,,,,,,,,,,,,,,,,,,,,0,2,2,2,0,6,6,6,,,,,,,,,,,,,,,,,,,785.9751371659804,,q,2.1337457509944215,788.1822169160005,,,,,,270448,A,2024-07-25_11h48.32.854,EPIDM,2023.1.2,None,
8311.jpg,4609.jpg,2 Points,2 Points,141 Points,PS1_L3.csv,,,,,,,,,,,,,,,,,,,,,,,,,,,,,0,2,2,2,0,7,7,7,,,,,,,,,,,,,,,,,,,792.4174785829382,,q,2.219235916971229,794.7001329580089,,,,,,270448,A,2024-07-25_11h48.32.854,EPIDM,2023.1.2,None,
9042.jpg,2753.jpg,0 Points,0 Points,141 Points,PS1_L3.csv,,,,,,,,,,,,,,,,,,,,,,,,,,,,,0,2,2,2,0,8,8,8,,,,,,,,,,,,,,,,,,,798.9442702499218,,q,2.523005000082776,801.5396484580124,,,,,,270448,A,2024-07-25_11h48.32.854,EPIDM,2023.1.2,None,
5471.jpg,7352.jpg,2 Points,2 Points,143 Points,PS1_L3.csv,,,,,,,,,,,,,,,,,,,,,,,,,,,,,0,2,2,2,0,9,9,9,,,,,,,,,,,,,,,,,,,805.7838400829351,,p,1.5717798760160804,807.4261369579472,,,,,,270448,A,2024-07-25_11h48.32.854,EPIDM,2023.1.2,None,
P222.jpg,9401.jpg,2 Points,2 Points,145 Points,PS1_L3.csv,,,,,,,,,,,,,,,,,,,,,,,,,,,,,0,2,2,2,0,10,10,10,,,,,,,,,,,,,,,,,,,811.6680739999283,,p,2.5277225009631366,814.297894832911,,,,,,270448,A,2024-07-25_11h48.32.854,EPIDM,2023.1.2,None,
1610.jpg,F203.jpg,0 Points,0 Points,145 Points,PS1_L3.csv,,,,,,,,,,,,,,,,,,,,,,,,,,,,,0,2,2,2,0,11,11,11,,,,,,,,,,,,,,,,,,,818.5107189579867,,p,1.4141337920445949,820.0766608329723,,,,,,270448,A,2024-07-25_11h48.32.854,EPIDM,2023.1.2,None,
9405.jpg,6250.2.jpg,3 Points,3 Points,148 Points,PS1_L3.csv,,,,,,,,,,,,,,,,,,,,,,,,,,,,,0,2,2,2,0,12,12,12,,,,,,,,,,,,,,,,,,,824.2406204579165,,q,1.6113615420181304,825.9633939579362,,,,,,270448,A,2024-07-25_11h48.32.854,EPIDM,2023.1.2,None,
1090.jpg,P217.jpg,5 Points,5 Points,153 Points,PS1_L3.csv,,,,,,,,,,,,,,,,,,,,,,,,,,,,,0,2,2,2,0,13,13,13,,,,,,,,,,,,,,,,,,,830.1594057499897,,p,2.8431926670018584,833.1148250829428,5,1.4663655430776998,,,,270448,A,2024-07-25_11h48.32.854,EPIDM,2023.1.2,None,
P233.jpg,3060.jpg,1 Point,1 Point,154 Points,PS1_L3.csv,,,,,,,,,,,,,,,,,,,,,,,,,,,,,0,2,2,2,0,14,14,14,,,,,,,,,,,,,,,,,,,838.890382124926,,p,2.569157876074314,841.5747631249251,,,,,,270448,A,2024-07-25_11h48.32.854,EPIDM,2023.1.2,None,
8040.jpg,7185.jpg,1 Point,1 Point,155 Points,PS1_L3.csv,,,,,,,,,,,,,,,,,,,,,,,,,,,,,0,2,2,2,0,15,15,15,,,,,,,,,,,,,,,,,,,845.7607889159117,,q,1.010329334065318,846.845424124971,,,,,,270448,A,2024-07-25_11h48.32.854,EPIDM,2023.1.2,None,
6550.jpg,9582.jpg,5 Points,5 Points,160 Points,PS1_L3.csv,,,,,,,,,,,,,,,,,,,,,,,,,,,,,0,2,2,2,0,16,16,16,,,,,,,,,,,,,,,,,,,851.082630165969,,q,2.4581737930420786,853.6298560409341,,,,,,270448,A,2024-07-25_11h48.32.854,EPIDM,2023.1.2,None,
P077.jpg,A041.jpg,1 Point,1 Point,161 Points,PS1_L3.csv,,,,,,,,,,,,,,,,,,,,,,,,,,,,,0,2,2,2,0,17,17,17,,,,,,,,,,,,,,,,,,,857.8590022500139,,p,2.3442793340655044,860.3433587909676,,,,,,270448,A,2024-07-25_11h48.32.854,EPIDM,2023.1.2,None,
4770.jpg,4275.jpg,3 Points,3 Points,164 Points,PS1_L3.csv,,,,,,,,,,,,,,,,,,,,,,,,,,,,,0,2,2,2,0,18,18,18,,,,,,,,,,,,,,,,,,,864.5122780409874,,q,2.002066459041089,866.6297980409581,,,,,,270448,A,2024-07-25_11h48.32.854,EPIDM,2023.1.2,None,
9594.jpg,1080.jpg,4 Points,4 Points,168 Points,PS1_L3.csv,,,,,,,,,,,,,,,,,,,,,,,,,,,,,0,2,2,2,0,19,19,19,,,,,,,,,,,,,,,,,,,870.8216699999757,,q,1.8843675010139123,872.7869795409497,,,,,,270448,A,2024-07-25_11h48.32.854,EPIDM,2023.1.2,None,
2606.jpg,2480.jpg,1 Point,1 Point,169 Points,PS1_L3.csv,,,,,,,,,,,,,,,,,,,,,,,,,,,,,0,2,2,2,0,20,20,20,,,,,,,,,,,,,,,,,,,877.0175704999128,,p,1.5062230000039563,878.5925727079157,,,,,,270448,A,2024-07-25_11h48.32.854,EPIDM,2023.1.2,None,
1052.jpg,1201.jpg,3 Points,3 Points,172 Points,PS1_L3.csv,,,,,,,,,,,,,,,,,,,,,,,,,,,,,0,2,2,2,0,21,21,21,,,,,,,,,,,,,,,,,,,882.839069291018,,p,2.1066366680897772,885.0203114999458,,,,,,270448,A,2024-07-25_11h48.32.854,EPIDM,2023.1.2,None,
F369.jpg,3100.jpg,2 Points,2 Points,174 Points,PS1_L3.csv,,,,,,,,,,,,,,,,,,,,,,,,,,,,,0,2,2,2,0,22,22,22,,,,,,,,,,,,,,,,,,,889.2648945829133,,p,1.4181318760383874,890.7767943749204,,,,,,270448,A,2024-07-25_11h48.32.854,EPIDM,2023.1.2,None,
2620.jpg,2594.jpg,0 Points,0 Points,174 Points,PS1_L3.csv,,,,,,,,,,,,,,,,,,,,,,,,,,,,,0,2,2,2,0,23,23,23,,,,,,,,,,,,,,,,,,,894.9951179159107,,q,1.5913601249922067,896.6504587499658,,,907.1517659159144,space,2.345996209071018,270448,A,2024-07-25_11h48.32.854,EPIDM,2023.1.2,None,
P019.jpg,F158.jpg,3 Points,3 Points,177 Points,PS1_L4.csv,,,,,,,,,,,,,,,,,,,,,,,,,,,,,0,3,3,3,0,0,0,0,,,,,,,,,,,,,,,,,,,912.8050188329071,,p,2.1884336260845885,915.1420205829199,,,,,,270448,A,2024-07-25_11h48.32.854,EPIDM,2023.1.2,None,
7620.jpg,5395.jpg,1 Point,1 Point,178 Points,PS1_L4.csv,,,,,,,,,,,,,,,,,,,,,,,,,,,,,0,3,3,3,0,1,1,1,,,,,,,,,,,,,,,,,,,919.303671374917,,p,2.819251584005542,922.2236554579576,1,1.3130182510940358,,,,270448,A,2024-07-25_11h48.32.854,EPIDM,2023.1.2,None,
5970.jpg,3300.jpg,0 Points,0 Points,178 Points,PS1_L4.csv,,,,,,,,,,,,,,,,,,,,,,,,,,,,,0,3,3,3,0,2,2,2,,,,,,,,,,,,,,,,,,,927.8081715829903,,p,1.331115125096403,929.2049537500134,,,,,,270448,A,2024-07-25_11h48.32.854,EPIDM,2023.1.2,None,
5120.jpg,5520.jpg,2 Points,2 Points,180 Points,PS1_L4.csv,,,,,,,,,,,,,,,,,,,,,,,,,,,,,0,3,3,3,0,3,3,3,,,,,,,,,,,,,,,,,,,933.454963624943,,q,1.9384940839372575,935.467062832904,,,,,,270448,A,2024-07-25_11h48.32.854,EPIDM,2023.1.2,None,
9452.jpg,7184.jpg,4 Points,4 Points,184 Points,PS1_L4.csv,,,,,,,,,,,,,,,,,,,,,,,,,,,,,0,3,3,3,0,4,4,4,,,,,,,,,,,,,,,,,,,939.7084498329787,,q,2.0927504169521853,941.8651304999366,,,,,,270448,A,2024-07-25_11h48.32.854,EPIDM,2023.1.2,None,
6570.1.jpg,9432.jpg,5 Points,5 Points,189 Points,PS1_L4.csv,,,,,,,,,,,,,,,,,,,,,,,,,,,,,0,3,3,3,0,5,5,5,,,,,,,,,,,,,,,,,,,946.1035516660195,,p,2.176997208967805,948.345880165929,,,,,,270448,A,2024-07-25_11h48.32.854,EPIDM,2023.1.2,None,
2389.jpg,7320.jpg,0 Points,0 Points,189 Points,PS1_L4.csv,,,,,,,,,,,,,,,,,,,,,,,,,,,,,0,3,3,3,0,6,6,6,,,,,,,,,,,,,,,,,,,952.5905061659869,,q,1.0983934591058642,953.7714158749441,,,,,,270448,A,2024-07-25_11h48.32.854,EPIDM,2023.1.2,None,
9330.jpg,3015.jpg,5 Points,5 Points,194 Points,PS1_L4.csv,,,,,,,,,,,,,,,,,,,,,,,,,,,,,0,3,3,3,0,7,7,7,,,,,,,,,,,,,,,,,,,958.0102717910195,,p,2.5507654170505702,960.6252306660172,,,,,,270448,A,2024-07-25_11h48.32.854,EPIDM,2023.1.2,None,
9560.jpg,3071.jpg,1 Point,1 Point,195 Points,PS1_L4.csv,,,,,,,,,,,,,,,,,,,,,,,,,,,,,0,3,3,3,0,8,8,8,,,,,,,,,,,,,,,,,,,964.8668714999221,,q,2.07682229205966,967.0165301249363,,,,,,270448,A,2024-07-25_11h48.32.854,EPIDM,2023.1.2,None,
5994.jpg,5390.jpg,0 Points,0 Points,195 Points,PS1_L4.csv,,,,,,,,,,,,,,,,,,,,,,,,,,,,,0,3,3,3,0,9,9,9,,,,,,,,,,,,,,,,,,,971.2597343329107,,q,1.8367714590858668,973.1659890830051,,,,,,270448,A,2024-07-25_11h48.32.854,EPIDM,2023.1.2,None,
2692.jpg,8231.jpg,4 Points,4 Points,199 Points,PS1_L4.csv,,,,,,,,,,,,,,,,,,,,,,,,,,,,,0,3,3,3,0,10,10,10,,,,,,,,,,,,,,,,,,,977.4136155409506,,p,1.9297263340558857,979.406465957989,,,,,,270448,A,2024-07-25_11h48.32.854,EPIDM,2023.1.2,None,
F174.jpg,9404.jpg,5 Points,5 Points,204 Points,PS1_L4.csv,,,,,,,,,,,,,,,,,,,,,,,,,,,,,0,3,3,3,0,11,11,11,,,,,,,,,,,,,,,,,,,983.6522452499485,,p,1.4045011260313913,985.1585275409743,,,,,,270448,A,2024-07-25_11h48.32.854,EPIDM,2023.1.2,None,
8010.jpg,2630.jpg,0 Points,0 Points,204 Points,PS1_L4.csv,,,,,,,,,,,,,,,,,,,,,,,,,,,,,0,3,3,3,0,12,12,12,,,,,,,,,,,,,,,,,,,989.3640008749207,,q,2.907890125992708,992.3475120830117,,,,,,270448,A,2024-07-25_11h48.32.854,EPIDM,2023.1.2,None,
7175.jpg,7490.jpg,2 Points,2 Points,206 Points,PS1_L4.csv,,,,,,,,,,,,,,,,,,,,,,,,,,,,,0,3,3,3,0,13,13,13,,,,,,,,,,,,,,,,,,,996.588952290942,,q,2.9554145430447534,999.6277579159942,2,1.2148537090979517,,,,270448,A,2024-07-25_11h48.32.854,EPIDM,2023.1.2,None,
6561.jpg,1525.jpg,2 Points,2 Points,208 Points,PS1_L4.csv,,,,,,,,,,,,,,,,,,,,,,,,,,,,,0,3,3,3,0,14,14,14,,,,,,,,,,,,,,,,,,,1005.1557272499194,,q,1.699664416955784,1006.9241504999809,,,,,,270448,A,2024-07-25_11h48.32.854,EPIDM,2023.1.2,None,
9070.jpg,9420.jpg,2 Points,2 Points,210 Points,PS1_L4.csv,,,,,,,,,,,,,,,,,,,,,,,,,,,,,0,3,3,3,0,15,15,15,,,,,,,,,,,,,,,,,,,1011.171875540982,,q,2.2993006670149043,1013.5335928329732,,,,,,270448,A,2024-07-25_11h48.32.854,EPIDM,2023.1.2,None,
2516.jpg,8500.jpg,4 Points,4 Points,214 Points,PS1_L4.csv,,,,,,,,,,,,,,,,,,,,,,,,,,,,,0,3,3,3,0,16,16,16,,,,,,,,,,,,,,,,,,,1017.7856887909584,,p,2.1900847090873867,1020.0455147909233,,,,,,270448,A,2024-07-25_11h48.32.854,EPIDM,2023.1.2,None,
9140.jpg,2810.jpg,3 Points,3 Points,217 Points,PS1_L4.csv,,,,,,,,,,,,,,,,,,,,,,,,,,,,,0,3,3,3,0,17,17,17,,,,,,,,,,,,,,,,,,,1024.279185290914,,q,2.623638126067817,1026.974699457991,,,,,,270448,A,2024-07-25_11h48.32.854,EPIDM,2023.1.2,None,
7220.jpg,8090.jpg,2 Points,2 Points,219 Points,PS1_L4.csv,,,,,,,,,,,,,,,,,,,,,,,,,,,,,0,3,3,3,0,18,18,18,,,,,,,,,,,,,,,,,,,1031.2220453330083,,p,2.577344876015559,1033.8610852909042,,,,,,270448,A,2024-07-25_11h48.32.854,EPIDM,2023.1.2,None,
2661.jpg,2870.jpg,5 Points,5 Points,224 Points,PS1_L4.csv,,,,,,,,,,,,,,,,,,,,,,,,,,,,,0,3,3,3,0,19,19,19,,,,,,,,,,,,,,,,,,,1038.1217146659037,,q,3.014251209096983,1041.2016604159726,,,,,,270448,A,2024-07-25_11h48.32.854,EPIDM,2023.1.2,None,
6010.jpg,7361.jpg,2 Points,2 Points,226 Points,PS1_L4.csv,,,,,,,,,,,,,,,,,,,,,,,,,,,,,0,3,3,3,0,20,20,20,,,,,,,,,,,,,,,,,,,1045.4491225829115,,p,3.57313791802153,1049.0961017080117,,,,,,270448,A,2024-07-25_11h48.32.854,EPIDM,2023.1.2,None,
7289.jpg,4534.jpg,0 Points,0 Points,226 Points,PS1_L4.csv,,,,,,,,,,,,,,,,,,,,,,,,,,,,,0,3,3,3,0,21,21,21,,,,,,,,,,,,,,,,,,,1053.3382557500154,,p,3.1318609170848504,1056.5519427079707,,,,,,270448,A,2024-07-25_11h48.32.854,EPIDM,2023.1.2,None,
1310.jpg,3181.jpg,4 Points,4 Points,230 Points,PS1_L4.csv,,,,,,,,,,,,,,,,,,,,,,,,,,,,,0,3,3,3,0,22,22,22,,,,,,,,,,,,,,,,,,,1060.7912959159585,,q,3.4067798340693116,1064.2731554579223,,,,,,270448,A,2024-07-25_11h48.32.854,EPIDM,2023.1.2,None,
2383.jpg,1616.jpg,2 Points,2 Points,232 Points,PS1_L4.csv,,,,,,,,,,,,,,,,,,,,,,,,,,,,,0,3,3,3,0,23,23,23,,,,,,,,,,,,,,,,,,,1068.5172395829577,,p,1.8415766259422526,1070.434587124968,,,1080.9045719580026,space,6.669134042109363,270448,A,2024-07-25_11h48.32.854,EPIDM,2023.1.2,None,
4510.jpg,2230.jpg,5 Points,5 Points,237 Points,PS1_L5.csv,,,,,,,,,,,,,,,,,,,,,,,,,,,,,0,4,4,4,0,0,0,0,,,,,,,,,,,,,,,,,,,1090.8805915409466,,q,1.6057789591141045,1092.5706000409555,,,,,,270448,A,2024-07-25_11h48.32.854,EPIDM,2023.1.2,None,
A025.jpg,1051.jpg,0 Points,0 Points,237 Points,PS1_L5.csv,,,,,,,,,,,,,,,,,,,,,,,,,,,,,0,4,4,4,0,1,1,1,,,,,,,,,,,,,,,,,,,1096.8008387499722,,q,2.556336542009376,1099.4791067909682,0,1.4269163340795785,,,,270448,A,2024-07-25_11h48.32.854,EPIDM,2023.1.2,None,
7002.jpg,4660.jpg,4 Points,4 Points,241 Points,PS1_L5.csv,,,,,,,,,,,,,,,,,,,,,,,,,,,,,0,4,4,4,0,2,2,2,,,,,,,,,,,,,,,,,,,1105.215851749992,,p,1.4217401669593528,1106.765622915933,,,,,,270448,A,2024-07-25_11h48.32.854,EPIDM,2023.1.2,None,
2900.jpg,1101.jpg,3 Points,3 Points,244 Points,PS1_L5.csv,,,,,,,,,,,,,,,,,,,,,,,,,,,,,0,4,4,4,0,3,3,3,,,,,,,,,,,,,,,,,,,1110.960913332994,,q,2.9160921670263633,1113.9562619159697,,,,,,270448,A,2024-07-25_11h48.32.854,EPIDM,2023.1.2,None,
2485.jpg,7350.jpg,0 Points,0 Points,244 Points,PS1_L5.csv,,,,,,,,,,,,,,,,,,,,,,,,,,,,,0,4,4,4,0,4,4,4,,,,,,,,,,,,,,,,,,,1118.1904434160097,,p,2.1737885010661557,1120.4437617909862,,,,,,270448,A,2024-07-25_11h48.32.854,EPIDM,2023.1.2,None,
6242.jpg,F034.jpg,4 Points,4 Points,248 Points,PS1_L5.csv,,,,,,,,,,,,,,,,,,,,,,,,,,,,,0,4,4,4,0,5,5,5,,,,,,,,,,,,,,,,,,,1124.6836157079088,,p,2.2171184590552,1127.0123472079867,,,,,,270448,A,2024-07-25_11h48.32.854,EPIDM,2023.1.2,None,
3170.jpg,6560.jpg,2 Points,2 Points,250 Points,PS1_L5.csv,,,,,,,,,,,,,,,,,,,,,,,,,,,,,0,4,4,4,0,6,6,6,,,,,,,,,,,,,,,,,,,1131.212881540996,,q,3.5999667920405045,1134.9231552080018,,,,,,270448,A,2024-07-25_11h48.32.854,EPIDM,2023.1.2,None,
8033.jpg,7270.jpg,3 Points,3 Points,253 Points,PS1_L5.csv,,,,,,,,,,,,,,,,,,,,,,,,,,,,,0,4,4,4,0,7,7,7,,,,,,,,,,,,,,,,,,,1139.1326681659557,,q,2.3845425840700045,1141.589428499923,,,,,,270448,A,2024-07-25_11h48.32.854,EPIDM,2023.1.2,None,
2597.jpg,5870.jpg,5 Points,5 Points,258 Points,PS1_L5.csv,,,,,,,,,,,,,,,,,,,,,,,,,,,,,0,4,4,4,0,8,8,8,,,,,,,,,,,,,,,,,,,1145.8358417910058,,p,1.90422708413098,1147.8048704579705,,,,,,270448,A,2024-07-25_11h48.32.854,EPIDM,2023.1.2,None,
6312.jpg,3230.jpg,2 Points,2 Points,260 Points,PS1_L5.csv,,,,,,,,,,,,,,,,,,,,,,,,,,,,,0,4,4,4,0,9,9,9,,,,,,,,,,,,,,,,,,,1152.044948374969,,p,3.247811668086797,1155.3570914999582,,,,,,270448,A,2024-07-25_11h48.32.854,EPIDM,2023.1.2,None,
3130.jpg,3500.jpg,4 Points,4 Points,264 Points,PS1_L5.csv,,,,,,,,,,,,,,,,,,,,,,,,,,,,,0,4,4,4,0,10,10,10,,,,,,,,,,,,,,,,,,,1159.5986797909718,,p,2.3098792501259595,1161.9839106249856,,,,,,270448,A,2024-07-25_11h48.32.854,EPIDM,2023.1.2,None,
2749.jpg,7282.jpg,3 Points,3 Points,267 Points,PS1_L5.csv,,,,,,,,,,,,,,,,,,,,,,,,,,,,,0,4,4,4,0,11,11,11,,,,,,,,,,,,,,,,,,,1166.2171594579704,,p,2.9058863340178505,1169.2042867079144,,,,,,270448,A,2024-07-25_11h48.32.854,EPIDM,2023.1.2,None,
5300.jpg,2372.jpg,1 Point,1 Point,268 Points,PS1_L5.csv,,,,,,,,,,,,,,,,,,,,,,,,,,,,,0,4,4,4,0,12,12,12,,,,,,,,,,,,,,,,,,,1173.4355314159766,,q,1.0643127930816263,1174.5689178749453,,,,,,270448,A,2024-07-25_11h48.32.854,EPIDM,2023.1.2,None,
6510.jpg,A074.jpg,2 Points,2 Points,270 Points,PS1_L5.csv,,,,,,,,,,,,,,,,,,,,,,,,,,,,,0,4,4,4,0,13,13,13,,,,,,,,,,,,,,,,,,,1178.8022359579336,,q,3.3379567089723423,1182.2501718329731,2,1.3600256680510938,,,,270448,A,2024-07-25_11h48.32.854,EPIDM,2023.1.2,None,
2260.jpg,2830.jpg,5 Points,5 Points,275 Points,PS1_L5.csv,,,,,,,,,,,,,,,,,,,,,,,,,,,,,0,4,4,4,0,14,14,14,,,,,,,,,,,,,,,,,,,1187.9351798329735,,p,1.492736459011212,1189.5075399159687,,,,,,270448,A,2024-07-25_11h48.32.854,EPIDM,2023.1.2,None,
2710.jpg,9252.jpg,1 Point,1 Point,276 Points,PS1_L5.csv,,,,,,,,,,,,,,,,,,,,,,,,,,,,,0,4,4,4,0,15,15,15,,,,,,,,,,,,,,,,,,,1193.7446169999894,,p,2.266982043045573,1196.0827770410106,,,,,,270448,A,2024-07-25_11h48.32.854,EPIDM,2023.1.2,None,
3064.jpg,3168.jpg,4 Points,4 Points,280 Points,PS1_L5.csv,,,,,,,,,,,,,,,,,,,,,,,,,,,,,0,4,4,4,0,16,16,16,,,,,,,,,,,,,,,,,,,1200.3251205409179,,q,2.9507621669908985,1203.3345942079322,,,,,,270448,A,2024-07-25_11h48.32.854,EPIDM,2023.1.2,None,
1640.jpg,5531.jpg,3 Points,3 Points,283 Points,PS1_L5.csv,,,,,,,,,,,,,,,,,,,,,,,,,,,,,0,4,4,4,0,17,17,17,,,,,,,,,,,,,,,,,,,1207.5778747079894,,p,2.4251295840367675,1210.082603457966,,,,,,270448,A,2024-07-25_11h48.32.854,EPIDM,2023.1.2,None,
3530.jpg,6213.jpg,1 Point,1 Point,284 Points,PS1_L5.csv,,,,,,,,,,,,,,,,,,,,,,,,,,,,,0,4,4,4,0,18,18,18,,,,,,,,,,,,,,,,,,,1214.3141793749528,,q,3.017302043037489,1217.4095658329315,,,,,,270448,A,2024-07-25_11h48.32.854,EPIDM,2023.1.2,None,
9090.jpg,7580.jpg,3 Points,3 Points,287 Points,PS1_L5.csv,,,,,,,,,,,,,,,,,,,,,,,,,,,,,0,4,4,4,0,19,19,19,,,,,,,,,,,,,,,,,,,1221.641603957978,,p,2.2243665009737015,1223.9430940829916,,,,,,270448,A,2024-07-25_11h48.32.854,EPIDM,2023.1.2,None,
8230.jpg,2682.jpg,5 Points,5 Points,292 Points,PS1_L5.csv,,,,,,,,,,,,,,,,,,,,,,,,,,,,,0,4,4,4,0,20,20,20,,,,,,,,,,,,,,,,,,,1228.1790337909479,,p,2.760202166973613,1231.0099325829651,,,,,,270448,A,2024-07-25_11h48.32.854,EPIDM,2023.1.2,None,
9592.jpg,1300.jpg,2 Points,2 Points,294 Points,PS1_L5.csv,,,,,,,,,,,,,,,,,,,,,,,,,,,,,0,4,4,4,0,21,21,21,,,,,,,,,,,,,,,,,,,1235.24377683294,,q,2.806879709009081,1238.1168637499213,,,,,,270448,A,2024-07-25_11h48.32.854,EPIDM,2023.1.2,None,
2490.jpg,2590.jpg,4 Points,4 Points,298 Points,PS1_L5.csv,,,,,,,,,,,,,,,,,,,,,,,,,,,,,0,4,4,4,0,22,22,22,,,,,,,,,,,,,,,,,,,1242.3578267499106,,p,1.8926583750871941,1244.315856665955,,,,,,270448,A,2024-07-25_11h48.32.854,EPIDM,2023.1.2,None,
2190.jpg,7503.jpg,2 Points,2 Points,300 Points,PS1_L5.csv,,,,,,,,,,,,,,,,,,,,,,,,,,,,,0,4,4,4,0,23,23,23,,,,,,,,,,,,,,,,,,,1248.5585730829043,,p,1.9162308340892196,1250.539301832905,,,1261.0247452079784,space,5.923535251058638,270448,A,2024-07-25_11h48.32.854,EPIDM,2023.1.2,None,
1930.jpg,9008.jpg,1 Point,1 Point,301 Points,PS1_L6.csv,,,,,,,,,,,,,,,,,,,,,,,,,,,,,0,5,5,5,0,0,0,0,,,,,,,,,,,,,,,,,,,1270.267008750001,,q,2.366278959088959,1272.7093644159613,,,,,,270448,A,2024-07-25_11h48.32.854,EPIDM,2023.1.2,None,
4613.jpg,2720.jpg,4 Points,4 Points,305 Points,PS1_L6.csv,,,,,,,,,,,,,,,,,,,,,,,,,,,,,0,5,5,5,0,1,1,1,,,,,,,,,,,,,,,,,,,1276.9423249999527,,q,1.7713468340225518,1278.7907938329736,4,1.5945062930695713,,,,270448,A,2024-07-25_11h48.32.854,EPIDM,2023.1.2,None,
3280.jpg,9270.jpg,0 Points,0 Points,305 Points,PS1_L6.csv,,,,,,,,,,,,,,,,,,,,,,,,,,,,,0,5,5,5,0,2,2,2,,,,,,,,,,,,,,,,,,,1284.6869240829255,,p,2.290287834010087,1287.050972249941,,,,,,270448,A,2024-07-25_11h48.32.854,EPIDM,2023.1.2,None,
6800.jpg,9190.jpg,0 Points,0 Points,305 Points,PS1_L6.csv,,,,,,,,,,,,,,,,,,,,,,,,,,,,,0,5,5,5,0,3,3,3,,,,,,,,,,,,,,,,,,,1291.291336165974,,q,1.9492265430744737,1293.3063172909897,,,,,,270448,A,2024-07-25_11h48.32.854,EPIDM,2023.1.2,None,
5600.jpg,9080.jpg,5 Points,5 Points,310 Points,PS1_L6.csv,,,,,,,,,,,,,,,,,,,,,,,,,,,,,0,5,5,5,0,4,4,4,,,,,,,,,,,,,,,,,,,1297.552596082911,,q,1.9449598341016099,1299.5676879580133,,,,,,270448,A,2024-07-25_11h48.32.854,EPIDM,2023.1.2,None,
P211.jpg,9041.jpg,4 Points,4 Points,314 Points,PS1_L6.csv,,,,,,,,,,,,,,,,,,,,,,,,,,,,,0,5,5,5,0,5,5,5,,,,,,,,,,,,,,,,,,,1303.7976296659326,,q,2.898956459132023,1306.8096032079775,,,,,,270448,A,2024-07-25_11h48.32.854,EPIDM,2023.1.2,None,
5200.jpg,5020.jpg,0 Points,0 Points,314 Points,PS1_L6.csv,,,,,,,,,,,,,,,,,,,,,,,,,,,,,0,5,5,5,0,6,6,6,,,,,,,,,,,,,,,,,,,1311.0052397079999,,p,2.5720173340523615,1313.6807465410093,,,,,,270448,A,2024-07-25_11h48.32.854,EPIDM,2023.1.2,None,
1850.jpg,5623.jpg,5 Points,5 Points,319 Points,PS1_L6.csv,,,,,,,,,,,,,,,,,,,,,,,,,,,,,0,5,5,5,0,7,7,7,,,,,,,,,,,,,,,,,,,1317.8817716250196,,q,1.1109607509570196,1319.0637524159392,,,,,,270448,A,2024-07-25_11h48.32.854,EPIDM,2023.1.2,None,
9440.jpg,6350.jpg,4 Points,4 Points,323 Points,PS1_L6.csv,,,,,,,,,,,,,,,,,,,,,,,,,,,,,0,5,5,5,0,8,8,8,,,,,,,,,,,,,,,,,,,1323.3059168750187,,p,2.9257045841077343,1326.2917952080024,,,,,,270448,A,2024-07-25_11h48.32.854,EPIDM,2023.1.2,None,
5990.jpg,5780.jpg,3 Points,3 Points,326 Points,PS1_L6.csv,,,,,,,,,,,,,,,,,,,,,,,,,,,,,0,5,5,5,0,9,9,9,,,,,,,,,,,,,,,,,,,1330.538513083011,,p,1.8140503760660067,1332.4163674159208,,,,,,270448,A,2024-07-25_11h48.32.854,EPIDM,2023.1.2,None,
6244.jpg,9265.jpg,0 Points,0 Points,326 Points,PS1_L6.csv,,,,,,,,,,,,,,,,,,,,,,,,,,,,,0,5,5,5,0,10,10,10,,,,,,,,,,,,,,,,,,,1336.6589532080106,,q,2.1165537510532886,1338.8412174999248,,,,,,270448,A,2024-07-25_11h48.32.854,EPIDM,2023.1.2,None,
5000.jpg,8180.jpg,4 Points,4 Points,330 Points,PS1_L6.csv,,,,,,,,,,,,,,,,,,,,,,,,,,,,,0,5,5,5,0,11,11,11,,,,,,,,,,,,,,,,,,,1343.0855175829493,,p,1.426986001082696,1344.585592374904,,,,,,270448,A,2024-07-25_11h48.32.854,EPIDM,2023.1.2,None,
5982.jpg,5260.jpg,5 Points,5 Points,335 Points,PS1_L6.csv,,,,,,,,,,,,,,,,,,,,,,,,,,,,,0,5,5,5,0,12,12,12,,,,,,,,,,,,,,,,,,,1348.8179450409953,,q,1.3497690421063453,1350.2472164159408,,,,,,270448,A,2024-07-25_11h48.32.854,EPIDM,2023.1.2,None,
1301.jpg,1070.jpg,2 Points,2 Points,337 Points,PS1_L6.csv,,,,,,,,,,,,,,,,,,,,,,,,,,,,,0,5,5,5,0,13,13,13,,,,,,,,,,,,,,,,,,,1354.4854599999962,,q,2.178615584038198,1356.7361179159489,2,1.1540082090068609,,,,270448,A,2024-07-25_11h48.32.854,EPIDM,2023.1.2,None,
7920.jpg,9102.jpg,3 Points,3 Points,340 Points,PS1_L6.csv,,,,,,,,,,,,,,,,,,,,,,,,,,,,,0,5,5,5,0,14,14,14,,,,,,,,,,,,,,,,,,,1362.1977213330101,,q,3.097821000032127,1365.3797542499378,,,,,,270448,A,2024-07-25_11h48.32.854,EPIDM,2023.1.2,None,
5455.jpg,5220.jpg,0 Points,0 Points,340 Points,PS1_L6.csv,,,,,,,,,,,,,,,,,,,,,,,,,,,,,0,5,5,5,0,15,15,15,,,,,,,,,,,,,,,,,,,1369.6134378329152,,q,2.0663276261184365,1371.744353332906,,,,,,270448,A,2024-07-25_11h48.32.854,EPIDM,2023.1.2,None,
3350.jpg,3210.jpg,1 Point,1 Point,341 Points,PS1_L6.csv,,,,,,,,,,,,,,,,,,,,,,,,,,,,,0,5,5,5,0,16,16,16,,,,,,,,,,,,,,,,,,,1375.9841775409877,,p,1.631056334124878,1377.6793121249648,,,,,,270448,A,2024-07-25_11h48.32.854,EPIDM,2023.1.2,None,
2560.jpg,5270.jpg,4 Points,4 Points,345 Points,PS1_L6.csv,,,,,,,,,,,,,,,,,,,,,,,,,,,,,0,5,5,5,0,17,17,17,,,,,,,,,,,,,,,,,,,1381.9338678749045,,p,3.0114307090407237,1385.0186687079258,,,,,,270448,A,2024-07-25_11h48.32.854,EPIDM,2023.1.2,None,
9584.jpg,3400.jpg,2 Points,2 Points,347 Points,PS1_L6.csv,,,,,,,,,,,,,,,,,,,,,,,,,,,,,0,5,5,5,0,18,18,18,,,,,,,,,,,,,,,,,,,1389.263699166011,,p,1.12694391713012,1390.4566504160175,,,,,,270448,A,2024-07-25_11h48.32.854,EPIDM,2023.1.2,None,
5760.jpg,1602.jpg,1 Point,1 Point,348 Points,PS1_L6.csv,,,,,,,,,,,,,,,,,,,,,,,,,,,,,0,5,5,5,0,19,19,19,,,,,,,,,,,,,,,,,,,1394.7131551660132,,q,1.8538983340840787,1396.6376052909764,,,,,,270448,A,2024-07-25_11h48.32.854,EPIDM,2023.1.2,None,
7230.jpg,7570.jpg,5 Points,5 Points,353 Points,PS1_L6.csv,,,,,,,,,,,,,,,,,,,,,,,,,,,,,0,5,5,5,0,20,20,20,,,,,,,,,,,,,,,,,,,1400.883612249978,,p,2.0022387510398403,1402.9662409579614,,,,,,270448,A,2024-07-25_11h48.32.854,EPIDM,2023.1.2,None,
1022.jpg,6930.jpg,1 Point,1 Point,354 Points,PS1_L6.csv,,,,,,,,,,,,,,,,,,,,,,,,,,,,,0,5,5,5,0,21,21,21,,,,,,,,,,,,,,,,,,,1407.1970809579361,,p,2.320782501017675,1409.5973621249432,,,,,,270448,A,2024-07-25_11h48.32.854,EPIDM,2023.1.2,None,
8340.jpg,7546.jpg,2 Points,2 Points,356 Points,PS1_L6.csv,,,,,,,,,,,,,,,,,,,,,,,,,,,,,0,5,5,5,0,22,22,22,,,,,,,,,,,,,,,,,,,1413.8336586660007,,p,2.9887286260491237,1416.8950777909486,,,,,,270448,A,2024-07-25_11h48.32.854,EPIDM,2023.1.2,None,
6243.jpg,2752.jpg,2 Points,2 Points,358 Points,PS1_L6.csv,,,,,,,,,,,,,,,,,,,,,,,,,,,,,0,5,5,5,0,23,23,23,,,,,,,,,,,,,,,,,,,1421.1332724159583,,p,0.8483808760065585,1422.0487737079384,,,1432.5331613329472,space,21.416761417058297,270448,A,2024-07-25_11h48.32.854,EPIDM,2023.1.2,None,
7280.jpg,7160.jpg,0 Points,0 Points,358 Points,PS1_L7.csv,,,,,,,,,,,,,,,,,,,,,,,,,,,,,0,6,6,6,0,0,0,0,,,,,,,,,,,,,,,,,,,1457.2692245409125,,q,3.240691834012978,1460.5980451249052,,,,,,270448,A,2024-07-25_11h48.32.854,EPIDM,2023.1.2,None,
2580.jpg,8300.jpg,3 Points,3 Points,361 Points,PS1_L7.csv,,,,,,,,,,,,,,,,,,,,,,,,,,,,,0,6,6,6,0,1,1,1,,,,,,,,,,,,,,,,,,,1464.820726790931,,p,2.768402084009722,1467.664402415976,3,1.0899181260028854,,,,270448,A,2024-07-25_11h48.32.854,EPIDM,2023.1.2,None,
5972.jpg,6838.jpg,5 Points,5 Points,366 Points,PS1_L7.csv,,,,,,,,,,,,,,,,,,,,,,,,,,,,,0,6,6,6,0,2,2,2,,,,,,,,,,,,,,,,,,,1473.055600249907,,p,2.1403695840854198,1475.2645783749176,,,,,,270448,A,2024-07-25_11h48.32.854,EPIDM,2023.1.2,None,
5621.jpg,5534.jpg,3 Points,3 Points,369 Points,PS1_L7.csv,,,,,,,,,,,,,,,,,,,,,,,,,,,,,0,6,6,6,0,3,3,3,,,,,,,,,,,,,,,,,,,1479.5019022909692,,p,2.4547562090447173,1482.0271817499306,,,,,,270448,A,2024-07-25_11h48.32.854,EPIDM,2023.1.2,None,
8480.jpg,6410.jpg,1 Point,1 Point,370 Points,PS1_L7.csv,,,,,,,,,,,,,,,,,,,,,,,,,,,,,0,6,6,6,0,4,4,4,,,,,,,,,,,,,,,,,,,1486.268591415952,,q,1.59099329309538,1487.9384326249128,,,,,,270448,A,2024-07-25_11h48.32.854,EPIDM,2023.1.2,None,
2702.jpg,1590.jpg,5 Points,5 Points,375 Points,PS1_L7.csv,,,,,,,,,,,,,,,,,,,,,,,,,,,,,0,6,6,6,0,5,5,5,,,,,,,,,,,,,,,,,,,1492.1681302499492,,q,2.1478564171120524,1494.3940200830111,,,,,,270448,A,2024-07-25_11h48.32.854,EPIDM,2023.1.2,None,
1275.jpg,3150.jpg,1 Point,1 Point,376 Points,PS1_L7.csv,,,,,,,,,,,,,,,,,,,,,,,,,,,,,0,6,6,6,0,6,6,6,,,,,,,,,,,,,,,,,,,1498.6247949999524,1502.328030457953,None,,,,,,,,270448,A,2024-07-25_11h48.32.854,EPIDM,2023.1.2,None,
1910.jpg,2575.jpg,2 Points,2 Points,378 Points,PS1_L7.csv,,,,,,,,,,,,,,,,,,,,,,,,,,,,,0,6,6,6,0,7,7,7,,,,,,,,,,,,,,,,,,,1506.120330250007,,p,1.4430478340946138,1507.632305832929,,,,,,270448,A,2024-07-25_11h48.32.854,EPIDM,2023.1.2,None,
2518.jpg,2381.jpg,1 Point,1 Point,382 Points,PS1_L7.csv,,,,,,,,,,,,,,,,,,,,,,,,,,,,,0,6,6,6,0,8,8,8,,,,,,,,,,,,,,,,,,,1511.8772024579812,,q,1.8228506681043655,1513.7559337909333,,,,,,270448,A,2024-07-25_11h48.32.854,EPIDM,2023.1.2,None,
6250.1.jpg,3301.jpg,0 Points,0 Points,382 Points,PS1_L7.csv,,,,,,,,,,,,,,,,,,,,,,,,,,,,,0,6,6,6,0,9,9,9,,,,,,,,,,,,,,,,,,,1518.0067588329548,,p,1.2697874590521678,1519.3493419579463,,,,,,270448,A,2024-07-25_11h48.32.854,EPIDM,2023.1.2,None,
7234.jpg,5533.jpg,3 Points,3 Points,385 Points,PS1_L7.csv,,,,,,,,,,,,,,,,,,,,,,,,,,,,,0,6,6,6,0,10,10,10,,,,,,,,,,,,,,,,,,,1523.5936494159978,,q,1.6257001250050962,1525.284136125003,,,,,,270448,A,2024-07-25_11h48.32.854,EPIDM,2023.1.2,None,
9920.jpg,3068.jpg,5 Points,5 Points,390 Points,PS1_L7.csv,,,,,,,,,,,,,,,,,,,,,,,,,,,,,0,6,6,6,0,11,11,11,,,,,,,,,,,,,,,,,,,1529.5279262500117,,p,1.9873527500312775,1531.5757815409452,,,,,,270448,A,2024-07-25_11h48.32.854,EPIDM,2023.1.2,None,
3022.jpg,2352.2.jpg,0 Points,0 Points,390 Points,PS1_L7.csv,,,,,,,,,,,,,,,,,,,,,,,,,,,,,0,6,6,6,0,12,12,12,,,,,,,,,,,,,,,,,,,1535.8228648329386,,p,2.2842169171199203,1538.1795466250041,,,,,,270448,A,2024-07-25_11h48.32.854,EPIDM,2023.1.2,None,
8250.jpg,1313.jpg,4 Points,4 Points,394 Points,PS1_L7.csv,,,,,,,,,,,,,,,,,,,,,,,,,,,,,0,6,6,6,0,13,13,13,,,,,,,,,,,,,,,,,,,1542.4169947499176,,q,1.9941454590298235,1544.4922732079867,4,1.0907223339891061,,,,270448,A,2024-07-25_11h48.32.854,EPIDM,2023.1.2,None,
2690.jpg,9360.jpg,1 Point,1 Point,395 Points,PS1_L7.csv,,,,,,,,,,,,,,,,,,,,,,,,,,,,,0,6,6,6,0,14,14,14,,,,,,,,,,,,,,,,,,,1549.892911999952,,q,1.1987543761497363,1551.1584923749324,,,,,,270448,A,2024-07-25_11h48.32.854,EPIDM,2023.1.2,None,
9570.jpg,6610.jpg,0 Points,0 Points,395 Points,PS1_L7.csv,,,,,,,,,,,,,,,,,,,,,,,,,,,,,0,6,6,6,0,15,15,15,,,,,,,,,,,,,,,,,,,1555.3909305409761,,p,2.419550667051226,1557.8789847500157,,,,,,270448,A,2024-07-25_11h48.32.854,EPIDM,2023.1.2,None,
3110.jpg,9000.jpg,4 Points,4 Points,399 Points,PS1_L7.csv,,,,,,,,,,,,,,,,,,,,,,,,,,,,,0,6,6,6,0,16,16,16,,,,,,,,,,,,,,,,,,,1562.130030915956,,p,1.6489029170479625,1563.8408409159165,,,,,,270448,A,2024-07-25_11h48.32.854,EPIDM,2023.1.2,None,
8465.jpg,8400.jpg,1 Point,1 Point,400 Points,PS1_L7.csv,,,,,,,,,,,,,,,,,,,,,,,,,,,,,0,6,6,6,0,17,17,17,,,,,,,,,,,,,,,,,,,1568.0926696249517,,p,1.5811192920664325,1569.7435014159419,,,,,,270448,A,2024-07-25_11h48.32.854,EPIDM,2023.1.2,None,
1540.jpg,2600.jpg,1 Point,1 Point,401 Points,PS1_L7.csv,,,,,,,,,,,,,,,,,,,,,,,,,,,,,0,6,6,6,0,18,18,18,,,,,,,,,,,,,,,,,,,1573.9931144999573,,q,1.9138167920755222,1575.9716412079288,,,,,,270448,A,2024-07-25_11h48.32.854,EPIDM,2023.1.2,None,
2276.jpg,6540.jpg,3 Points,3 Points,404 Points,PS1_L7.csv,,,,,,,,,,,,,,,,,,,,,,,,,,,,,0,6,6,6,0,19,19,19,,,,,,,,,,,,,,,,,,,1580.2207030409481,,p,1.2372815010603517,1581.515413749963,,,,,,270448,A,2024-07-25_11h48.32.854,EPIDM,2023.1.2,None,
5030.jpg,1670.jpg,3 Points,3 Points,407 Points,PS1_L7.csv,,,,,,,,,,,,,,,,,,,,,,,,,,,,,0,6,6,6,0,20,20,20,,,,,,,,,,,,,,,,,,,1585.7620495000156,,q,2.4405222920468077,1588.2698789159767,,,,,,270448,A,2024-07-25_11h48.32.854,EPIDM,2023.1.2,None,
9040.jpg,1120.jpg,3 Points,3 Points,410 Points,PS1_L7.csv,,,,,,,,,,,,,,,,,,,,,,,,,,,,,0,6,6,6,0,21,21,21,,,,,,,,,,,,,,,,,,,1592.5220097909914,,p,2.9921779590658844,1595.5830045000184,,,,,,270448,A,2024-07-25_11h48.32.854,EPIDM,2023.1.2,None,
3220.jpg,3063.jpg,5 Points,5 Points,415 Points,PS1_L7.csv,,,,,,,,,,,,,,,,,,,,,,,,,,,,,0,6,6,6,0,22,22,22,,,,,,,,,,,,,,,,,,,1599.8195417079842,,p,2.704375167028047,1602.5914182079723,,,,,,270448,A,2024-07-25_11h48.32.854,EPIDM,2023.1.2,None,
8117.jpg,2880.jpg,5 Points,5 Points,420 Points,PS1_L7.csv,,,,,,,,,,,,,,,,,,,,,,,,,,,,,0,6,6,6,0,23,23,23,,,,,,,,,,,,,,,,,,,1606.8419618749758,,q,2.0981293340446427,1609.0045033749193,,,1619.4872652909253,space,8.520936917047948,270448,A,2024-07-25_11h48.32.854,EPIDM,2023.1.2,None,
4274.jpg,8160.jpg,2 Points,2 Points,422 Points,PS1_L8.csv,,,,,,,,,,,,,,,,,,,,,,,,,,,,,0,7,7,7,0,0,0,0,,,,,,,,,,,,,,,,,,,1631.3112072909717,,q,1.6580280840862542,1633.0510104999412,,,,,,270448,A,2024-07-25_11h48.32.854,EPIDM,2023.1.2,None,
6314.jpg,O022.jpg,2 Points,2 Points,424 Points,PS1_L8.csv,,,,,,,,,,,,,,,,,,,,,,,,,,,,,0,7,7,7,0,1,1,1,,,,,,,,,,,,,,,,,,,1637.280927790911,,p,2.4718424170278013,1639.8556427909061,2,1.460525250993669,,,,270448,A,2024-07-25_11h48.32.854,EPIDM,2023.1.2,None,
1560.jpg,8185.jpg,0 Points,0 Points,424 Points,PS1_L8.csv,,,,,,,,,,,,,,,,,,,,,,,,,,,,,0,7,7,7,0,2,2,2,,,,,,,,,,,,,,,,,,,1645.6339303329587,,p,1.7741408341098577,1647.4767104999628,,,,,,270448,A,2024-07-25_11h48.32.854,EPIDM,2023.1.2,None,
2850.jpg,4532.jpg,3 Points,3 Points,427 Points,PS1_L8.csv,,,,,,,,,,,,,,,,,,,,,,,,,,,,,0,7,7,7,0,3,3,3,,,,,,,,,,,,,,,,,,,1651.717739374959,,q,2.6829145421506837,1654.4686477079522,,,,,,270448,A,2024-07-25_11h48.32.854,EPIDM,2023.1.2,None,
1390.jpg,9421.jpg,2 Points,2 Points,429 Points,PS1_L8.csv,,,,,,,,,,,,,,,,,,,,,,,,,,,,,0,7,7,7,0,4,4,4,,,,,,,,,,,,,,,,,,,1658.7028029999929,,p,2.0979787510586902,1660.8752049579052,,,,,,270448,A,2024-07-25_11h48.32.854,EPIDM,2023.1.2,None,
9800.jpg,9433.jpg,1 Point,1 Point,430 Points,PS1_L8.csv,,,,,,,,,,,,,,,,,,,,,,,,,,,,,0,7,7,7,0,5,5,5,,,,,,,,,,,,,,,,,,,1665.1176801249385,,q,1.386528251110576,1666.5620769999223,,,,,,270448,A,2024-07-25_11h48.32.854,EPIDM,2023.1.2,None,
8161.jpg,1900.jpg,4 Points,4 Points,434 Points,PS1_L8.csv,,,,,,,,,,,,,,,,,,,,,,,,,,,,,0,7,7,7,0,6,6,6,,,,,,,,,,,,,,,,,,,1670.817204165971,,p,1.8151515431236476,1672.6992462499766,,,,,,270448,A,2024-07-25_11h48.32.854,EPIDM,2023.1.2,None,
1112.jpg,6230.jpg,3 Points,3 Points,437 Points,PS1_L8.csv,,,,,,,,,,,,,,,,,,,,,,,,,,,,,0,7,7,7,0,7,7,7,,,,,,,,,,,,,,,,,,,1676.9467557499884,,p,2.9009890840388834,1679.927868666011,,,,,,270448,A,2024-07-25_11h48.32.854,EPIDM,2023.1.2,None,
1111.jpg,1040.jpg,0 Points,0 Points,437 Points,PS1_L8.csv,,,,,,,,,,,,,,,,,,,,,,,,,,,,,0,7,7,7,0,8,8,8,,,,,,,,,,,,,,,,,,,1684.1629682499915,,q,1.379727334016934,1685.6169547499157,,,,,,270448,A,2024-07-25_11h48.32.854,EPIDM,2023.1.2,None,
5622.jpg,9156.jpg,4 Points,4 Points,441 Points,PS1_L8.csv,,,,,,,,,,,,,,,,,,,,,,,,,,,,,0,7,7,7,0,9,9,9,,,,,,,,,,,,,,,,,,,1689.8561188329477,,q,2.081746250973083,1692.012528082938,,,,,,270448,A,2024-07-25_11h48.32.854,EPIDM,2023.1.2,None,
2681.jpg,7100.jpg,3 Points,3 Points,444 Points,PS1_L8.csv,,,,,,,,,,,,,,,,,,,,,,,,,,,,,0,7,7,7,0,10,10,10,,,,,,,,,,,,,,,,,,,1696.2475609160028,,q,0.9114073340315372,1697.2290921659442,,,,,,270448,A,2024-07-25_11h48.32.854,EPIDM,2023.1.2,None,
6821.jpg,9622.jpg,2 Points,2 Points,446 Points,PS1_L8.csv,,,,,,,,,,,,,,,,,,,,,,,,,,,,,0,7,7,7,0,11,11,11,,,,,,,,,,,,,,,,,,,1701.4633357909042,,q,1.9355656680418178,1703.4596904999344,,,,,,270448,A,2024-07-25_11h48.32.854,EPIDM,2023.1.2,None,
9490.jpg,9210.jpg,1 Point,1 Point,447 Points,PS1_L8.csv,,,,,,,,,,,,,,,,,,,,,,,,,,,,,0,7,7,7,0,12,12,12,,,,,,,,,,,,,,,,,,,1707.7166575000156,,q,1.5942925011040643,1709.3706055829534,,,,,,270448,A,2024-07-25_11h48.32.854,EPIDM,2023.1.2,None,
4605.jpg,1510.jpg,4 Points,4 Points,451 Points,PS1_L8.csv,,,,,,,,,,,,,,,,,,,,,,,,,,,,,0,7,7,7,0,13,13,13,,,,,,,,,,,,,,,,,,,1713.6399617500138,,p,2.0068482500500977,1715.708685249905,4,1.0699420010205358,,,,270448,A,2024-07-25_11h48.32.854,EPIDM,2023.1.2,None,
2240.jpg,5010.jpg,5 Points,5 Points,456 Points,PS1_L8.csv,,,,,,,,,,,,,,,,,,,,,,,,,,,,,0,7,7,7,0,14,14,14,,,,,,,,,,,,,,,,,,,1721.089012915967,,p,2.4223100000526756,1723.5982964999275,,,,,,270448,A,2024-07-25_11h48.32.854,EPIDM,2023.1.2,None,
3102.jpg,F032.jpg,1 Point,1 Point,457 Points,PS1_L8.csv,,,,,,,,,,,,,,,,,,,,,,,,,,,,,0,7,7,7,0,15,15,15,,,,,,,,,,,,,,,,,,,1727.8192288329592,,q,2.083696458954364,1730.0340942079201,,,,,,270448,A,2024-07-25_11h48.32.854,EPIDM,2023.1.2,None,
4100.jpg,6570.2.jpg,3 Points,3 Points,460 Points,PS1_L8.csv,,,,,,,,,,,,,,,,,,,,,,,,,,,,,0,7,7,7,0,16,16,16,,,,,,,,,,,,,,,,,,,1734.2222234999062,,q,2.8163135839859024,1737.1480361659778,,,,,,270448,A,2024-07-25_11h48.32.854,EPIDM,2023.1.2,None,
2650.jpg,4531.jpg,5 Points,5 Points,465 Points,PS1_L8.csv,,,,,,,,,,,,,,,,,,,,,,,,,,,,,0,7,7,7,0,17,17,17,,,,,,,,,,,,,,,,,,,1741.345528249978,,q,2.4451058759586886,1743.875118625001,,,,,,270448,A,2024-07-25_11h48.32.854,EPIDM,2023.1.2,None,
9320.jpg,9007.jpg,0 Points,0 Points,465 Points,PS1_L8.csv,,,,,,,,,,,,,,,,,,,,,,,,,,,,,0,7,7,7,0,18,18,18,,,,,,,,,,,,,,,,,,,1748.1216326659778,,q,1.9324262510053813,1750.1270569160115,,,,,,270448,A,2024-07-25_11h48.32.854,EPIDM,2023.1.2,None,
8460.jpg,8330.jpg,0 Points,0 Points,465 Points,PS1_L8.csv,,,,,,,,,,,,,,,,,,,,,,,,,,,,,0,7,7,7,0,19,19,19,,,,,,,,,,,,,,,,,,,1754.3555011659628,,p,1.6988384170690551,1756.1114978749538,,,,,,270448,A,2024-07-25_11h48.32.854,EPIDM,2023.1.2,None,
2570.jpg,5500.jpg,3 Points,3 Points,468 Points,PS1_L8.csv,,,,,,,,,,,,,,,,,,,,,,,,,,,,,0,7,7,7,0,20,20,20,,,,,,,,,,,,,,,,,,,1760.3618745409185,,p,2.3802403761073947,1762.804701832938,,,,,,270448,A,2024-07-25_11h48.32.854,EPIDM,2023.1.2,None,
6190.jpg,3120.jpg,5 Points,5 Points,473 Points,PS1_L8.csv,,,,,,,,,,,,,,,,,,,,,,,,,,,,,0,7,7,7,0,21,21,21,,,,,,,,,,,,,,,,,,,1767.049687707913,,p,2.9005255420925096,1770.0196611660067,,,,,,270448,A,2024-07-25_11h48.32.854,EPIDM,2023.1.2,None,
2200.jpg,4598.jpg,1 Point,1 Point,474 Points,PS1_L8.csv,,,,,,,,,,,,,,,,,,,,,,,,,,,,,0,7,7,7,0,22,22,22,,,,,,,,,,,,,,,,,,,1774.2541107499273,,p,1.9761234590550885,1776.3090525829466,,,,,,270448,A,2024-07-25_11h48.32.854,EPIDM,2023.1.2,None,
1303.jpg,2000.jpg,0 Points,0 Points,474 Points,PS1_L8.csv,,,,,,,,,,,,,,,,,,,,,,,,,,,,,0,7,7,7,0,23,23,23,,,,,,,,,,,,,,,,,,,1780.5409844999667,,q,1.735345916938968,1782.3492600409081,,,1792.8072052079951,space,2.5820042920531705,270448,A,2024-07-25_11h48.32.854,EPIDM,2023.1.2,None,
9010.jpg,9253.jpg,0 Points,0 Points,474 Points,PS1_L9.csv,,,,,,,,,,,,,,,,,,,,,,,,,,,,,0,8,8,8,0,0,0,0,,,,,,,,,,,,,,,,,,,1798.6911094579846,,p,1.6889340000925586,1800.4428515409818,,,,,,270448,A,2024-07-25_11h48.32.854,EPIDM,2023.1.2,None,
1302.jpg,2700.jpg,3 Points,3 Points,477 Points,PS1_L9.csv,,,,,,,,,,,,,,,,,,,,,,,,,,,,,0,8,8,8,0,1,1,1,,,,,,,,,,,,,,,,,,,1804.6835026659537,,p,1.561430292087607,1806.31580474996,3,1.0471315430477262,,,,270448,A,2024-07-25_11h48.32.854,EPIDM,2023.1.2,None,
2030.jpg,2495.jpg,0 Points,0 Points,477 Points,PS1_L9.csv,,,,,,,,,,,,,,,,,,,,,,,,,,,,,0,8,8,8,0,2,2,2,,,,,,,,,,,,,,,,,,,1811.6602902909508,,q,1.687702584080398,1813.428028416005,,,,,,270448,A,2024-07-25_11h48.32.854,EPIDM,2023.1.2,None,
2110.jpg,7260.jpg,5 Points,5 Points,482 Points,PS1_L9.csv,,,,,,,,,,,,,,,,,,,,,,,,,,,,,0,8,8,8,0,3,3,3,,,,,,,,,,,,,,,,,,,1817.6603504999075,,p,1.648840167094022,1819.3882397909183,,,,,,270448,A,2024-07-25_11h48.32.854,EPIDM,2023.1.2,None,
2053.jpg,9415.jpg,4 Points,4 Points,486 Points,PS1_L9.csv,,,,,,,,,,,,,,,,,,,,,,,,,,,,,0,8,8,8,0,4,4,4,,,,,,,,,,,,,,,,,,,1823.620883040945,,q,3.023520293063484,1826.7131367910188,,,,,,270448,A,2024-07-25_11h48.32.854,EPIDM,2023.1.2,None,
6211.jpg,9611.jpg,3 Points,3 Points,489 Points,PS1_L9.csv,,,,,,,,,,,,,,,,,,,,,,,,,,,,,0,8,8,8,0,5,5,5,,,,,,,,,,,,,,,,,,,1830.9529843749478,,p,1.682951376074925,1832.6964443749748,,,,,,270448,A,2024-07-25_11h48.32.854,EPIDM,2023.1.2,None,
8350.jpg,7190.jpg,5 Points,5 Points,494 Points,PS1_L9.csv,,,,,,,,,,,,,,,,,,,,,,,,,,,,,0,8,8,8,0,6,6,6,,,,,,,,,,,,,,,,,,,1836.9489762079902,,q,2.398774459026754,1839.4171342079062,,,,,,270448,A,2024-07-25_11h48.32.854,EPIDM,2023.1.2,None,
9340.jpg,6910.jpg,0 Points,0 Points,494 Points,PS1_L9.csv,,,,,,,,,,,,,,,,,,,,,,,,,,,,,0,8,8,8,0,7,7,7,,,,,,,,,,,,,,,,,,,1843.6478984159185,,q,2.211808668100275,1845.9309098329395,,,,,,270448,A,2024-07-25_11h48.32.854,EPIDM,2023.1.2,None,
4533.jpg,2385.jpg,3 Points,3 Points,497 Points,PS1_L9.csv,,,,,,,,,,,,,,,,,,,,,,,,,,,,,0,8,8,8,0,8,8,8,,,,,,,,,,,,,,,,,,,1850.1651127910009,,p,1.710103667108342,1851.9504230410093,,,,,,270448,A,2024-07-25_11h48.32.854,EPIDM,2023.1.2,None,
5940.jpg,9411.jpg,0 Points,0 Points,497 Points,PS1_L9.csv,,,,,,,,,,,,,,,,,,,,,,,,,,,,,0,8,8,8,0,9,9,9,,,,,,,,,,,,,,,,,,,1856.1927740409737,,q,1.9701730000087991,1858.2382000829093,,,,,,270448,A,2024-07-25_11h48.32.854,EPIDM,2023.1.2,None,
2220.jpg,2010.jpg,5 Points,5 Points,502 Points,PS1_L9.csv,,,,,,,,,,,,,,,,,,,,,,,,,,,,,0,8,8,8,0,10,10,10,,,,,,,,,,,,,,,,,,,1862.4720640409505,,p,1.4272056249901652,1863.9762241659919,,,,,,270448,A,2024-07-25_11h48.32.854,EPIDM,2023.1.2,None,
9500.jpg,6360.jpg,1 Point,1 Point,503 Points,PS1_L9.csv,,,,,,,,,,,,,,,,,,,,,,,,,,,,,0,8,8,8,0,11,11,11,,,,,,,,,,,,,,,,,,,1868.2183042080142,,p,1.4333927500993013,1869.7226848750142,,,,,,270448,A,2024-07-25_11h48.32.854,EPIDM,2023.1.2,None,
2092.jpg,2210.jpg,0 Points,0 Points,503 Points,PS1_L9.csv,,,,,,,,,,,,,,,,,,,,,,,,,,,,,0,8,8,8,0,12,12,12,,,,,,,,,,,,,,,,,,,1873.960818249965,,q,1.0342425840208307,1875.0718403749634,,,,,,270448,A,2024-07-25_11h48.32.854,EPIDM,2023.1.2,None,
9530.jpg,9220.jpg,1 Point,1 Point,504 Points,PS1_L9.csv,,,,,,,,,,,,,,,,,,,,,,,,,,,,,0,8,8,8,0,13,13,13,,,,,,,,,,,,,,,,,,,1879.3096122909337,,q,1.9973549171118066,1881.3706059160177,1,1.1709413339849561,,,,270448,A,2024-07-25_11h48.32.854,EPIDM,2023.1.2,None,
9254.jpg,9290.jpg,2 Points,2 Points,506 Points,PS1_L9.csv,,,,,,,,,,,,,,,,,,,,,,,,,,,,,0,8,8,8,0,14,14,14,,,,,,,,,,,,,,,,,,,1886.852148875012,,q,1.6131982919760048,1888.521530790953,,,,,,270448,A,2024-07-25_11h48.32.854,EPIDM,2023.1.2,None,
4608.jpg,8320.jpg,1 Point,1 Point,507 Points,PS1_L9.csv,,,,,,,,,,,,,,,,,,,,,,,,,,,,,0,8,8,8,0,15,15,15,,,,,,,,,,,,,,,,,,,1892.7774850409478,,q,1.93679183407221,1894.7795584580163,,,,,,270448,A,2024-07-25_11h48.32.854,EPIDM,2023.1.2,None,
7237.jpg,8510.jpg,4 Points,4 Points,511 Points,PS1_L9.csv,,,,,,,,,,,,,,,,,,,,,,,,,,,,,0,8,8,8,0,16,16,16,,,,,,,,,,,,,,,,,,,1899.0216796660097,,p,1.821100459084846,1900.9124999579508,,,,,,270448,A,2024-07-25_11h48.32.854,EPIDM,2023.1.2,None,
9417.jpg,6530.jpg,1 Point,1 Point,512 Points,PS1_L9.csv,,,,,,,,,,,,,,,,,,,,,,,,,,,,,0,8,8,8,0,17,17,17,,,,,,,,,,,,,,,,,,,1905.1528177079745,,q,1.8972882500384003,1907.122128915973,,,,,,270448,A,2024-07-25_11h48.32.854,EPIDM,2023.1.2,None,
6831.jpg,2141.jpg,5 Points,5 Points,517 Points,PS1_L9.csv,,,,,,,,,,,,,,,,,,,,,,,,,,,,,0,8,8,8,0,18,18,18,,,,,,,,,,,,,,,,,,,1911.3557099999161,,p,2.3760186249855906,1913.8023552499944,,,,,,270448,A,2024-07-25_11h48.32.854,EPIDM,2023.1.2,None,
4689.jpg,7009.jpg,5 Points,5 Points,522 Points,PS1_L9.csv,,,,,,,,,,,,,,,,,,,,,,,,,,,,,0,8,8,8,0,19,19,19,,,,,,,,,,,,,,,,,,,1918.0484566249652,,q,1.2845582090085372,1919.403484749957,,,,,,270448,A,2024-07-25_11h48.32.854,EPIDM,2023.1.2,None,
2751.jpg,6313.jpg,3 Points,3 Points,525 Points,PS1_L9.csv,,,,,,,,,,,,,,,,,,,,,,,,,,,,,0,8,8,8,0,20,20,20,,,,,,,,,,,,,,,,,,,1923.6678751659347,,p,1.3013594179647043,1925.0493811249034,,,,,,270448,A,2024-07-25_11h48.32.854,EPIDM,2023.1.2,None,
4621.jpg,3550.jpg,2 Points,2 Points,527 Points,PS1_L9.csv,,,,,,,,,,,,,,,,,,,,,,,,,,,,,0,8,8,8,0,21,21,21,,,,,,,,,,,,,,,,,,,1929.2834852499655,,q,2.1180674590868875,1931.4739296659827,,,,,,270448,A,2024-07-25_11h48.32.854,EPIDM,2023.1.2,None,
8220.jpg,2410.jpg,4 Points,4 Points,531 Points,PS1_L9.csv,,,,,,,,,,,,,,,,,,,,,,,,,,,,,0,8,8,8,0,22,22,22,,,,,,,,,,,,,,,,,,,1935.7265639159596,,p,1.4196530010085553,1937.2082990829367,,,,,,270448,A,2024-07-25_11h48.32.854,EPIDM,2023.1.2,None,
1113.jpg,1240.jpg,3 Points,3 Points,534 Points,PS1_L9.csv,,,,,,,,,,,,,,,,,,,,,,,,,,,,,0,8,8,8,0,23,23,23,,,,,,,,,,,,,,,,,,,1941.4464630410075,,q,2.2351322090253234,1943.7563981659478,,,1954.2397257909179,space,7.305011626100168,270448,A,2024-07-25_11h48.32.854,EPIDM,2023.1.2,None,
2750.jpg,9050.jpg,4 Points,4 Points,538 Points,PS1_L10.csv,,,,,,,,,,,,,,,,,,,,,,,,,,,,,0,9,9,9,0,0,0,0,,,,,,,,,,,,,,,,,,,1964.8567206249572,,p,2.6635985010070726,1967.5885440409184,,,,,,270448,A,2024-07-25_11h48.32.854,EPIDM,2023.1.2,None,
2312.jpg,2722.jpg,1 Points,1 Points,539 Points,PS1_L10.csv,,,,,,,,,,,,,,,,,,,,,,,,,,,,,0,9,9,9,0,1,1,1,,,,,,,,,,,,,,,,,,,1971.8284669159912,,p,1.7082870841259137,1973.6011209159624,1,1.0286426671082154,,,,270448,A,2024-07-25_11h48.32.854,EPIDM,2023.1.2,None,
8232.jpg,4279.jpg,5 Points,5 Points,544 Points,PS1_L10.csv,,,,,,,,,,,,,,,,,,,,,,,,,,,,,0,9,9,9,0,2,2,2,,,,,,,,,,,,,,,,,,,1978.9340334580047,,q,1.969588792999275,1980.9708017909434,,,,,,270448,A,2024-07-25_11h48.32.854,EPIDM,2023.1.2,None,
6000.jpg,6836.jpg,4 Points,4 Points,548 Points,PS1_L10.csv,,,,,,,,,,,,,,,,,,,,,,,,,,,,,0,9,9,9,0,3,3,3,,,,,,,,,,,,,,,,,,,1985.212216957938,,p,1.6684604590991512,1986.950033082976,,,,,,270448,A,2024-07-25_11h48.32.854,EPIDM,2023.1.2,None,
4536.jpg,2280.jpg,4 Points,4 Points,552 Points,PS1_L10.csv,,,,,,,,,,,,,,,,,,,,,,,,,,,,,0,9,9,9,0,4,4,4,,,,,,,,,,,,,,,,,,,1991.1788411659654,,q,1.4221133750397712,1992.6727732080035,,,,,,270448,A,2024-07-25_11h48.32.854,EPIDM,2023.1.2,None,
6241.jpg,9561.jpg,3 Points,3 Points,555 Points,PS1_L10.csv,,,,,,,,,,,,,,,,,,,,,,,,,,,,,0,9,9,9,0,5,5,5,,,,,,,,,,,,,,,,,,,1996.9160163749475,,p,2.02795279212296,1999.0248390829656,,,,,,270448,A,2024-07-25_11h48.32.854,EPIDM,2023.1.2,None,
1942.jpg,2890.jpg,1 Points,1 Points,556 Points,PS1_L10.csv,,,,,,,,,,,,,,,,,,,,,,,,,,,,,0,9,9,9,0,6,6,6,,,,,,,,,,,,,,,,,,,2003.2579011250054,,p,2.2460927090141922,2005.576603165944,,,,,,270448,A,2024-07-25_11h48.32.854,EPIDM,2023.1.2,None,
6020.jpg,6300.jpg,2 Points,2 Points,558 Points,PS1_L10.csv,,,,,,,,,,,,,,,,,,,,,,,,,,,,,0,9,9,9,0,7,7,7,,,,,,,,,,,,,,,,,,,2009.8120433749864,,q,1.3184935421450064,2011.192287582904,,,,,,270448,A,2024-07-25_11h48.32.854,EPIDM,2023.1.2,None,
7170.jpg,2170.jpg,2 Points,2 Points,560 Points,PS1_L10.csv,,,,,,,,,,,,,,,,,,,,,,,,,,,,,0,9,9,9,0,8,8,8,,,,,,,,,,,,,,,,,,,2015.4354777499102,,p,1.3558999170782045,2016.8637933329446,,,,,,270448,A,2024-07-25_11h48.32.854,EPIDM,2023.1.2,None,
5510.jpg,2514.jpg,5 Points,5 Points,565 Points,PS1_L10.csv,,,,,,,,,,,,,,,,,,,,,,,,,,,,,0,9,9,9,0,9,9,9,,,,,,,,,,,,,,,,,,,2021.1071789580164,,p,2.483251624973491,2023.6704188749427,,,,,,270448,A,2024-07-25_11h48.32.854,EPIDM,2023.1.2,None,
6840.jpg,3080.jpg,1 Points,1 Points,566 Points,PS1_L10.csv,,,,,,,,,,,,,,,,,,,,,,,,,,,,,0,9,9,9,0,10,10,10,,,,,,,,,,,,,,,,,,,2027.9068267080002,,q,2.3732461670879275,2030.3439770829864,,,,,,270448,A,2024-07-25_11h48.32.854,EPIDM,2023.1.2,None,
7195.jpg,2487.jpg,2 Points,2 Points,568 Points,PS1_L10.csv,,,,,,,,,,,,,,,,,,,,,,,,,,,,,0,9,9,9,0,11,11,11,,,,,,,,,,,,,,,,,,,2034.5884368330007,,q,1.5553654170362279,2036.2091891249875,,,,,,270448,A,2024-07-25_11h48.32.854,EPIDM,2023.1.2,None,
5971.jpg,9912.jpg,5 Points,5 Points,573 Points,PS1_L10.csv,,,,,,,,,,,,,,,,,,,,,,,,,,,,,0,9,9,9,0,12,12,12,,,,,,,,,,,,,,,,,,,2040.451562040951,,q,2.067163208965212,2042.5757996659959,,,,,,270448,A,2024-07-25_11h48.32.854,EPIDM,2023.1.2,None,
2520.jpg,8503.jpg,2 Points,2 Points,575 Points,PS1_L10.csv,,,,,,,,,,,,,,,,,,,,,,,,,,,,,0,9,9,9,0,13,13,13,,,,,,,,,,,,,,,,,,,2046.8309503749479,,p,0.871241084067151,2047.7827729579294,2,1.16787291795481,,,,270448,A,2024-07-25_11h48.32.854,EPIDM,2023.1.2,None,
5480.jpg,8200.jpg,4 Points,4 Points,579 Points,PS1_L10.csv,,,,,,,,,,,,,,,,,,,,,,,,,,,,,0,9,9,9,0,14,14,14,,,,,,,,,,,,,,,,,,,2053.2780613749055,,q,2.136506626033224,2055.4923201659694,,,,,,270448,A,2024-07-25_11h48.32.854,EPIDM,2023.1.2,None,
6370.jpg,1270.jpg,4 Points,4 Points,583 Points,PS1_L10.csv,,,,,,,,,,,,,,,,,,,,,,,,,,,,,0,9,9,9,0,15,15,15,,,,,,,,,,,,,,,,,,,2059.721214707941,,q,1.6851534589659423,2061.4867968329927,,,,,,270448,A,2024-07-25_11h48.32.854,EPIDM,2023.1.2,None,
5130.jpg,1810.jpg,3 Points,3 Points,586 Points,PS1_L10.csv,,,,,,,,,,,,,,,,,,,,,,,,,,,,,0,9,9,9,0,16,16,16,,,,,,,,,,,,,,,,,,,2065.7305104999105,,p,1.8754700011340901,2067.6844680409413,,,,,,270448,A,2024-07-25_11h48.32.854,EPIDM,2023.1.2,None,
4250.jpg,7060.jpg,5 Points,5 Points,591 Points,PS1_L10.csv,,,,,,,,,,,,,,,,,,,,,,,,,,,,,0,9,9,9,0,17,17,17,,,,,,,,,,,,,,,,,,,2071.91379154101,,q,1.2601348761236295,2073.2584947500145,,,,,,270448,A,2024-07-25_11h48.32.854,EPIDM,2023.1.2,None,
9373.jpg,9410.jpg,0 Points,0 Points,591 Points,PS1_L10.csv,,,,,,,,,,,,,,,,,,,,,,,,,,,,,0,9,9,9,0,18,18,18,,,,,,,,,,,,,,,,,,,2077.4874398329994,,p,1.9657013760879636,2079.533730582916,,,,,,270448,A,2024-07-25_11h48.32.854,EPIDM,2023.1.2,None,
2221.jpg,2270.jpg,2 Points,2 Points,593 Points,PS1_L10.csv,,,,,,,,,,,,,,,,,,,,,,,,,,,,,0,9,9,9,0,19,19,19,,,,,,,,,,,,,,,,,,,2083.7798455000157,,q,2.593317542108707,2086.4358791249106,,,,,,270448,A,2024-07-25_11h48.32.854,EPIDM,2023.1.2,None,
1650.jpg,2130.jpg,1 Points,1 Points,594 Points,PS1_L10.csv,,,,,,,,,,,,,,,,,,,,,,,,,,,,,0,9,9,9,0,20,20,20,,,,,,,,,,,,,,,,,,,2090.692898749956,,p,1.60072583402507,2092.3650349579984,,,,,,270448,A,2024-07-25_11h48.32.854,EPIDM,2023.1.2,None,
1280.jpg,9402.jpg,2 Points,2 Points,596 Points,PS1_L10.csv,,,,,,,,,,,,,,,,,,,,,,,,,,,,,0,9,9,9,0,21,21,21,,,,,,,,,,,,,,,,,,,2096.6095727909124,,p,2.6445143750170246,2099.3219287499087,,,,,,270448,A,2024-07-25_11h48.32.854,EPIDM,2023.1.2,None,
2214.jpg,4500.jpg,3 Points,3 Points,599 Points,PS1_L10.csv,,,,,,,,,,,,,,,,,,,,,,,,,,,,,0,9,9,9,0,22,22,22,,,,,,,,,,,,,,,,,,,2103.566730832914,,q,2.3661969170207158,2106.0081774999853,,,,,,270448,A,2024-07-25_11h48.32.854,EPIDM,2023.1.2,None,
7284.jpg,8021.jpg,4 Points,4 Points,603 Points,PS1_L10.csv,,,,,,,,,,,,,,,,,,,,,,,,,,,,,0,9,9,9,0,23,23,23,,,,,,,,,,,,,,,,,,,2110.247167708003,,p,2.3101535430178046,2112.6281489999965,,,2123.098605999956,space,10.553775084088556,270448,A,2024-07-25_11h48.32.854,EPIDM,2023.1.2,None,
