L_Scene,R_Scene,Points_L,Points_R,PtTotal,blockFile,Instructions_Loop.thisRepN,Instructions_Loop.thisTrialN,Instructions_Loop.thisN,Instructions_Loop.thisIndex,Redo_Instructions_Loop.thisRepN,Redo_Instructions_Loop.thisTrialN,Redo_Instructions_Loop.thisN,Redo_Instructions_Loop.thisIndex,Practice_Encoding_Loop.thisRepN,Practice_Encoding_Loop.thisTrialN,Practice_Encoding_Loop.thisN,Practice_Encoding_Loop.thisIndex,Practice_Response_Fail_Loop.thisRepN,Practice_Response_Fail_Loop.thisTrialN,Practice_Response_Fail_Loop.thisN,Practice_Response_Fail_Loop.thisIndex,Practice_FB_Loop.thisRepN,Practice_FB_Loop.thisTrialN,Practice_FB_Loop.thisN,Practice_FB_Loop.thisIndex,Practice_Attention_Loop.thisRepN,Practice_Attention_Loop.thisTrialN,Practice_Attention_Loop.thisN,Practice_Attention_Loop.thisIndex,Practice_EncBrk_Loop.thisRepN,Practice_EncBrk_Loop.thisTrialN,Practice_EncBrk_Loop.thisN,Practice_EncBrk_Loop.thisIndex,Encoding_Loop.thisRepN,Encoding_Loop.thisTrialN,Encoding_Loop.thisN,Encoding_Loop.thisIndex,EncStim_Loop.thisRepN,EncStim_Loop.thisTrialN,EncStim_Loop.thisN,EncStim_Loop.thisIndex,Response_Fail_Loop.thisRepN,Response_Fail_Loop.thisTrialN,Response_Fail_Loop.thisN,Response_Fail_Loop.thisIndex,FB_Loop.thisRepN,FB_Loop.thisTrialN,FB_Loop.thisN,FB_Loop.thisIndex,Attention_Loop.thisRepN,Attention_Loop.thisTrialN,Attention_Loop.thisN,Attention_Loop.thisIndex,EncBrk_Loop.thisRepN,EncBrk_Loop.thisTrialN,EncBrk_Loop.thisN,EncBrk_Loop.thisIndex,Transition_Enc.keys,Transition_Enc.rt,Encoding_Resp.started,Encoding_Resp.keys,Encoding_Resp.rt,R_Point_FB_Stim.started,Attn_resp.keys,Attn_resp.rt,Encoding_Resp.stopped,Progress_Tracker.started,EncBrk_Resp.keys,EncBrk_Resp.rt,participant,Group,date,expName,psychopyVersion,frameRate,
,,,,,,,,,,,,,,,,,,,,,,,,,,,,,,,,,,,,,,,,,,,,,,,,,,,,,,,,,,space,4.111681916001544,,,,,,,,,,,52,A,2025-01-18_08h59.47.191,EPIDM,2023.1.2,None,
A060.jpg,F041.jpg,5 Points,5 Points,5 Points,,,,,,,,,,0,0,0,0,,,,,,,,,,,,,,,,,,,,,,,,,,,,,,,,,,,,,,,,,,,208.40892087500106,q,3.0672499170032097,211.62664866699924,,,,,,,52,A,2025-01-18_08h59.47.191,EPIDM,2023.1.2,None,
O161.jpg,1812.jpg,2 Points,2 Points,7 Points,,,,,,,,,,0,1,1,1,,,,,,,,,,,,,,,,,,,,,,,,,,,,,,,,,,,,,,,,,,,215.79113745900395,p,2.461513123998884,218.38959991699812,,,,,,,52,A,2025-01-18_08h59.47.191,EPIDM,2023.1.2,None,
O013.jpg,A001.jpg,3 Points,3 Points,10 Points,,,,,,,,,,0,2,2,2,,,,,,,,,,,,,,,,,,,,,,,,,,,,,,,,,,,,,,,,,,,222.56481429200358,p,3.1042572500009555,225.83927595899877,,,,,,,52,A,2025-01-18_08h59.47.191,EPIDM,2023.1.2,None,
P036.jpg,F273.jpg,5 Points,5 Points,15 Points,,,,,,,,,,0,3,3,3,,,,,,,,,,,,,,,,,,,,,,,,,,,,,,,,,,,,,,,,,,,229.9792577499975,q,3.008635458005301,233.15035820900084,,,,,,,52,A,2025-01-18_08h59.47.191,EPIDM,2023.1.2,None,
L130.jpg,2393.jpg,0 Points,0 Points,15 Points,,,,,,,,,,0,4,4,4,,,,,,,,,,,,,,,,,,,,,,,,,,,,,,,,,,,,,,,,,,,237.29914100000315,p,2.3360074990050634,239.77871016700374,0,3.420242332998896,,,,,52,A,2025-01-18_08h59.47.191,EPIDM,2023.1.2,None,
F279.jpg,P033.jpg,3 Points,3 Points,18 Points,,,,,,,,,,0,5,5,5,,,,,,,,,,,,,,,,,,,,,,,,,,,,,,,,,,,,,,,,,,,247.48119825000322,p,2.4267870410039905,250.08448033400055,,,,,,,52,A,2025-01-18_08h59.47.191,EPIDM,2023.1.2,None,
A104.jpg,2593.jpg,2 Points,2 Points,20 Points,,,,,,,,,,0,6,6,6,,,,,,,,,,,,,,,,,,,,,,,,,,,,,,,,,,,,,,,,,,,254.23297995900066,q,1.8022016670001904,256.17653216700273,,,,,,,52,A,2025-01-18_08h59.47.191,EPIDM,2023.1.2,None,
2598.jpg,2605.jpg,0 Points,0 Points,20 Points,,,,,,,,,,0,7,7,7,,,,,,,,,,,,,,,,,,,,,,,,,,,,,,,,,,,,,,,,,,,260.3525603340022,None,,,,,264.0600523750036,,,,52,A,2025-01-18_08h59.47.191,EPIDM,2023.1.2,None,
L005.jpg,O011.jpg,1 Points,1 Points,21 Points,,,,,,,,,,0,8,8,8,,,,,,,,,,,,,,,,,,,,,,,,,,,,,,,,,,,,,,,,,,,267.8652457920034,p,0.9305461240001023,268.9636198340013,,,,,,,52,A,2025-01-18_08h59.47.191,EPIDM,2023.1.2,None,
8186.jpg,F078.jpg,2 Points,2 Points,23 Points,,,,,,,,,,0,9,9,9,,,,,,,,,,,,,,,,,,,,,,,,,,,,,,,,,,,,,,,,,,,273.1112366669986,q,1.092527542001335,274.3345406669978,1,2.312093915999867,,286.9238233340002,space,14.544004957999277,52,A,2025-01-18_08h59.47.191,EPIDM,2023.1.2,None,
,,,,,,,,,,,,,,,,,,,,,,,,,,,,,,,,,,,,,,,,,,,,,,,,,,,,,,,,,,space,2.723143707997224,,,,,,,,,,,52,A,2025-01-18_08h59.47.191,EPIDM,2023.1.2,None,
1019.jpg,2120.jpg,0 Points,0 Points,0 Points,PS1_L1.csv,,,,,,,,,,,,,,,,,,,,,,,,,,,,,0,0,0,0,0,0,0,0,,,,,,,,,,,,,,,,,,,315.4494719170034,p,1.7767577080012416,317.293912000001,,,,,,,52,A,2025-01-18_08h59.47.191,EPIDM,2023.1.2,None,
6900.jpg,8531.jpg,4 Points,4 Points,4 Points,PS1_L1.csv,,,,,,,,,,,,,,,,,,,,,,,,,,,,,0,0,0,0,0,1,1,1,,,,,,,,,,,,,,,,,,,321.5370482500002,q,0.9932727920022444,322.57820450000145,4,1.9725798750005197,,,,,52,A,2025-01-18_08h59.47.191,EPIDM,2023.1.2,None,
5594.jpg,5750.jpg,5 Points,5 Points,9 Points,PS1_L1.csv,,,,,,,,,,,,,,,,,,,,,,,,,,,,,0,0,0,0,0,2,2,2,,,,,,,,,,,,,,,,,,,328.8627563339978,q,1.0121813329969882,329.95197375000134,,,,,,,52,A,2025-01-18_08h59.47.191,EPIDM,2023.1.2,None,
2205.jpg,3053.jpg,4 Points,4 Points,13 Points,PS1_L1.csv,,,,,,,,,,,,,,,,,,,,,,,,,,,,,0,0,0,0,0,3,3,3,,,,,,,,,,,,,,,,,,,334.18405808399984,p,1.4986561660043662,335.72428470900195,,,,,,,52,A,2025-01-18_08h59.47.191,EPIDM,2023.1.2,None,
3250.jpg,A053.jpg,3 Points,3 Points,16 Points,PS1_L1.csv,,,,,,,,,,,,,,,,,,,,,,,,,,,,,0,0,0,0,0,4,4,4,,,,,,,,,,,,,,,,,,,339.99956312499853,q,0.6741639160027262,340.77565370900265,,,,,,,52,A,2025-01-18_08h59.47.191,EPIDM,2023.1.2,None,
7950.jpg,7187.jpg,1 Point,1 Point,17 Points,PS1_L1.csv,,,,,,,,,,,,,,,,,,,,,,,,,,,,,0,0,0,0,0,5,5,5,,,,,,,,,,,,,,,,,,,345.0139350419995,q,0.8439462079986697,345.95278574999975,,,,,,,52,A,2025-01-18_08h59.47.191,EPIDM,2023.1.2,None,
5535.jpg,8210.jpg,3 Points,3 Points,20 Points,PS1_L1.csv,,,,,,,,,,,,,,,,,,,,,,,,,,,,,0,0,0,0,0,6,6,6,,,,,,,,,,,,,,,,,,,350.15830266699777,q,1.2921072499957518,351.51936512500106,,,,,,,52,A,2025-01-18_08h59.47.191,EPIDM,2023.1.2,None,
9001.jpg,9620.jpg,1 Point,1 Point,21 Points,PS1_L1.csv,,,,,,,,,,,,,,,,,,,,,,,,,,,,,0,0,0,0,0,7,7,7,,,,,,,,,,,,,,,,,,,355.7617030420006,p,0.783890999002324,356.6170091669992,,,,,,,52,A,2025-01-18_08h59.47.191,EPIDM,2023.1.2,None,
1110.jpg,9331.jpg,2 Points,2 Points,23 Points,PS1_L1.csv,,,,,,,,,,,,,,,,,,,,,,,,,,,,,0,0,0,0,0,8,8,8,,,,,,,,,,,,,,,,,,,360.85823787499976,q,0.7911571660006302,361.7284289169984,,,,,,,52,A,2025-01-18_08h59.47.191,EPIDM,2023.1.2,None,
7820.jpg,1121.jpg,0 Points,0 Points,23 Points,PS1_L1.csv,,,,,,,,,,,,,,,,,,,,,,,,,,,,,0,0,0,0,0,9,9,9,,,,,,,,,,,,,,,,,,,365.96428087499953,q,1.1251888750048238,367.15758479200304,,,,,,,52,A,2025-01-18_08h59.47.191,EPIDM,2023.1.2,None,
7186.jpg,9182.jpg,2 Points,2 Points,25 Points,PS1_L1.csv,,,,,,,,,,,,,,,,,,,,,,,,,,,,,0,0,0,0,0,10,10,10,,,,,,,,,,,,,,,,,,,371.39982187499845,p,0.6904247499987832,372.1721381669995,,,,,,,52,A,2025-01-18_08h59.47.191,EPIDM,2023.1.2,None,
9280.jpg,9390.jpg,1 Point,1 Point,26 Points,PS1_L1.csv,,,,,,,,,,,,,,,,,,,,,,,,,,,,,0,0,0,0,0,11,11,11,,,,,,,,,,,,,,,,,,,376.4056121670001,q,1.243891749996692,377.7265142920005,,,,,,,52,A,2025-01-18_08h59.47.191,EPIDM,2023.1.2,None,
2440.jpg,7351.jpg,4 Points,4 Points,30 Points,PS1_L1.csv,,,,,,,,,,,,,,,,,,,,,,,,,,,,,0,0,0,0,0,12,12,12,,,,,,,,,,,,,,,,,,,381.954597584001,p,1.3428416250026203,383.36562183400383,,,,,,,52,A,2025-01-18_08h59.47.191,EPIDM,2023.1.2,None,
6834.jpg,9120.jpg,5 Points,5 Points,35 Points,PS1_L1.csv,,,,,,,,,,,,,,,,,,,,,,,,,,,,,0,0,0,0,0,13,13,13,,,,,,,,,,,,,,,,,,,387.60356712499924,p,1.2856338750061695,388.95129645900306,5,1.370349917000567,,,,,52,A,2025-01-18_08h59.47.191,EPIDM,2023.1.2,None,
9230.jpg,9181.jpg,0 Points,0 Points,35 Points,PS1_L1.csv,,,,,,,,,,,,,,,,,,,,,,,,,,,,,0,0,0,0,0,14,14,14,,,,,,,,,,,,,,,,,,,394.6469866249972,q,1.0026452080055606,395.7020639170005,,,,,,,52,A,2025-01-18_08h59.47.191,EPIDM,2023.1.2,None,
8260.jpg,8280.jpg,3 Points,3 Points,38 Points,PS1_L1.csv,,,,,,,,,,,,,,,,,,,,,,,,,,,,,0,0,0,0,0,15,15,15,,,,,,,,,,,,,,,,,,,399.96047674999863,q,1.3133309580007335,401.3454647500039,,,,,,,52,A,2025-01-18_08h59.47.191,EPIDM,2023.1.2,None,
9470.jpg,9400.jpg,3 Points,3 Points,41 Points,PS1_L1.csv,,,,,,,,,,,,,,,,,,,,,,,,,,,,,0,0,0,0,0,16,16,16,,,,,,,,,,,,,,,,,,,405.5914802920015,p,0.6652935829988564,406.3138742500014,,,,,,,52,A,2025-01-18_08h59.47.191,EPIDM,2023.1.2,None,
2616.jpg,7238.jpg,4 Points,4 Points,45 Points,PS1_L1.csv,,,,,,,,,,,,,,,,,,,,,,,,,,,,,0,0,0,0,0,17,17,17,,,,,,,,,,,,,,,,,,,410.5567937500018,p,1.020837208001467,411.64593108400004,,,,,,,52,A,2025-01-18_08h59.47.191,EPIDM,2023.1.2,None,
9430.jpg,3010.jpg,5 Points,5 Points,50 Points,PS1_L1.csv,,,,,,,,,,,,,,,,,,,,,,,,,,,,,0,0,0,0,0,18,18,18,,,,,,,,,,,,,,,,,,,415.88619004200154,p,0.9466561660010484,416.89841375000105,,,,,,,52,A,2025-01-18_08h59.47.191,EPIDM,2023.1.2,None,
1661.jpg,1321.jpg,3 Points,3 Points,53 Points,PS1_L1.csv,,,,,,,,,,,,,,,,,,,,,,,,,,,,,0,0,0,0,0,19,19,19,,,,,,,,,,,,,,,,,,,421.15824983399943,p,0.8103271660074824,422.02023737499985,,,,,,,52,A,2025-01-18_08h59.47.191,EPIDM,2023.1.2,None,
8041.jpg,2271.jpg,2 Points,2 Points,55 Points,PS1_L1.csv,,,,,,,,,,,,,,,,,,,,,,,,,,,,,0,0,0,0,0,20,20,20,,,,,,,,,,,,,,,,,,,426.26693362500373,p,0.7896811660029925,427.1233032090022,,,,,,,52,A,2025-01-18_08h59.47.191,EPIDM,2023.1.2,None,
9180.jpg,9046.jpg,3 Points,3 Points,58 Points,PS1_L1.csv,,,,,,,,,,,,,,,,,,,,,,,,,,,,,0,0,0,0,0,21,21,21,,,,,,,,,,,,,,,,,,,431.37021816700144,p,1.1173321249953005,432.5562509590018,,,,,,,52,A,2025-01-18_08h59.47.191,EPIDM,2023.1.2,None,
2691.jpg,7640.jpg,0 Points,0 Points,58 Points,PS1_L1.csv,,,,,,,,,,,,,,,,,,,,,,,,,,,,,0,0,0,0,0,22,22,22,,,,,,,,,,,,,,,,,,,436.79710508399876,p,1.0912124580063391,437.94667850000405,,,,,,,52,A,2025-01-18_08h59.47.191,EPIDM,2023.1.2,None,
1660.jpg,2840.jpg,2 Points,2 Points,60 Points,PS1_L1.csv,,,,,,,,,,,,,,,,,,,,,,,,,,,,,0,0,0,0,0,23,23,23,,,,,,,,,,,,,,,,,,,442.1930235839973,q,0.9999757909972686,443.25668329199834,,,,453.7036981670026,space,3.624784207997436,52,A,2025-01-18_08h59.47.191,EPIDM,2023.1.2,None,
9480.jpg,9250.jpg,0 Points,0 Points,60 Points,PS1_L2.csv,,,,,,,,,,,,,,,,,,,,,,,,,,,,,0,1,1,1,0,0,0,0,,,,,,,,,,,,,,,,,,,460.62675124999805,q,0.8049472080019768,461.490031334004,,,,,,,52,A,2025-01-18_08h59.47.191,EPIDM,2023.1.2,None,
9910.jpg,6940.jpg,2 Points,2 Points,62 Points,PS1_L2.csv,,,,,,,,,,,,,,,,,,,,,,,,,,,,,0,1,1,1,0,1,1,1,,,,,,,,,,,,,,,,,,,465.7402157920005,p,1.4035547079984099,467.20588112500263,2,1.2318648329965072,,,,,52,A,2025-01-18_08h59.47.191,EPIDM,2023.1.2,None,
4535.jpg,1811.jpg,1 Point,1 Point,63 Points,PS1_L2.csv,,,,,,,,,,,,,,,,,,,,,,,,,,,,,0,1,1,1,0,2,2,2,,,,,,,,,,,,,,,,,,,472.74850479199813,p,1.018520500001614,473.8448547500011,,,,,,,52,A,2025-01-18_08h59.47.191,EPIDM,2023.1.2,None,
2020.jpg,1947.jpg,5 Points,5 Points,68 Points,PS1_L2.csv,,,,,,,,,,,,,,,,,,,,,,,,,,,,,0,1,1,1,0,3,3,3,,,,,,,,,,,,,,,,,,,478.08582120900246,p,1.6980635830041138,479.86129704199993,,,,,,,52,A,2025-01-18_08h59.47.191,EPIDM,2023.1.2,None,
9160.jpg,1200.jpg,4 Points,4 Points,72 Points,PS1_L2.csv,,,,,,,,,,,,,,,,,,,,,,,,,,,,,0,1,1,1,0,4,4,4,,,,,,,,,,,,,,,,,,,484.10852712499764,p,1.050789665998309,485.2401652920016,,,,,,,52,A,2025-01-18_08h59.47.191,EPIDM,2023.1.2,None,
9520.jpg,1931.jpg,3 Points,3 Points,75 Points,PS1_L2.csv,,,,,,,,,,,,,,,,,,,,,,,,,,,,,0,1,1,1,0,5,5,5,,,,,,,,,,,,,,,,,,,489.4754270839985,p,1.02012441700208,490.55862224999873,,,,,,,52,A,2025-01-18_08h59.47.191,EPIDM,2023.1.2,None,
7830.jpg,2499.jpg,3 Points,3 Points,78 Points,PS1_L2.csv,,,,,,,,,,,,,,,,,,,,,,,,,,,,,0,1,1,1,0,6,6,6,,,,,,,,,,,,,,,,,,,494.81162283400045,q,1.1322371249989374,496.0057698340024,,,,,,,52,A,2025-01-18_08h59.47.191,EPIDM,2023.1.2,None,
6830.jpg,6212.jpg,4 Points,4 Points,82 Points,PS1_L2.csv,,,,,,,,,,,,,,,,,,,,,,,,,,,,,0,1,1,1,0,7,7,7,,,,,,,,,,,,,,,,,,,500.2567086249983,p,1.814334875001805,502.1427842089979,,,,,,,52,A,2025-01-18_08h59.47.191,EPIDM,2023.1.2,None,
7285.jpg,4233.jpg,5 Points,5 Points,87 Points,PS1_L2.csv,,,,,,,,,,,,,,,,,,,,,,,,,,,,,0,1,1,1,0,8,8,8,,,,,,,,,,,,,,,,,,,506.3945422500037,q,1.2445177920017159,507.7103099590022,,,,,,,52,A,2025-01-18_08h59.47.191,EPIDM,2023.1.2,None,
1740.jpg,7480.jpg,0 Points,0 Points,87 Points,PS1_L2.csv,,,,,,,,,,,,,,,,,,,,,,,,,,,,,0,1,1,1,0,9,9,9,,,,,,,,,,,,,,,,,,,511.9452856249991,p,1.9740782910012058,513.990400667004,,,,,,,52,A,2025-01-18_08h59.47.191,EPIDM,2023.1.2,None,
7380.jpg,1220.jpg,1 Point,1 Point,88 Points,PS1_L2.csv,,,,,,,,,,,,,,,,,,,,,,,,,,,,,0,1,1,1,0,10,10,10,,,,,,,,,,,,,,,,,,,518.2216836250009,p,1.403713500003505,519.6917075419988,,,,,,,52,A,2025-01-18_08h59.47.191,EPIDM,2023.1.2,None,
3061.jpg,2717.jpg,4 Points,4 Points,92 Points,PS1_L2.csv,,,,,,,,,,,,,,,,,,,,,,,,,,,,,0,1,1,1,0,11,11,11,,,,,,,,,,,,,,,,,,,523.9475401669988,q,0.7472717909986386,524.7587554170022,,,,,,,52,A,2025-01-18_08h59.47.191,EPIDM,2023.1.2,None,
5460.jpg,5800.jpg,0 Points,0 Points,92 Points,PS1_L2.csv,,,,,,,,,,,,,,,,,,,,,,,,,,,,,0,1,1,1,0,12,12,12,,,,,,,,,,,,,,,,,,,529.0173372499994,p,1.701720707998902,530.7927662090005,,,,,,,52,A,2025-01-18_08h59.47.191,EPIDM,2023.1.2,None,
2215.jpg,2512.jpg,1 Point,1 Point,93 Points,PS1_L2.csv,,,,,,,,,,,,,,,,,,,,,,,,,,,,,0,1,1,1,0,13,13,13,,,,,,,,,,,,,,,,,,,535.0283663750015,q,1.3797449160047108,536.4900917920022,1,1.2289480000035837,,,,,52,A,2025-01-18_08h59.47.191,EPIDM,2023.1.2,None,
3000.jpg,6200.jpg,5 Points,5 Points,98 Points,PS1_L2.csv,,,,,,,,,,,,,,,,,,,,,,,,,,,,,0,1,1,1,0,14,14,14,,,,,,,,,,,,,,,,,,,542.0274573749994,q,0.6264789170018048,542.7275761249984,,,,,,,52,A,2025-01-18_08h59.47.191,EPIDM,2023.1.2,None,
1945.jpg,2800.jpg,4 Points,4 Points,102 Points,PS1_L2.csv,,,,,,,,,,,,,,,,,,,,,,,,,,,,,0,1,1,1,0,15,15,15,,,,,,,,,,,,,,,,,,,546.9771157499999,q,1.5417445829953067,548.5990053339992,,,,,,,52,A,2025-01-18_08h59.47.191,EPIDM,2023.1.2,None,
5660.jpg,5201.jpg,0 Points,0 Points,102 Points,PS1_L2.csv,,,,,,,,,,,,,,,,,,,,,,,,,,,,,0,1,1,1,0,16,16,16,,,,,,,,,,,,,,,,,,,552.8348462499998,q,1.2353415410034359,554.1373283339999,,,,,,,52,A,2025-01-18_08h59.47.191,EPIDM,2023.1.2,None,
3266.jpg,7360.jpg,1 Point,1 Point,103 Points,PS1_L2.csv,,,,,,,,,,,,,,,,,,,,,,,,,,,,,0,1,1,1,0,17,17,17,,,,,,,,,,,,,,,,,,,558.3739806669982,q,1.2086360000030254,559.6468937919999,,,,,,,52,A,2025-01-18_08h59.47.191,EPIDM,2023.1.2,None,
F149.jpg,3030.jpg,0 Points,0 Points,103 Points,PS1_L2.csv,,,,,,,,,,,,,,,,,,,,,,,,,,,,,0,1,1,1,0,18,18,18,,,,,,,,,,,,,,,,,,,563.893653334002,p,1.0723617490075412,565.0775068340008,,,,,,,52,A,2025-01-18_08h59.47.191,EPIDM,2023.1.2,None,
5410.jpg,1450.jpg,5 Points,5 Points,108 Points,PS1_L2.csv,,,,,,,,,,,,,,,,,,,,,,,,,,,,,0,1,1,1,0,19,19,19,,,,,,,,,,,,,,,,,,,569.2861859589975,p,1.3213383330075885,570.7082797500043,,,,,,,52,A,2025-01-18_08h59.47.191,EPIDM,2023.1.2,None,
9101.jpg,9571.jpg,2 Points,2 Points,110 Points,PS1_L2.csv,,,,,,,,,,,,,,,,,,,,,,,,,,,,,0,1,1,1,0,20,20,20,,,,,,,,,,,,,,,,,,,574.9100712919972,p,0.8641601670024102,575.8346335419992,,,,,,,52,A,2025-01-18_08h59.47.191,EPIDM,2023.1.2,None,
9110.jpg,3051.jpg,1 Point,1 Point,111 Points,PS1_L2.csv,,,,,,,,,,,,,,,,,,,,,,,,,,,,,0,1,1,1,0,21,21,21,,,,,,,,,,,,,,,,,,,580.0733725419996,p,0.9639177080025547,581.1237761250013,,,,,,,52,A,2025-01-18_08h59.47.191,EPIDM,2023.1.2,None,
2100.jpg,7205.jpg,5 Points,5 Points,116 Points,PS1_L2.csv,,,,,,,,,,,,,,,,,,,,,,,,,,,,,0,1,1,1,0,22,22,22,,,,,,,,,,,,,,,,,,,585.3605481249979,q,0.9730110420059646,586.4078297090018,,,,,,,52,A,2025-01-18_08h59.47.191,EPIDM,2023.1.2,None,
3160.jpg,6210.jpg,1 Point,1 Point,117 Points,PS1_L2.csv,,,,,,,,,,,,,,,,,,,,,,,,,,,,,0,1,1,1,0,23,23,23,,,,,,,,,,,,,,,,,,,590.6393231670008,p,1.1021725829996285,591.8181454590012,,,,602.3112221670017,space,2.693110708001768,52,A,2025-01-18_08h59.47.191,EPIDM,2023.1.2,None,
7283.jpg,1720.jpg,4 Points,4 Points,121 Points,PS1_L3.csv,,,,,,,,,,,,,,,,,,,,,,,,,,,,,0,2,2,2,0,0,0,0,,,,,,,,,,,,,,,,,,,608.3186341250039,p,1.126443166001991,609.5263939170036,,,,,,,52,A,2025-01-18_08h59.47.191,EPIDM,2023.1.2,None,
6571.jpg,P237.jpg,2 Points,2 Points,123 Points,PS1_L3.csv,,,,,,,,,,,,,,,,,,,,,,,,,,,,,0,2,2,2,0,1,1,1,,,,,,,,,,,,,,,,,,,613.775019749999,p,0.8152937500053667,614.6981885420028,2,1.3543836660028319,,,,,52,A,2025-01-18_08h59.47.191,EPIDM,2023.1.2,None,
6260.jpg,3062.jpg,3 Points,3 Points,126 Points,PS1_L3.csv,,,,,,,,,,,,,,,,,,,,,,,,,,,,,0,2,2,2,0,2,2,2,,,,,,,,,,,,,,,,,,,620.3556204170018,p,0.5048254580033245,620.9226569590028,,,,,,,52,A,2025-01-18_08h59.47.191,EPIDM,2023.1.2,None,
6150.jpg,2206.jpg,0 Points,0 Points,126 Points,PS1_L3.csv,,,,,,,,,,,,,,,,,,,,,,,,,,,,,0,2,2,2,0,3,3,3,,,,,,,,,,,,,,,,,,,625.1656820839999,p,0.951490332998219,626.2006977499987,,,,,,,52,A,2025-01-18_08h59.47.191,EPIDM,2023.1.2,None,
9300.jpg,1050.jpg,4 Points,4 Points,130 Points,PS1_L3.csv,,,,,,,,,,,,,,,,,,,,,,,,,,,,,0,2,2,2,0,4,4,4,,,,,,,,,,,,,,,,,,,630.4389454589982,p,0.9735945830034325,631.4751100420035,,,,,,,52,A,2025-01-18_08h59.47.191,EPIDM,2023.1.2,None,
F365.jpg,3180.jpg,5 Points,5 Points,135 Points,PS1_L3.csv,,,,,,,,,,,,,,,,,,,,,,,,,,,,,0,2,2,2,0,5,5,5,,,,,,,,,,,,,,,,,,,635.7173715000026,q,0.6463843750025262,636.4669544589997,,,,,,,52,A,2025-01-18_08h59.47.191,EPIDM,2023.1.2,None,
2320.jpg,2791.jpg,4 Points,4 Points,139 Points,PS1_L3.csv,,,,,,,,,,,,,,,,,,,,,,,,,,,,,0,2,2,2,0,6,6,6,,,,,,,,,,,,,,,,,,,640.6753907500024,p,0.7692894159990828,641.542337167004,,,,,,,52,A,2025-01-18_08h59.47.191,EPIDM,2023.1.2,None,
8311.jpg,4609.jpg,2 Points,2 Points,141 Points,PS1_L3.csv,,,,,,,,,,,,,,,,,,,,,,,,,,,,,0,2,2,2,0,7,7,7,,,,,,,,,,,,,,,,,,,645.7572322499982,q,1.0485242499999003,646.877093791998,,,,,,,52,A,2025-01-18_08h59.47.191,EPIDM,2023.1.2,None,
9042.jpg,2753.jpg,0 Points,0 Points,141 Points,PS1_L3.csv,,,,,,,,,,,,,,,,,,,,,,,,,,,,,0,2,2,2,0,8,8,8,,,,,,,,,,,,,,,,,,,651.1184559169997,q,0.6614892080033314,651.8465941250033,,,,,,,52,A,2025-01-18_08h59.47.191,EPIDM,2023.1.2,None,
5471.jpg,7352.jpg,2 Points,2 Points,143 Points,PS1_L3.csv,,,,,,,,,,,,,,,,,,,,,,,,,,,,,0,2,2,2,0,9,9,9,,,,,,,,,,,,,,,,,,,656.0847316670042,p,0.6632104989985237,656.8152100419975,,,,,,,52,A,2025-01-18_08h59.47.191,EPIDM,2023.1.2,None,
P222.jpg,9401.jpg,2 Points,2 Points,145 Points,PS1_L3.csv,,,,,,,,,,,,,,,,,,,,,,,,,,,,,0,2,2,2,0,10,10,10,,,,,,,,,,,,,,,,,,,661.0540879170003,q,0.4051347499989788,661.5680866250041,,,,,,,52,A,2025-01-18_08h59.47.191,EPIDM,2023.1.2,None,
1610.jpg,F203.jpg,0 Points,0 Points,145 Points,PS1_L3.csv,,,,,,,,,,,,,,,,,,,,,,,,,,,,,0,2,2,2,0,11,11,11,,,,,,,,,,,,,,,,,,,665.7691322090031,q,0.9948157910039299,666.8887729999988,,,,,,,52,A,2025-01-18_08h59.47.191,EPIDM,2023.1.2,None,
9405.jpg,6250.2.jpg,3 Points,3 Points,148 Points,PS1_L3.csv,,,,,,,,,,,,,,,,,,,,,,,,,,,,,0,2,2,2,0,12,12,12,,,,,,,,,,,,,,,,,,,671.0752520419992,q,0.4804046660065069,671.6665924170011,,,,,,,52,A,2025-01-18_08h59.47.191,EPIDM,2023.1.2,None,
1090.jpg,P217.jpg,5 Points,5 Points,153 Points,PS1_L3.csv,,,,,,,,,,,,,,,,,,,,,,,,,,,,,0,2,2,2,0,13,13,13,,,,,,,,,,,,,,,,,,,675.8726206670035,p,0.5630663330084644,676.5509240419997,5,1.2582723329978762,,,,,52,A,2025-01-18_08h59.47.191,EPIDM,2023.1.2,None,
P233.jpg,3060.jpg,1 Point,1 Point,154 Points,PS1_L3.csv,,,,,,,,,,,,,,,,,,,,,,,,,,,,,0,2,2,2,0,14,14,14,,,,,,,,,,,,,,,,,,,682.1163521670023,p,1.1517212920007296,683.3818413339977,,,,,,,52,A,2025-01-18_08h59.47.191,EPIDM,2023.1.2,None,
8040.jpg,7185.jpg,1 Point,1 Point,155 Points,PS1_L3.csv,,,,,,,,,,,,,,,,,,,,,,,,,,,,,0,2,2,2,0,15,15,15,,,,,,,,,,,,,,,,,,,687.5804029589999,q,1.7267655830000876,689.3881182499972,,,,,,,52,A,2025-01-18_08h59.47.191,EPIDM,2023.1.2,None,
6550.jpg,9582.jpg,5 Points,5 Points,160 Points,PS1_L3.csv,,,,,,,,,,,,,,,,,,,,,,,,,,,,,0,2,2,2,0,16,16,16,,,,,,,,,,,,,,,,,,,693.6244339170007,q,0.9707888740013004,694.6662327919985,,,,,,,52,A,2025-01-18_08h59.47.191,EPIDM,2023.1.2,None,
P077.jpg,A041.jpg,1 Point,1 Point,161 Points,PS1_L3.csv,,,,,,,,,,,,,,,,,,,,,,,,,,,,,0,2,2,2,0,17,17,17,,,,,,,,,,,,,,,,,,,698.9000440419986,q,0.7580322079957114,699.8039169589974,,,,,,,52,A,2025-01-18_08h59.47.191,EPIDM,2023.1.2,None,
4770.jpg,4275.jpg,3 Points,3 Points,164 Points,PS1_L3.csv,,,,,,,,,,,,,,,,,,,,,,,,,,,,,0,2,2,2,0,18,18,18,,,,,,,,,,,,,,,,,,,703.9900189170003,p,0.8448974580023787,704.9541475840015,,,,,,,52,A,2025-01-18_08h59.47.191,EPIDM,2023.1.2,None,
9594.jpg,1080.jpg,4 Points,4 Points,168 Points,PS1_L3.csv,,,,,,,,,,,,,,,,,,,,,,,,,,,,,0,2,2,2,0,19,19,19,,,,,,,,,,,,,,,,,,,709.150876959,p,0.9565401250001742,710.1825769170027,,,,,,,52,A,2025-01-18_08h59.47.191,EPIDM,2023.1.2,None,
2606.jpg,2480.jpg,1 Point,1 Point,169 Points,PS1_L3.csv,,,,,,,,,,,,,,,,,,,,,,,,,,,,,0,2,2,2,0,20,20,20,,,,,,,,,,,,,,,,,,,714.4232057089976,p,0.8110330830022576,715.3042101669998,,,,,,,52,A,2025-01-18_08h59.47.191,EPIDM,2023.1.2,None,
1052.jpg,1201.jpg,3 Points,3 Points,172 Points,PS1_L3.csv,,,,,,,,,,,,,,,,,,,,,,,,,,,,,0,2,2,2,0,21,21,21,,,,,,,,,,,,,,,,,,,719.5510563339994,p,0.667564333001792,720.2793147089978,,,,,,,52,A,2025-01-18_08h59.47.191,EPIDM,2023.1.2,None,
F369.jpg,3100.jpg,2 Points,2 Points,174 Points,PS1_L3.csv,,,,,,,,,,,,,,,,,,,,,,,,,,,,,0,2,2,2,0,22,22,22,,,,,,,,,,,,,,,,,,,724.5216427089981,p,0.4563857500033919,725.0783704170026,,,,,,,52,A,2025-01-18_08h59.47.191,EPIDM,2023.1.2,None,
2620.jpg,2594.jpg,0 Points,0 Points,174 Points,PS1_L3.csv,,,,,,,,,,,,,,,,,,,,,,,,,,,,,0,2,2,2,0,23,23,23,,,,,,,,,,,,,,,,,,,729.2966062089981,q,0.9296805000049062,730.2854896670033,,,,740.7635504589998,space,0.9262433330004569,52,A,2025-01-18_08h59.47.191,EPIDM,2023.1.2,None,
P019.jpg,F158.jpg,3 Points,3 Points,177 Points,PS1_L4.csv,,,,,,,,,,,,,,,,,,,,,,,,,,,,,0,3,3,3,0,0,0,0,,,,,,,,,,,,,,,,,,,744.9923895840038,q,0.5450334580018534,745.6798815840011,,,,,,,52,A,2025-01-18_08h59.47.191,EPIDM,2023.1.2,None,
7620.jpg,5395.jpg,1 Point,1 Point,178 Points,PS1_L4.csv,,,,,,,,,,,,,,,,,,,,,,,,,,,,,0,3,3,3,0,1,1,1,,,,,,,,,,,,,,,,,,,749.8516987920011,p,0.9419801249969169,750.9042438340039,1,1.1147890830034157,,,,,52,A,2025-01-18_08h59.47.191,EPIDM,2023.1.2,None,
5970.jpg,3300.jpg,0 Points,0 Points,178 Points,PS1_L4.csv,,,,,,,,,,,,,,,,,,,,,,,,,,,,,0,3,3,3,0,2,2,2,,,,,,,,,,,,,,,,,,,756.2926678750009,p,0.8934874170008698,757.257047250001,,,,,,,52,A,2025-01-18_08h59.47.191,EPIDM,2023.1.2,None,
5120.jpg,5520.jpg,2 Points,2 Points,180 Points,PS1_L4.csv,,,,,,,,,,,,,,,,,,,,,,,,,,,,,0,3,3,3,0,3,3,3,,,,,,,,,,,,,,,,,,,761.5035113339982,p,0.49016587400546996,762.0627620419982,,,,,,,52,A,2025-01-18_08h59.47.191,EPIDM,2023.1.2,None,
9452.jpg,7184.jpg,4 Points,4 Points,184 Points,PS1_L4.csv,,,,,,,,,,,,,,,,,,,,,,,,,,,,,0,3,3,3,0,4,4,4,,,,,,,,,,,,,,,,,,,766.3040970000002,q,1.1453152079993743,767.5227571670039,,,,,,,52,A,2025-01-18_08h59.47.191,EPIDM,2023.1.2,None,
6570.1.jpg,9432.jpg,5 Points,5 Points,189 Points,PS1_L4.csv,,,,,,,,,,,,,,,,,,,,,,,,,,,,,0,3,3,3,0,5,5,5,,,,,,,,,,,,,,,,,,,771.7691969590014,q,0.471770625001227,772.3095526670004,,,,,,,52,A,2025-01-18_08h59.47.191,EPIDM,2023.1.2,None,
2389.jpg,7320.jpg,0 Points,0 Points,189 Points,PS1_L4.csv,,,,,,,,,,,,,,,,,,,,,,,,,,,,,0,3,3,3,0,6,6,6,,,,,,,,,,,,,,,,,,,776.5422553750032,p,1.1637072490048013,777.7838394589999,,,,,,,52,A,2025-01-18_08h59.47.191,EPIDM,2023.1.2,None,
9330.jpg,3015.jpg,5 Points,5 Points,194 Points,PS1_L4.csv,,,,,,,,,,,,,,,,,,,,,,,,,,,,,0,3,3,3,0,7,7,7,,,,,,,,,,,,,,,,,,,782.0229809590019,p,0.55383858300047,782.642918958998,,,,,,,52,A,2025-01-18_08h59.47.191,EPIDM,2023.1.2,None,
9560.jpg,3071.jpg,1 Point,1 Point,195 Points,PS1_L4.csv,,,,,,,,,,,,,,,,,,,,,,,,,,,,,0,3,3,3,0,8,8,8,,,,,,,,,,,,,,,,,,,786.8889975839993,p,0.48064475000137463,787.4380699590038,,,,,,,52,A,2025-01-18_08h59.47.191,EPIDM,2023.1.2,None,
5994.jpg,5390.jpg,0 Points,0 Points,195 Points,PS1_L4.csv,,,,,,,,,,,,,,,,,,,,,,,,,,,,,0,3,3,3,0,9,9,9,,,,,,,,,,,,,,,,,,,791.6819303340017,p,0.6709044579984038,792.4192805839994,,,,,,,52,A,2025-01-18_08h59.47.191,EPIDM,2023.1.2,None,
2692.jpg,8231.jpg,4 Points,4 Points,199 Points,PS1_L4.csv,,,,,,,,,,,,,,,,,,,,,,,,,,,,,0,3,3,3,0,10,10,10,,,,,,,,,,,,,,,,,,,796.671513250003,p,0.6485455000001821,797.3774789590025,,,,,,,52,A,2025-01-18_08h59.47.191,EPIDM,2023.1.2,None,
F174.jpg,9404.jpg,5 Points,5 Points,204 Points,PS1_L4.csv,,,,,,,,,,,,,,,,,,,,,,,,,,,,,0,3,3,3,0,11,11,11,,,,,,,,,,,,,,,,,,,801.6381868750032,q,0.5061779169991496,802.248350959002,,,,,,,52,A,2025-01-18_08h59.47.191,EPIDM,2023.1.2,None,
8010.jpg,2630.jpg,0 Points,0 Points,204 Points,PS1_L4.csv,,,,,,,,,,,,,,,,,,,,,,,,,,,,,0,3,3,3,0,12,12,12,,,,,,,,,,,,,,,,,,,806.4480150840027,q,0.6403795829974115,807.1660754999975,,,,,,,52,A,2025-01-18_08h59.47.191,EPIDM,2023.1.2,None,
7175.jpg,7490.jpg,2 Points,2 Points,206 Points,PS1_L4.csv,,,,,,,,,,,,,,,,,,,,,,,,,,,,,0,3,3,3,0,13,13,13,,,,,,,,,,,,,,,,,,,811.4116964170025,p,1.0694684999980382,812.5514995839985,2,1.0861196660043788,,,,,52,A,2025-01-18_08h59.47.191,EPIDM,2023.1.2,None,
6561.jpg,1525.jpg,2 Points,2 Points,208 Points,PS1_L4.csv,,,,,,,,,,,,,,,,,,,,,,,,,,,,,0,3,3,3,0,14,14,14,,,,,,,,,,,,,,,,,,,817.9578650420008,p,0.5220798330046819,818.548441125,,,,,,,52,A,2025-01-18_08h59.47.191,EPIDM,2023.1.2,None,
9070.jpg,9420.jpg,2 Points,2 Points,210 Points,PS1_L4.csv,,,,,,,,,,,,,,,,,,,,,,,,,,,,,0,3,3,3,0,15,15,15,,,,,,,,,,,,,,,,,,,822.7847228750034,p,0.5040012500030571,823.3552193340001,,,,,,,52,A,2025-01-18_08h59.47.191,EPIDM,2023.1.2,None,
2516.jpg,8500.jpg,4 Points,4 Points,214 Points,PS1_L4.csv,,,,,,,,,,,,,,,,,,,,,,,,,,,,,0,3,3,3,0,16,16,16,,,,,,,,,,,,,,,,,,,827.6050455840013,q,0.8830998749981518,828.561583374998,,,,,,,52,A,2025-01-18_08h59.47.191,EPIDM,2023.1.2,None,
9140.jpg,2810.jpg,3 Points,3 Points,217 Points,PS1_L4.csv,,,,,,,,,,,,,,,,,,,,,,,,,,,,,0,3,3,3,0,17,17,17,,,,,,,,,,,,,,,,,,,832.805295625003,q,0.7065789999978733,833.5759107920021,,,,,,,52,A,2025-01-18_08h59.47.191,EPIDM,2023.1.2,None,
7220.jpg,8090.jpg,2 Points,2 Points,219 Points,PS1_L4.csv,,,,,,,,,,,,,,,,,,,,,,,,,,,,,0,3,3,3,0,18,18,18,,,,,,,,,,,,,,,,,,,837.8172267089976,q,0.4779610830009915,838.3675318750029,,,,,,,52,A,2025-01-18_08h59.47.191,EPIDM,2023.1.2,None,
2661.jpg,2870.jpg,5 Points,5 Points,224 Points,PS1_L4.csv,,,,,,,,,,,,,,,,,,,,,,,,,,,,,0,3,3,3,0,19,19,19,,,,,,,,,,,,,,,,,,,842.6127478749986,q,0.7797483750036918,843.4670715000029,,,,,,,52,A,2025-01-18_08h59.47.191,EPIDM,2023.1.2,None,
6010.jpg,7361.jpg,2 Points,2 Points,226 Points,PS1_L4.csv,,,,,,,,,,,,,,,,,,,,,,,,,,,,,0,3,3,3,0,20,20,20,,,,,,,,,,,,,,,,,,,847.7140822500005,p,0.5821891669984325,848.3591329170013,,,,,,,52,A,2025-01-18_08h59.47.191,EPIDM,2023.1.2,None,
7289.jpg,4534.jpg,0 Points,0 Points,226 Points,PS1_L4.csv,,,,,,,,,,,,,,,,,,,,,,,,,,,,,0,3,3,3,0,21,21,21,,,,,,,,,,,,,,,,,,,852.6014816669995,p,0.5733747909980593,853.2575350839979,,,,,,,52,A,2025-01-18_08h59.47.191,EPIDM,2023.1.2,None,
1310.jpg,3181.jpg,4 Points,4 Points,230 Points,PS1_L4.csv,,,,,,,,,,,,,,,,,,,,,,,,,,,,,0,3,3,3,0,22,22,22,,,,,,,,,,,,,,,,,,,857.4843129590008,q,0.610964082996361,858.158407709001,,,,,,,52,A,2025-01-18_08h59.47.191,EPIDM,2023.1.2,None,
2383.jpg,1616.jpg,2 Points,2 Points,232 Points,PS1_L4.csv,,,,,,,,,,,,,,,,,,,,,,,,,,,,,0,3,3,3,0,23,23,23,,,,,,,,,,,,,,,,,,,862.3968780840005,p,0.6182169160019839,863.0949657090023,,,,873.5684651670017,space,1.3823804170024232,52,A,2025-01-18_08h59.47.191,EPIDM,2023.1.2,None,
4510.jpg,2230.jpg,5 Points,5 Points,237 Points,PS1_L5.csv,,,,,,,,,,,,,,,,,,,,,,,,,,,,,0,4,4,4,0,0,0,0,,,,,,,,,,,,,,,,,,,878.2667300840039,p,0.747112623997964,879.0861045839993,,,,,,,52,A,2025-01-18_08h59.47.191,EPIDM,2023.1.2,None,
A025.jpg,1051.jpg,0 Points,0 Points,237 Points,PS1_L5.csv,,,,,,,,,,,,,,,,,,,,,,,,,,,,,0,4,4,4,0,1,1,1,,,,,,,,,,,,,,,,,,,883.3325721669971,p,0.8664183330038213,884.3232606250021,0,1.6402537490066607,,,,,52,A,2025-01-18_08h59.47.191,EPIDM,2023.1.2,None,
7002.jpg,4660.jpg,4 Points,4 Points,241 Points,PS1_L5.csv,,,,,,,,,,,,,,,,,,,,,,,,,,,,,0,4,4,4,0,2,2,2,,,,,,,,,,,,,,,,,,,890.2701189590007,p,0.9755252499962808,891.3699110840025,,,,,,,52,A,2025-01-18_08h59.47.191,EPIDM,2023.1.2,None,
2900.jpg,1101.jpg,3 Points,3 Points,244 Points,PS1_L5.csv,,,,,,,,,,,,,,,,,,,,,,,,,,,,,0,4,4,4,0,3,3,3,,,,,,,,,,,,,,,,,,,895.5637299169975,p,1.1794109990005381,896.8206518340012,,,,,,,52,A,2025-01-18_08h59.47.191,EPIDM,2023.1.2,None,
2485.jpg,7350.jpg,0 Points,0 Points,244 Points,PS1_L5.csv,,,,,,,,,,,,,,,,,,,,,,,,,,,,,0,4,4,4,0,4,4,4,,,,,,,,,,,,,,,,,,,901.0506527090038,q,0.6914437910018023,901.8113908340019,,,,,,,52,A,2025-01-18_08h59.47.191,EPIDM,2023.1.2,None,
6242.jpg,F034.jpg,4 Points,4 Points,248 Points,PS1_L5.csv,,,,,,,,,,,,,,,,,,,,,,,,,,,,,0,4,4,4,0,5,5,5,,,,,,,,,,,,,,,,,,,906.0695330419985,q,1.2804107500051032,907.4572556249987,,,,,,,52,A,2025-01-18_08h59.47.191,EPIDM,2023.1.2,None,
3170.jpg,6560.jpg,2 Points,2 Points,250 Points,PS1_L5.csv,,,,,,,,,,,,,,,,,,,,,,,,,,,,,0,4,4,4,0,6,6,6,,,,,,,,,,,,,,,,,,,911.6589433339977,q,0.7319015829998534,912.4907579999999,,,,,,,52,A,2025-01-18_08h59.47.191,EPIDM,2023.1.2,None,
8033.jpg,7270.jpg,3 Points,3 Points,253 Points,PS1_L5.csv,,,,,,,,,,,,,,,,,,,,,,,,,,,,,0,4,4,4,0,7,7,7,,,,,,,,,,,,,,,,,,,916.6988397919995,q,1.178810750003322,917.9485290000011,,,,,,,52,A,2025-01-18_08h59.47.191,EPIDM,2023.1.2,None,
2597.jpg,5870.jpg,5 Points,5 Points,258 Points,PS1_L5.csv,,,,,,,,,,,,,,,,,,,,,,,,,,,,,0,4,4,4,0,8,8,8,,,,,,,,,,,,,,,,,,,922.1858992499983,p,1.2600849579976057,923.5057949170005,,,,,,,52,A,2025-01-18_08h59.47.191,EPIDM,2023.1.2,None,
6312.jpg,3230.jpg,2 Points,2 Points,260 Points,PS1_L5.csv,,,,,,,,,,,,,,,,,,,,,,,,,,,,,0,4,4,4,0,9,9,9,,,,,,,,,,,,,,,,,,,927.7531745840024,p,1.1731958329983172,928.9977039590012,,,,,,,52,A,2025-01-18_08h59.47.191,EPIDM,2023.1.2,None,
3130.jpg,3500.jpg,4 Points,4 Points,264 Points,PS1_L5.csv,,,,,,,,,,,,,,,,,,,,,,,,,,,,,0,4,4,4,0,10,10,10,,,,,,,,,,,,,,,,,,,933.2423481250007,q,0.37950470800569747,933.6926754590022,,,,,,,52,A,2025-01-18_08h59.47.191,EPIDM,2023.1.2,None,
2749.jpg,7282.jpg,3 Points,3 Points,267 Points,PS1_L5.csv,,,,,,,,,,,,,,,,,,,,,,,,,,,,,0,4,4,4,0,11,11,11,,,,,,,,,,,,,,,,,,,937.9351152500021,q,0.8944467920009629,938.9143841670011,,,,,,,52,A,2025-01-18_08h59.47.191,EPIDM,2023.1.2,None,
5300.jpg,2372.jpg,1 Point,1 Point,268 Points,PS1_L5.csv,,,,,,,,,,,,,,,,,,,,,,,,,,,,,0,4,4,4,0,12,12,12,,,,,,,,,,,,,,,,,,,943.1520667919976,q,0.6141938329965342,943.8447969999979,,,,,,,52,A,2025-01-18_08h59.47.191,EPIDM,2023.1.2,None,
6510.jpg,A074.jpg,2 Points,2 Points,270 Points,PS1_L5.csv,,,,,,,,,,,,,,,,,,,,,,,,,,,,,0,4,4,4,0,13,13,13,,,,,,,,,,,,,,,,,,,948.080971000003,q,0.971921915996063,949.1653922499972,2,1.022068083002523,,,,,52,A,2025-01-18_08h59.47.191,EPIDM,2023.1.2,None,
2260.jpg,2830.jpg,5 Points,5 Points,275 Points,PS1_L5.csv,,,,,,,,,,,,,,,,,,,,,,,,,,,,,0,4,4,4,0,14,14,14,,,,,,,,,,,,,,,,,,,954.49499775,q,0.9339639580066432,955.5347263750009,,,,,,,52,A,2025-01-18_08h59.47.191,EPIDM,2023.1.2,None,
2710.jpg,9252.jpg,1 Point,1 Point,276 Points,PS1_L5.csv,,,,,,,,,,,,,,,,,,,,,,,,,,,,,0,4,4,4,0,15,15,15,,,,,,,,,,,,,,,,,,,959.7293938750008,p,0.9391047500030254,960.7349038750035,,,,,,,52,A,2025-01-18_08h59.47.191,EPIDM,2023.1.2,None,
3064.jpg,3168.jpg,4 Points,4 Points,280 Points,PS1_L5.csv,,,,,,,,,,,,,,,,,,,,,,,,,,,,,0,4,4,4,0,16,16,16,,,,,,,,,,,,,,,,,,,964.9761348750035,q,0.3566606660024263,965.394946417,,,,,,,52,A,2025-01-18_08h59.47.191,EPIDM,2023.1.2,None,
1640.jpg,5531.jpg,3 Points,3 Points,283 Points,PS1_L5.csv,,,,,,,,,,,,,,,,,,,,,,,,,,,,,0,4,4,4,0,17,17,17,,,,,,,,,,,,,,,,,,,969.6418286670014,p,0.5787744580011349,970.2957140840008,,,,,,,52,A,2025-01-18_08h59.47.191,EPIDM,2023.1.2,None,
3530.jpg,6213.jpg,1 Point,1 Point,284 Points,PS1_L5.csv,,,,,,,,,,,,,,,,,,,,,,,,,,,,,0,4,4,4,0,18,18,18,,,,,,,,,,,,,,,,,,,974.5317305420031,q,0.9850674170011189,975.5921352090008,,,,,,,52,A,2025-01-18_08h59.47.191,EPIDM,2023.1.2,None,
9090.jpg,7580.jpg,3 Points,3 Points,287 Points,PS1_L5.csv,,,,,,,,,,,,,,,,,,,,,,,,,,,,,0,4,4,4,0,19,19,19,,,,,,,,,,,,,,,,,,,979.8318302499974,q,0.5332322079993901,980.4565757500022,,,,,,,52,A,2025-01-18_08h59.47.191,EPIDM,2023.1.2,None,
8230.jpg,2682.jpg,5 Points,5 Points,292 Points,PS1_L5.csv,,,,,,,,,,,,,,,,,,,,,,,,,,,,,0,4,4,4,0,20,20,20,,,,,,,,,,,,,,,,,,,984.6831330839996,q,0.3291814999975031,985.0836815000002,,,,,,,52,A,2025-01-18_08h59.47.191,EPIDM,2023.1.2,None,
9592.jpg,1300.jpg,2 Points,2 Points,294 Points,PS1_L5.csv,,,,,,,,,,,,,,,,,,,,,,,,,,,,,0,4,4,4,0,21,21,21,,,,,,,,,,,,,,,,,,,989.328745042003,p,0.8278588330067578,990.2160335840017,,,,,,,52,A,2025-01-18_08h59.47.191,EPIDM,2023.1.2,None,
2490.jpg,2590.jpg,4 Points,4 Points,298 Points,PS1_L5.csv,,,,,,,,,,,,,,,,,,,,,,,,,,,,,0,4,4,4,0,22,22,22,,,,,,,,,,,,,,,,,,,994.4678531669997,q,0.7933169579991954,995.3286416249975,,,,,,,52,A,2025-01-18_08h59.47.191,EPIDM,2023.1.2,None,
2190.jpg,7503.jpg,2 Points,2 Points,300 Points,PS1_L5.csv,,,,,,,,,,,,,,,,,,,,,,,,,,,,,0,4,4,4,0,23,23,23,,,,,,,,,,,,,,,,,,,999.5708135840032,p,0.5775931660027709,1000.2235382090003,,,,1010.7003201249972,space,1.142981333003263,52,A,2025-01-18_08h59.47.191,EPIDM,2023.1.2,None,
1930.jpg,9008.jpg,1 Point,1 Point,301 Points,PS1_L6.csv,,,,,,,,,,,,,,,,,,,,,,,,,,,,,0,5,5,5,0,0,0,0,,,,,,,,,,,,,,,,,,,1015.1504550000027,p,0.6145496660028584,1015.919011209,,,,,,,52,A,2025-01-18_08h59.47.191,EPIDM,2023.1.2,None,
4613.jpg,2720.jpg,4 Points,4 Points,305 Points,PS1_L6.csv,,,,,,,,,,,,,,,,,,,,,,,,,,,,,0,5,5,5,0,1,1,1,,,,,,,,,,,,,,,,,,,1020.130911375003,q,1.2092123330003233,1021.4041047499995,4,1.4341839580010856,,,,,52,A,2025-01-18_08h59.47.191,EPIDM,2023.1.2,None,
3280.jpg,9270.jpg,0 Points,0 Points,305 Points,PS1_L6.csv,,,,,,,,,,,,,,,,,,,,,,,,,,,,,0,5,5,5,0,2,2,2,,,,,,,,,,,,,,,,,,,1027.1475190839992,p,0.8240239580045454,1028.0411776670007,,,,,,,52,A,2025-01-18_08h59.47.191,EPIDM,2023.1.2,None,
6800.jpg,9190.jpg,0 Points,0 Points,305 Points,PS1_L6.csv,,,,,,,,,,,,,,,,,,,,,,,,,,,,,0,5,5,5,0,3,3,3,,,,,,,,,,,,,,,,,,,1032.2810722089998,q,0.7698927079982241,1033.116211624998,,,,,,,52,A,2025-01-18_08h59.47.191,EPIDM,2023.1.2,None,
5600.jpg,9080.jpg,5 Points,5 Points,310 Points,PS1_L6.csv,,,,,,,,,,,,,,,,,,,,,,,,,,,,,0,5,5,5,0,4,4,4,,,,,,,,,,,,,,,,,,,1037.3669462090038,p,0.9636361669981852,1038.4020306250022,,,,,,,52,A,2025-01-18_08h59.47.191,EPIDM,2023.1.2,None,
P211.jpg,9041.jpg,4 Points,4 Points,314 Points,PS1_L6.csv,,,,,,,,,,,,,,,,,,,,,,,,,,,,,0,5,5,5,0,5,5,5,,,,,,,,,,,,,,,,,,,1042.6406772499977,q,0.697695624003245,1043.4489928339972,,,,,,,52,A,2025-01-18_08h59.47.191,EPIDM,2023.1.2,None,
5200.jpg,5020.jpg,0 Points,0 Points,314 Points,PS1_L6.csv,,,,,,,,,,,,,,,,,,,,,,,,,,,,,0,5,5,5,0,6,6,6,,,,,,,,,,,,,,,,,,,1047.6509017499993,q,1.568394250003621,1049.2947591249977,,,,,,,52,A,2025-01-18_08h59.47.191,EPIDM,2023.1.2,None,
1850.jpg,5623.jpg,5 Points,5 Points,319 Points,PS1_L6.csv,,,,,,,,,,,,,,,,,,,,,,,,,,,,,0,5,5,5,0,7,7,7,,,,,,,,,,,,,,,,,,,1053.5325102089992,q,0.9338921660018968,1054.542942375003,,,,,,,52,A,2025-01-18_08h59.47.191,EPIDM,2023.1.2,None,
9440.jpg,6350.jpg,4 Points,4 Points,323 Points,PS1_L6.csv,,,,,,,,,,,,,,,,,,,,,,,,,,,,,0,5,5,5,0,8,8,8,,,,,,,,,,,,,,,,,,,1058.7894566250034,p,0.8773310410033446,1059.7229799170018,,,,,,,52,A,2025-01-18_08h59.47.191,EPIDM,2023.1.2,None,
5990.jpg,5780.jpg,3 Points,3 Points,326 Points,PS1_L6.csv,,,,,,,,,,,,,,,,,,,,,,,,,,,,,0,5,5,5,0,9,9,9,,,,,,,,,,,,,,,,,,,1063.9690775420022,q,1.2412574159970973,1065.2748163340002,,,,,,,52,A,2025-01-18_08h59.47.191,EPIDM,2023.1.2,None,
6244.jpg,9265.jpg,0 Points,0 Points,326 Points,PS1_L6.csv,,,,,,,,,,,,,,,,,,,,,,,,,,,,,0,5,5,5,0,10,10,10,,,,,,,,,,,,,,,,,,,1069.5193097919982,p,1.3718890829986776,1070.9575741669978,,,,,,,52,A,2025-01-18_08h59.47.191,EPIDM,2023.1.2,None,
5000.jpg,8180.jpg,4 Points,4 Points,330 Points,PS1_L6.csv,,,,,,,,,,,,,,,,,,,,,,,,,,,,,0,5,5,5,0,11,11,11,,,,,,,,,,,,,,,,,,,1075.2053872920005,p,1.0448524160019588,1076.3238087920035,,,,,,,52,A,2025-01-18_08h59.47.191,EPIDM,2023.1.2,None,
5982.jpg,5260.jpg,5 Points,5 Points,335 Points,PS1_L6.csv,,,,,,,,,,,,,,,,,,,,,,,,,,,,,0,5,5,5,0,12,12,12,,,,,,,,,,,,,,,,,,,1080.5553144169971,p,1.0538097079988802,1081.699303417001,,,,,,,52,A,2025-01-18_08h59.47.191,EPIDM,2023.1.2,None,
1301.jpg,1070.jpg,2 Points,2 Points,337 Points,PS1_L6.csv,,,,,,,,,,,,,,,,,,,,,,,,,,,,,0,5,5,5,0,13,13,13,,,,,,,,,,,,,,,,,,,1085.931916417001,p,1.2305003740038956,1087.235875917002,2,1.1469906240017735,,,,,52,A,2025-01-18_08h59.47.191,EPIDM,2023.1.2,None,
7920.jpg,9102.jpg,3 Points,3 Points,340 Points,PS1_L6.csv,,,,,,,,,,,,,,,,,,,,,,,,,,,,,0,5,5,5,0,14,14,14,,,,,,,,,,,,,,,,,,,1092.6919068749994,q,1.061796123998647,1093.8315169170019,,,,,,,52,A,2025-01-18_08h59.47.191,EPIDM,2023.1.2,None,
5455.jpg,5220.jpg,0 Points,0 Points,340 Points,PS1_L6.csv,,,,,,,,,,,,,,,,,,,,,,,,,,,,,0,5,5,5,0,15,15,15,,,,,,,,,,,,,,,,,,,1098.071074708998,q,0.9471652499996708,1099.0907681250028,,,,,,,52,A,2025-01-18_08h59.47.191,EPIDM,2023.1.2,None,
3350.jpg,3210.jpg,1 Point,1 Point,341 Points,PS1_L6.csv,,,,,,,,,,,,,,,,,,,,,,,,,,,,,0,5,5,5,0,16,16,16,,,,,,,,,,,,,,,,,,,1103.3377981669983,q,1.0548388329989393,1104.4667460420023,,,,,,,52,A,2025-01-18_08h59.47.191,EPIDM,2023.1.2,None,
2560.jpg,5270.jpg,4 Points,4 Points,345 Points,PS1_L6.csv,,,,,,,,,,,,,,,,,,,,,,,,,,,,,0,5,5,5,0,17,17,17,,,,,,,,,,,,,,,,,,,1108.7246576670004,p,0.683926916004566,1109.479743875003,,,,,,,52,A,2025-01-18_08h59.47.191,EPIDM,2023.1.2,None,
9584.jpg,3400.jpg,2 Points,2 Points,347 Points,PS1_L6.csv,,,,,,,,,,,,,,,,,,,,,,,,,,,,,0,5,5,5,0,18,18,18,,,,,,,,,,,,,,,,,,,1113.725234958998,p,0.7713481660030084,1114.5710281670035,,,,,,,52,A,2025-01-18_08h59.47.191,EPIDM,2023.1.2,None,
5760.jpg,1602.jpg,1 Point,1 Point,348 Points,PS1_L6.csv,,,,,,,,,,,,,,,,,,,,,,,,,,,,,0,5,5,5,0,19,19,19,,,,,,,,,,,,,,,,,,,1118.8309732089983,p,0.8099712500043097,1119.7267966250001,,,,,,,52,A,2025-01-18_08h59.47.191,EPIDM,2023.1.2,None,
7230.jpg,7570.jpg,5 Points,5 Points,353 Points,PS1_L6.csv,,,,,,,,,,,,,,,,,,,,,,,,,,,,,0,5,5,5,0,20,20,20,,,,,,,,,,,,,,,,,,,1123.9711617499997,p,0.9739481249998789,1125.0223016669988,,,,,,,52,A,2025-01-18_08h59.47.191,EPIDM,2023.1.2,None,
1022.jpg,6930.jpg,1 Point,1 Point,354 Points,PS1_L6.csv,,,,,,,,,,,,,,,,,,,,,,,,,,,,,0,5,5,5,0,21,21,21,,,,,,,,,,,,,,,,,,,1129.253993917002,q,1.0034601660008775,1130.336539709002,,,,,,,52,A,2025-01-18_08h59.47.191,EPIDM,2023.1.2,None,
8340.jpg,7546.jpg,2 Points,2 Points,356 Points,PS1_L6.csv,,,,,,,,,,,,,,,,,,,,,,,,,,,,,0,5,5,5,0,22,22,22,,,,,,,,,,,,,,,,,,,1134.5745349589997,q,1.4204382489988348,1136.0637063750037,,,,,,,52,A,2025-01-18_08h59.47.191,EPIDM,2023.1.2,None,
6243.jpg,2752.jpg,2 Points,2 Points,358 Points,PS1_L6.csv,,,,,,,,,,,,,,,,,,,,,,,,,,,,,0,5,5,5,0,23,23,23,,,,,,,,,,,,,,,,,,,1140.3106415000002,p,1.2733866659982596,1141.6570820839988,,,,1152.109318374998,space,24.72308233300282,52,A,2025-01-18_08h59.47.191,EPIDM,2023.1.2,None,
7280.jpg,7160.jpg,0 Points,0 Points,358 Points,PS1_L7.csv,,,,,,,,,,,,,,,,,,,,,,,,,,,,,0,6,6,6,0,0,0,0,,,,,,,,,,,,,,,,,,,1180.144223000003,p,1.127020583000558,1181.3456852500021,,,,,,,52,A,2025-01-18_08h59.47.191,EPIDM,2023.1.2,None,
2580.jpg,8300.jpg,3 Points,3 Points,361 Points,PS1_L7.csv,,,,,,,,,,,,,,,,,,,,,,,,,,,,,0,6,6,6,0,1,1,1,,,,,,,,,,,,,,,,,,,1185.5794572500017,p,1.8442957910010591,1187.4943377500022,3,1.4930157080016215,,,,,52,A,2025-01-18_08h59.47.191,EPIDM,2023.1.2,None,
5972.jpg,6838.jpg,5 Points,5 Points,366 Points,PS1_L7.csv,,,,,,,,,,,,,,,,,,,,,,,,,,,,,0,6,6,6,0,2,2,2,,,,,,,,,,,,,,,,,,,1193.2991280420028,q,1.1245714579999913,1194.4934960419996,,,,,,,52,A,2025-01-18_08h59.47.191,EPIDM,2023.1.2,None,
5621.jpg,5534.jpg,3 Points,3 Points,369 Points,PS1_L7.csv,,,,,,,,,,,,,,,,,,,,,,,,,,,,,0,6,6,6,0,3,3,3,,,,,,,,,,,,,,,,,,,1198.7297248340037,q,0.9817830419997335,1199.7756897919971,,,,,,,52,A,2025-01-18_08h59.47.191,EPIDM,2023.1.2,None,
8480.jpg,6410.jpg,1 Point,1 Point,370 Points,PS1_L7.csv,,,,,,,,,,,,,,,,,,,,,,,,,,,,,0,6,6,6,0,4,4,4,,,,,,,,,,,,,,,,,,,1204.011063500002,q,0.5886266250017798,1204.6659742499978,,,,,,,52,A,2025-01-18_08h59.47.191,EPIDM,2023.1.2,None,
2702.jpg,1590.jpg,5 Points,5 Points,375 Points,PS1_L7.csv,,,,,,,,,,,,,,,,,,,,,,,,,,,,,0,6,6,6,0,5,5,5,,,,,,,,,,,,,,,,,,,1208.9018581249984,p,0.8249544580030488,1209.804299125004,,,,,,,52,A,2025-01-18_08h59.47.191,EPIDM,2023.1.2,None,
1275.jpg,3150.jpg,1 Point,1 Point,376 Points,PS1_L7.csv,,,,,,,,,,,,,,,,,,,,,,,,,,,,,0,6,6,6,0,6,6,6,,,,,,,,,,,,,,,,,,,1214.0429082089977,p,0.8508779160038102,1214.9584301249997,,,,,,,52,A,2025-01-18_08h59.47.191,EPIDM,2023.1.2,None,
1910.jpg,2575.jpg,2 Points,2 Points,378 Points,PS1_L7.csv,,,,,,,,,,,,,,,,,,,,,,,,,,,,,0,6,6,6,0,7,7,7,,,,,,,,,,,,,,,,,,,1219.202101709001,q,1.0072423750025337,1220.276013458999,,,,,,,52,A,2025-01-18_08h59.47.191,EPIDM,2023.1.2,None,
2518.jpg,2381.jpg,1 Point,1 Point,382 Points,PS1_L7.csv,,,,,,,,,,,,,,,,,,,,,,,,,,,,,0,6,6,6,0,8,8,8,,,,,,,,,,,,,,,,,,,1224.5317605419987,q,1.1557640829996672,1225.7513098339987,,,,,,,52,A,2025-01-18_08h59.47.191,EPIDM,2023.1.2,None,
6250.1.jpg,3301.jpg,0 Points,0 Points,382 Points,PS1_L7.csv,,,,,,,,,,,,,,,,,,,,,,,,,,,,,0,6,6,6,0,9,9,9,,,,,,,,,,,,,,,,,,,1230.0114540420036,p,1.011172540995176,1231.0854814589984,,,,,,,52,A,2025-01-18_08h59.47.191,EPIDM,2023.1.2,None,
7234.jpg,5533.jpg,3 Points,3 Points,385 Points,PS1_L7.csv,,,,,,,,,,,,,,,,,,,,,,,,,,,,,0,6,6,6,0,10,10,10,,,,,,,,,,,,,,,,,,,1235.3321073339976,p,0.7134445419942494,1236.1243947500043,,,,,,,52,A,2025-01-18_08h59.47.191,EPIDM,2023.1.2,None,
9920.jpg,3068.jpg,5 Points,5 Points,390 Points,PS1_L7.csv,,,,,,,,,,,,,,,,,,,,,,,,,,,,,0,6,6,6,0,11,11,11,,,,,,,,,,,,,,,,,,,1240.3679843339996,p,0.4945866669950192,1240.9230812500027,,,,,,,52,A,2025-01-18_08h59.47.191,EPIDM,2023.1.2,None,
3022.jpg,2352.2.jpg,0 Points,0 Points,390 Points,PS1_L7.csv,,,,,,,,,,,,,,,,,,,,,,,,,,,,,0,6,6,6,0,12,12,12,,,,,,,,,,,,,,,,,,,1245.1752837500026,p,0.7744457500011777,1246.0153635419992,,,,,,,52,A,2025-01-18_08h59.47.191,EPIDM,2023.1.2,None,
8250.jpg,1313.jpg,4 Points,4 Points,394 Points,PS1_L7.csv,,,,,,,,,,,,,,,,,,,,,,,,,,,,,0,6,6,6,0,13,13,13,,,,,,,,,,,,,,,,,,,1250.2544407090027,p,0.9921738330012886,1251.3266409170028,4,1.15391879100207,,,,,52,A,2025-01-18_08h59.47.191,EPIDM,2023.1.2,None,
2690.jpg,9360.jpg,1 Point,1 Point,395 Points,PS1_L7.csv,,,,,,,,,,,,,,,,,,,,,,,,,,,,,0,6,6,6,0,14,14,14,,,,,,,,,,,,,,,,,,,1256.8010292920007,q,0.9010645000016666,1257.7724434170013,,,,,,,52,A,2025-01-18_08h59.47.191,EPIDM,2023.1.2,None,
9570.jpg,6610.jpg,0 Points,0 Points,395 Points,PS1_L7.csv,,,,,,,,,,,,,,,,,,,,,,,,,,,,,0,6,6,6,0,15,15,15,,,,,,,,,,,,,,,,,,,1262.0174856669983,q,0.6924398330011172,1262.7895379170004,,,,,,,52,A,2025-01-18_08h59.47.191,EPIDM,2023.1.2,None,
3110.jpg,9000.jpg,4 Points,4 Points,399 Points,PS1_L7.csv,,,,,,,,,,,,,,,,,,,,,,,,,,,,,0,6,6,6,0,16,16,16,,,,,,,,,,,,,,,,,,,1267.043580999998,q,1.250085207997472,1268.3588506669985,,,,,,,52,A,2025-01-18_08h59.47.191,EPIDM,2023.1.2,None,
8465.jpg,8400.jpg,1 Point,1 Point,400 Points,PS1_L7.csv,,,,,,,,,,,,,,,,,,,,,,,,,,,,,0,6,6,6,0,17,17,17,,,,,,,,,,,,,,,,,,,1272.5938290839986,p,1.282750541002315,1273.9488192920035,,,,,,,52,A,2025-01-18_08h59.47.191,EPIDM,2023.1.2,None,
1540.jpg,2600.jpg,1 Point,1 Point,401 Points,PS1_L7.csv,,,,,,,,,,,,,,,,,,,,,,,,,,,,,0,6,6,6,0,18,18,18,,,,,,,,,,,,,,,,,,,1278.1860717090021,p,1.0750864159999765,1279.3148085840003,,,,,,,52,A,2025-01-18_08h59.47.191,EPIDM,2023.1.2,None,
2276.jpg,6540.jpg,3 Points,3 Points,404 Points,PS1_L7.csv,,,,,,,,,,,,,,,,,,,,,,,,,,,,,0,6,6,6,0,19,19,19,,,,,,,,,,,,,,,,,,,1283.5642984590013,p,1.20101541600161,1284.8255791249976,,,,,,,52,A,2025-01-18_08h59.47.191,EPIDM,2023.1.2,None,
5030.jpg,1670.jpg,3 Points,3 Points,407 Points,PS1_L7.csv,,,,,,,,,,,,,,,,,,,,,,,,,,,,,0,6,6,6,0,20,20,20,,,,,,,,,,,,,,,,,,,1289.077090042003,q,1.488307415995223,1290.6234424170034,,,,,,,52,A,2025-01-18_08h59.47.191,EPIDM,2023.1.2,None,
9040.jpg,1120.jpg,3 Points,3 Points,410 Points,PS1_L7.csv,,,,,,,,,,,,,,,,,,,,,,,,,,,,,0,6,6,6,0,21,21,21,,,,,,,,,,,,,,,,,,,1294.8670190839985,p,0.8588033330015605,1295.7978104170033,,,,,,,52,A,2025-01-18_08h59.47.191,EPIDM,2023.1.2,None,
3220.jpg,3063.jpg,5 Points,5 Points,415 Points,PS1_L7.csv,,,,,,,,,,,,,,,,,,,,,,,,,,,,,0,6,6,6,0,22,22,22,,,,,,,,,,,,,,,,,,,1300.0332004590018,p,0.8360785830009263,1300.9226435840028,,,,,,,52,A,2025-01-18_08h59.47.191,EPIDM,2023.1.2,None,
8117.jpg,2880.jpg,5 Points,5 Points,420 Points,PS1_L7.csv,,,,,,,,,,,,,,,,,,,,,,,,,,,,,0,6,6,6,0,23,23,23,,,,,,,,,,,,,,,,,,,1305.1793679589973,q,1.178058040997712,1306.4203688749985,,,,1316.954914959002,space,1.7546923330010031,52,A,2025-01-18_08h59.47.191,EPIDM,2023.1.2,None,
4274.jpg,8160.jpg,2 Points,2 Points,422 Points,PS1_L8.csv,,,,,,,,,,,,,,,,,,,,,,,,,,,,,0,7,7,7,0,0,0,0,,,,,,,,,,,,,,,,,,,1322.0198270839974,p,0.82476266699814,1322.9140598750018,,,,,,,52,A,2025-01-18_08h59.47.191,EPIDM,2023.1.2,None,
6314.jpg,O022.jpg,2 Points,2 Points,424 Points,PS1_L8.csv,,,,,,,,,,,,,,,,,,,,,,,,,,,,,0,7,7,7,0,1,1,1,,,,,,,,,,,,,,,,,,,1327.151945958998,p,0.7092657500033965,1327.9584639169989,2,1.1462323329978972,,,,,52,A,2025-01-18_08h59.47.191,EPIDM,2023.1.2,None,
1560.jpg,8185.jpg,0 Points,0 Points,424 Points,PS1_L8.csv,,,,,,,,,,,,,,,,,,,,,,,,,,,,,0,7,7,7,0,2,2,2,,,,,,,,,,,,,,,,,,,1333.4190466250002,p,1.0018379160028417,1334.4822450840002,,,,,,,52,A,2025-01-18_08h59.47.191,EPIDM,2023.1.2,None,
2850.jpg,4532.jpg,3 Points,3 Points,427 Points,PS1_L8.csv,,,,,,,,,,,,,,,,,,,,,,,,,,,,,0,7,7,7,0,3,3,3,,,,,,,,,,,,,,,,,,,1338.7197069590038,q,0.9398882910027169,1339.7227355840005,,,,,,,52,A,2025-01-18_08h59.47.191,EPIDM,2023.1.2,None,
1390.jpg,9421.jpg,2 Points,2 Points,429 Points,PS1_L8.csv,,,,,,,,,,,,,,,,,,,,,,,,,,,,,0,7,7,7,0,4,4,4,,,,,,,,,,,,,,,,,,,1343.9726535419977,p,1.1913165830046637,1345.226286709003,,,,,,,52,A,2025-01-18_08h59.47.191,EPIDM,2023.1.2,None,
9800.jpg,9433.jpg,1 Point,1 Point,430 Points,PS1_L8.csv,,,,,,,,,,,,,,,,,,,,,,,,,,,,,0,7,7,7,0,5,5,5,,,,,,,,,,,,,,,,,,,1349.4738583750004,p,0.36225966599886306,1349.9112187499995,,,,,,,52,A,2025-01-18_08h59.47.191,EPIDM,2023.1.2,None,
8161.jpg,1900.jpg,4 Points,4 Points,434 Points,PS1_L8.csv,,,,,,,,,,,,,,,,,,,,,,,,,,,,,0,7,7,7,0,6,6,6,,,,,,,,,,,,,,,,,,,1354.159309374998,p,0.46837999900162686,1354.6963724590023,,,,,,,52,A,2025-01-18_08h59.47.191,EPIDM,2023.1.2,None,
1112.jpg,6230.jpg,3 Points,3 Points,437 Points,PS1_L8.csv,,,,,,,,,,,,,,,,,,,,,,,,,,,,,0,7,7,7,0,7,7,7,,,,,,,,,,,,,,,,,,,1358.9427630420032,p,0.6127379160025157,1359.634359249998,,,,,,,52,A,2025-01-18_08h59.47.191,EPIDM,2023.1.2,None,
1111.jpg,1040.jpg,0 Points,0 Points,437 Points,PS1_L8.csv,,,,,,,,,,,,,,,,,,,,,,,,,,,,,0,7,7,7,0,8,8,8,,,,,,,,,,,,,,,,,,,1363.8748711669978,q,0.7912110410034074,1364.7420294170006,,,,,,,52,A,2025-01-18_08h59.47.191,EPIDM,2023.1.2,None,
5622.jpg,9156.jpg,4 Points,4 Points,441 Points,PS1_L8.csv,,,,,,,,,,,,,,,,,,,,,,,,,,,,,0,7,7,7,0,9,9,9,,,,,,,,,,,,,,,,,,,1368.9835346250038,p,0.6602169580000918,1369.7194379170032,,,,,,,52,A,2025-01-18_08h59.47.191,EPIDM,2023.1.2,None,
2681.jpg,7100.jpg,3 Points,3 Points,444 Points,PS1_L8.csv,,,,,,,,,,,,,,,,,,,,,,,,,,,,,0,7,7,7,0,10,10,10,,,,,,,,,,,,,,,,,,,1373.9520863750004,q,0.8668889990003663,1374.8972445000036,,,,,,,52,A,2025-01-18_08h59.47.191,EPIDM,2023.1.2,None,
6821.jpg,9622.jpg,2 Points,2 Points,446 Points,PS1_L8.csv,,,,,,,,,,,,,,,,,,,,,,,,,,,,,0,7,7,7,0,11,11,11,,,,,,,,,,,,,,,,,,,1379.1452556250006,p,0.5298271249994286,1379.7448951249971,,,,,,,52,A,2025-01-18_08h59.47.191,EPIDM,2023.1.2,None,
9490.jpg,9210.jpg,1 Point,1 Point,447 Points,PS1_L8.csv,,,,,,,,,,,,,,,,,,,,,,,,,,,,,0,7,7,7,0,12,12,12,,,,,,,,,,,,,,,,,,,1383.9951394169984,q,0.615005416002532,1384.6702836250042,,,,,,,52,A,2025-01-18_08h59.47.191,EPIDM,2023.1.2,None,
4605.jpg,1510.jpg,4 Points,4 Points,451 Points,PS1_L8.csv,,,,,,,,,,,,,,,,,,,,,,,,,,,,,0,7,7,7,0,13,13,13,,,,,,,,,,,,,,,,,,,1388.9181975840038,p,0.5806050410028547,1389.561975292003,4,1.5606801660032943,,,,,52,A,2025-01-18_08h59.47.191,EPIDM,2023.1.2,None,
2240.jpg,5010.jpg,5 Points,5 Points,456 Points,PS1_L8.csv,,,,,,,,,,,,,,,,,,,,,,,,,,,,,0,7,7,7,0,14,14,14,,,,,,,,,,,,,,,,,,,1395.448107666998,p,0.8188974579970818,1396.3346656670037,,,,,,,52,A,2025-01-18_08h59.47.191,EPIDM,2023.1.2,None,
3102.jpg,F032.jpg,1 Point,1 Point,457 Points,PS1_L8.csv,,,,,,,,,,,,,,,,,,,,,,,,,,,,,0,7,7,7,0,15,15,15,,,,,,,,,,,,,,,,,,,1400.5683250840011,q,0.4425496249969001,1401.1175885839984,,,,,,,52,A,2025-01-18_08h59.47.191,EPIDM,2023.1.2,None,
4100.jpg,6570.2.jpg,3 Points,3 Points,460 Points,PS1_L8.csv,,,,,,,,,,,,,,,,,,,,,,,,,,,,,0,7,7,7,0,16,16,16,,,,,,,,,,,,,,,,,,,1405.3206700419978,p,0.9701395410011173,1406.3621129169987,,,,,,,52,A,2025-01-18_08h59.47.191,EPIDM,2023.1.2,None,
2650.jpg,4531.jpg,5 Points,5 Points,465 Points,PS1_L8.csv,,,,,,,,,,,,,,,,,,,,,,,,,,,,,0,7,7,7,0,17,17,17,,,,,,,,,,,,,,,,,,,1410.603936667001,p,1.2711782490005135,1411.957071500001,,,,,,,52,A,2025-01-18_08h59.47.191,EPIDM,2023.1.2,None,
9320.jpg,9007.jpg,0 Points,0 Points,465 Points,PS1_L8.csv,,,,,,,,,,,,,,,,,,,,,,,,,,,,,0,7,7,7,0,18,18,18,,,,,,,,,,,,,,,,,,,1416.1975382090022,q,0.7962414170033298,1417.0747135420024,,,,,,,52,A,2025-01-18_08h59.47.191,EPIDM,2023.1.2,None,
8460.jpg,8330.jpg,0 Points,0 Points,465 Points,PS1_L8.csv,,,,,,,,,,,,,,,,,,,,,,,,,,,,,0,7,7,7,0,19,19,19,,,,,,,,,,,,,,,,,,,1421.3107049590035,q,1.5873802909991355,1422.964476084002,,,,,,,52,A,2025-01-18_08h59.47.191,EPIDM,2023.1.2,None,
2570.jpg,5500.jpg,3 Points,3 Points,468 Points,PS1_L8.csv,,,,,,,,,,,,,,,,,,,,,,,,,,,,,0,7,7,7,0,20,20,20,,,,,,,,,,,,,,,,,,,1427.2144233750005,p,0.30825870799890254,1427.5971294170013,,,,,,,52,A,2025-01-18_08h59.47.191,EPIDM,2023.1.2,None,
6190.jpg,3120.jpg,5 Points,5 Points,473 Points,PS1_L8.csv,,,,,,,,,,,,,,,,,,,,,,,,,,,,,0,7,7,7,0,21,21,21,,,,,,,,,,,,,,,,,,,1431.8442089169985,p,0.4932998750009574,1432.4076910000003,,,,,,,52,A,2025-01-18_08h59.47.191,EPIDM,2023.1.2,None,
2200.jpg,4598.jpg,1 Point,1 Point,474 Points,PS1_L8.csv,,,,,,,,,,,,,,,,,,,,,,,,,,,,,0,7,7,7,0,22,22,22,,,,,,,,,,,,,,,,,,,1436.649436874999,p,0.8084803749952698,1437.529973417004,,,,,,,52,A,2025-01-18_08h59.47.191,EPIDM,2023.1.2,None,
1303.jpg,2000.jpg,0 Points,0 Points,474 Points,PS1_L8.csv,,,,,,,,,,,,,,,,,,,,,,,,,,,,,0,7,7,7,0,23,23,23,,,,,,,,,,,,,,,,,,,1441.7663824170013,q,0.5549175830019522,1442.395431208999,,,,1452.8762492919996,space,1.3238494580073166,52,A,2025-01-18_08h59.47.191,EPIDM,2023.1.2,None,
9010.jpg,9253.jpg,0 Points,0 Points,474 Points,PS1_L9.csv,,,,,,,,,,,,,,,,,,,,,,,,,,,,,0,8,8,8,0,0,0,0,,,,,,,,,,,,,,,,,,,1457.510016459004,p,0.6667674999989686,1458.2407293750002,,,,,,,52,A,2025-01-18_08h59.47.191,EPIDM,2023.1.2,None,
1302.jpg,2700.jpg,3 Points,3 Points,477 Points,PS1_L9.csv,,,,,,,,,,,,,,,,,,,,,,,,,,,,,0,8,8,8,0,1,1,1,,,,,,,,,,,,,,,,,,,1462.4928019170038,p,1.1881215409957804,1463.7597160419973,3,1.0018726659982349,,,,,52,A,2025-01-18_08h59.47.191,EPIDM,2023.1.2,None,
2030.jpg,2495.jpg,0 Points,0 Points,477 Points,PS1_L9.csv,,,,,,,,,,,,,,,,,,,,,,,,,,,,,0,8,8,8,0,2,2,2,,,,,,,,,,,,,,,,,,,1469.0529784169994,p,0.9165874170066672,1470.0364267089972,,,,,,,52,A,2025-01-18_08h59.47.191,EPIDM,2023.1.2,None,
2110.jpg,7260.jpg,5 Points,5 Points,482 Points,PS1_L9.csv,,,,,,,,,,,,,,,,,,,,,,,,,,,,,0,8,8,8,0,3,3,3,,,,,,,,,,,,,,,,,,,1474.279127583999,q,0.8740526660039905,1475.2231672499984,,,,,,,52,A,2025-01-18_08h59.47.191,EPIDM,2023.1.2,None,
2053.jpg,9415.jpg,4 Points,4 Points,486 Points,PS1_L9.csv,,,,,,,,,,,,,,,,,,,,,,,,,,,,,0,8,8,8,0,4,4,4,,,,,,,,,,,,,,,,,,,1479.4691847089998,q,1.2276228740010993,1480.7722859170026,,,,,,,52,A,2025-01-18_08h59.47.191,EPIDM,2023.1.2,None,
6211.jpg,9611.jpg,3 Points,3 Points,489 Points,PS1_L9.csv,,,,,,,,,,,,,,,,,,,,,,,,,,,,,0,8,8,8,0,5,5,5,,,,,,,,,,,,,,,,,,,1485.038911208998,q,0.8252170830019168,1485.9282243749985,,,,,,,52,A,2025-01-18_08h59.47.191,EPIDM,2023.1.2,None,
8350.jpg,7190.jpg,5 Points,5 Points,494 Points,PS1_L9.csv,,,,,,,,,,,,,,,,,,,,,,,,,,,,,0,8,8,8,0,6,6,6,,,,,,,,,,,,,,,,,,,1490.1793195420032,p,0.7490071240026737,1491.0001209589973,,,,,,,52,A,2025-01-18_08h59.47.191,EPIDM,2023.1.2,None,
9340.jpg,6910.jpg,0 Points,0 Points,494 Points,PS1_L9.csv,,,,,,,,,,,,,,,,,,,,,,,,,,,,,0,8,8,8,0,7,7,7,,,,,,,,,,,,,,,,,,,1495.2381261249975,q,1.4428441249983734,1496.7547449589983,,,,,,,52,A,2025-01-18_08h59.47.191,EPIDM,2023.1.2,None,
4533.jpg,2385.jpg,3 Points,3 Points,497 Points,PS1_L9.csv,,,,,,,,,,,,,,,,,,,,,,,,,,,,,0,8,8,8,0,8,8,8,,,,,,,,,,,,,,,,,,,1500.9915566670024,p,0.9679227500018897,1502.032448375001,,,,,,,52,A,2025-01-18_08h59.47.191,EPIDM,2023.1.2,None,
5940.jpg,9411.jpg,0 Points,0 Points,497 Points,PS1_L9.csv,,,,,,,,,,,,,,,,,,,,,,,,,,,,,0,8,8,8,0,9,9,9,,,,,,,,,,,,,,,,,,,1506.2725482090027,p,1.15187508300005,1507.4953954590019,,,,,,,52,A,2025-01-18_08h59.47.191,EPIDM,2023.1.2,None,
2220.jpg,2010.jpg,5 Points,5 Points,502 Points,PS1_L9.csv,,,,,,,,,,,,,,,,,,,,,,,,,,,,,0,8,8,8,0,10,10,10,,,,,,,,,,,,,,,,,,,1511.7281785000014,p,0.7195494170009624,1512.5208652090005,,,,,,,52,A,2025-01-18_08h59.47.191,EPIDM,2023.1.2,None,
9500.jpg,6360.jpg,1 Point,1 Point,503 Points,PS1_L9.csv,,,,,,,,,,,,,,,,,,,,,,,,,,,,,0,8,8,8,0,11,11,11,,,,,,,,,,,,,,,,,,,1516.7578365840018,p,0.8336030829959782,1517.661363500003,,,,,,,52,A,2025-01-18_08h59.47.191,EPIDM,2023.1.2,None,
2092.jpg,2210.jpg,0 Points,0 Points,503 Points,PS1_L9.csv,,,,,,,,,,,,,,,,,,,,,,,,,,,,,0,8,8,8,0,12,12,12,,,,,,,,,,,,,,,,,,,1521.8983330420015,q,0.6613369170008809,1522.6275748339976,,,,,,,52,A,2025-01-18_08h59.47.191,EPIDM,2023.1.2,None,
9530.jpg,9220.jpg,1 Point,1 Point,504 Points,PS1_L9.csv,,,,,,,,,,,,,,,,,,,,,,,,,,,,,0,8,8,8,0,13,13,13,,,,,,,,,,,,,,,,,,,1526.866886584001,q,1.7652447080035927,1528.6923951249992,1,1.1207889580036863,,,,,52,A,2025-01-18_08h59.47.191,EPIDM,2023.1.2,None,
9254.jpg,9290.jpg,2 Points,2 Points,506 Points,PS1_L9.csv,,,,,,,,,,,,,,,,,,,,,,,,,,,,,0,8,8,8,0,14,14,14,,,,,,,,,,,,,,,,,,,1534.1248524589973,q,1.0433323749966803,1535.230198834004,,,,,,,52,A,2025-01-18_08h59.47.191,EPIDM,2023.1.2,None,
4608.jpg,8320.jpg,1 Point,1 Point,507 Points,PS1_L9.csv,,,,,,,,,,,,,,,,,,,,,,,,,,,,,0,8,8,8,0,15,15,15,,,,,,,,,,,,,,,,,,,1539.4806522920044,p,0.8950888740000664,1540.4468144170023,,,,,,,52,A,2025-01-18_08h59.47.191,EPIDM,2023.1.2,None,
7237.jpg,8510.jpg,4 Points,4 Points,511 Points,PS1_L9.csv,,,,,,,,,,,,,,,,,,,,,,,,,,,,,0,8,8,8,0,16,16,16,,,,,,,,,,,,,,,,,,,1544.7005860420031,q,0.9868529999948805,1545.7507631249973,,,,,,,52,A,2025-01-18_08h59.47.191,EPIDM,2023.1.2,None,
9417.jpg,6530.jpg,1 Point,1 Point,512 Points,PS1_L9.csv,,,,,,,,,,,,,,,,,,,,,,,,,,,,,0,8,8,8,0,17,17,17,,,,,,,,,,,,,,,,,,,1549.9939357090043,q,0.8283650829980616,1550.9024334589994,,,,,,,52,A,2025-01-18_08h59.47.191,EPIDM,2023.1.2,None,
6831.jpg,2141.jpg,5 Points,5 Points,517 Points,PS1_L9.csv,,,,,,,,,,,,,,,,,,,,,,,,,,,,,0,8,8,8,0,18,18,18,,,,,,,,,,,,,,,,,,,1555.1475465420008,q,0.8510832489992026,1556.0734881250028,,,,,,,52,A,2025-01-18_08h59.47.191,EPIDM,2023.1.2,None,
4689.jpg,7009.jpg,5 Points,5 Points,522 Points,PS1_L9.csv,,,,,,,,,,,,,,,,,,,,,,,,,,,,,0,8,8,8,0,19,19,19,,,,,,,,,,,,,,,,,,,1560.3169849999977,q,0.6092588329993305,1560.988821209001,,,,,,,52,A,2025-01-18_08h59.47.191,EPIDM,2023.1.2,None,
2751.jpg,6313.jpg,3 Points,3 Points,525 Points,PS1_L9.csv,,,,,,,,,,,,,,,,,,,,,,,,,,,,,0,8,8,8,0,20,20,20,,,,,,,,,,,,,,,,,,,1565.2303156670023,p,0.7921102920008707,1566.0891950000005,,,,,,,52,A,2025-01-18_08h59.47.191,EPIDM,2023.1.2,None,
4621.jpg,3550.jpg,2 Points,2 Points,527 Points,PS1_L9.csv,,,,,,,,,,,,,,,,,,,,,,,,,,,,,0,8,8,8,0,21,21,21,,,,,,,,,,,,,,,,,,,1570.3241759169978,p,0.6904782080018776,1571.0872794590032,,,,,,,52,A,2025-01-18_08h59.47.191,EPIDM,2023.1.2,None,
8220.jpg,2410.jpg,4 Points,4 Points,531 Points,PS1_L9.csv,,,,,,,,,,,,,,,,,,,,,,,,,,,,,0,8,8,8,0,22,22,22,,,,,,,,,,,,,,,,,,,1575.3351136670026,p,0.8065909580036532,1576.1882917090043,,,,,,,52,A,2025-01-18_08h59.47.191,EPIDM,2023.1.2,None,
1113.jpg,1240.jpg,3 Points,3 Points,534 Points,PS1_L9.csv,,,,,,,,,,,,,,,,,,,,,,,,,,,,,0,8,8,8,0,23,23,23,,,,,,,,,,,,,,,,,,,1580.4508097920043,p,0.9234970000034082,1581.4513020419981,,,,1591.918568125002,space,1.0001120829983847,52,A,2025-01-18_08h59.47.191,EPIDM,2023.1.2,None,
2750.jpg,9050.jpg,4 Points,4 Points,538 Points,PS1_L10.csv,,,,,,,,,,,,,,,,,,,,,,,,,,,,,0,9,9,9,0,0,0,0,,,,,,,,,,,,,,,,,,,1596.2263089999979,q,0.66770337500202,1596.9580101669999,,,,,,,52,A,2025-01-18_08h59.47.191,EPIDM,2023.1.2,None,
2312.jpg,2722.jpg,1 Points,1 Points,539 Points,PS1_L10.csv,,,,,,,,,,,,,,,,,,,,,,,,,,,,,0,9,9,9,0,1,1,1,,,,,,,,,,,,,,,,,,,1601.199362291998,q,0.7263742910072324,1601.9857938339992,1,1.2743642080022255,,,,,52,A,2025-01-18_08h59.47.191,EPIDM,2023.1.2,None,
8232.jpg,4279.jpg,5 Points,5 Points,544 Points,PS1_L10.csv,,,,,,,,,,,,,,,,,,,,,,,,,,,,,0,9,9,9,0,2,2,2,,,,,,,,,,,,,,,,,,,1607.5656444170017,p,0.7430865420028567,1608.388969833999,,,,,,,52,A,2025-01-18_08h59.47.191,EPIDM,2023.1.2,None,
6000.jpg,6836.jpg,4 Points,4 Points,548 Points,PS1_L10.csv,,,,,,,,,,,,,,,,,,,,,,,,,,,,,0,9,9,9,0,3,3,3,,,,,,,,,,,,,,,,,,,1612.6230280000018,p,0.6785534579976229,1613.3715804590029,,,,,,,52,A,2025-01-18_08h59.47.191,EPIDM,2023.1.2,None,
4536.jpg,2280.jpg,4 Points,4 Points,552 Points,PS1_L10.csv,,,,,,,,,,,,,,,,,,,,,,,,,,,,,0,9,9,9,0,4,4,4,,,,,,,,,,,,,,,,,,,1617.6083067919972,p,0.8534641250007553,1618.5413621670014,,,,,,,52,A,2025-01-18_08h59.47.191,EPIDM,2023.1.2,None,
6241.jpg,9561.jpg,3 Points,3 Points,555 Points,PS1_L10.csv,,,,,,,,,,,,,,,,,,,,,,,,,,,,,0,9,9,9,0,5,5,5,,,,,,,,,,,,,,,,,,,1622.7794221250006,q,0.7692513750080252,1623.6251077499983,,,,,,,52,A,2025-01-18_08h59.47.191,EPIDM,2023.1.2,None,
1942.jpg,2890.jpg,1 Points,1 Points,556 Points,PS1_L10.csv,,,,,,,,,,,,,,,,,,,,,,,,,,,,,0,9,9,9,0,6,6,6,,,,,,,,,,,,,,,,,,,1627.8626918340015,q,0.5338360000023386,1628.457394625002,,,,,,,52,A,2025-01-18_08h59.47.191,EPIDM,2023.1.2,None,
6020.jpg,6300.jpg,2 Points,2 Points,558 Points,PS1_L10.csv,,,,,,,,,,,,,,,,,,,,,,,,,,,,,0,9,9,9,0,7,7,7,,,,,,,,,,,,,,,,,,,1632.7183746250012,q,0.6621287080051843,1633.4479545840004,,,,,,,52,A,2025-01-18_08h59.47.191,EPIDM,2023.1.2,None,
7170.jpg,2170.jpg,2 Points,2 Points,560 Points,PS1_L10.csv,,,,,,,,,,,,,,,,,,,,,,,,,,,,,0,9,9,9,0,8,8,8,,,,,,,,,,,,,,,,,,,1637.6985852090002,q,0.7545792079981766,1638.5217726249975,,,,,,,52,A,2025-01-18_08h59.47.191,EPIDM,2023.1.2,None,
5510.jpg,2514.jpg,5 Points,5 Points,565 Points,PS1_L10.csv,,,,,,,,,,,,,,,,,,,,,,,,,,,,,0,9,9,9,0,9,9,9,,,,,,,,,,,,,,,,,,,1642.7551264170033,q,0.5377053330012131,1643.360038167004,,,,,,,52,A,2025-01-18_08h59.47.191,EPIDM,2023.1.2,None,
6840.jpg,3080.jpg,1 Points,1 Points,566 Points,PS1_L10.csv,,,,,,,,,,,,,,,,,,,,,,,,,,,,,0,9,9,9,0,10,10,10,,,,,,,,,,,,,,,,,,,1647.6019399590004,p,0.7308212910065777,1648.4027035839972,,,,,,,52,A,2025-01-18_08h59.47.191,EPIDM,2023.1.2,None,
7195.jpg,2487.jpg,2 Points,2 Points,568 Points,PS1_L10.csv,,,,,,,,,,,,,,,,,,,,,,,,,,,,,0,9,9,9,0,11,11,11,,,,,,,,,,,,,,,,,,,1652.6513034590025,q,0.4568699579976965,1653.1743328340017,,,,,,,52,A,2025-01-18_08h59.47.191,EPIDM,2023.1.2,None,
5971.jpg,9912.jpg,5 Points,5 Points,573 Points,PS1_L10.csv,,,,,,,,,,,,,,,,,,,,,,,,,,,,,0,9,9,9,0,12,12,12,,,,,,,,,,,,,,,,,,,1657.4114695419994,p,0.4885708750007325,1657.9748153750043,,,,,,,52,A,2025-01-18_08h59.47.191,EPIDM,2023.1.2,None,
2520.jpg,8503.jpg,2 Points,2 Points,575 Points,PS1_L10.csv,,,,,,,,,,,,,,,,,,,,,,,,,,,,,0,9,9,9,0,13,13,13,,,,,,,,,,,,,,,,,,,1662.214390125002,p,0.6845829989979393,1662.973881124999,2,1.2777984990025288,,,,,52,A,2025-01-18_08h59.47.191,EPIDM,2023.1.2,None,
5480.jpg,8200.jpg,4 Points,4 Points,579 Points,PS1_L10.csv,,,,,,,,,,,,,,,,,,,,,,,,,,,,,0,9,9,9,0,14,14,14,,,,,,,,,,,,,,,,,,,1668.5702844999978,q,0.7776347079998231,1669.4255769169977,,,,,,,52,A,2025-01-18_08h59.47.191,EPIDM,2023.1.2,None,
6370.jpg,1270.jpg,4 Points,4 Points,583 Points,PS1_L10.csv,,,,,,,,,,,,,,,,,,,,,,,,,,,,,0,9,9,9,0,15,15,15,,,,,,,,,,,,,,,,,,,1673.654949208998,q,0.6447814159982954,1674.3760704590022,,,,,,,52,A,2025-01-18_08h59.47.191,EPIDM,2023.1.2,None,
5130.jpg,1810.jpg,3 Points,3 Points,586 Points,PS1_L10.csv,,,,,,,,,,,,,,,,,,,,,,,,,,,,,0,9,9,9,0,16,16,16,,,,,,,,,,,,,,,,,,,1678.6143555000017,q,0.6536216659951606,1679.342662959003,,,,,,,52,A,2025-01-18_08h59.47.191,EPIDM,2023.1.2,None,
4250.jpg,7060.jpg,5 Points,5 Points,591 Points,PS1_L10.csv,,,,,,,,,,,,,,,,,,,,,,,,,,,,,0,9,9,9,0,17,17,17,,,,,,,,,,,,,,,,,,,1683.573716125,q,1.2939457490065251,1684.944050750004,,,,,,,52,A,2025-01-18_08h59.47.191,EPIDM,2023.1.2,None,
9373.jpg,9410.jpg,0 Points,0 Points,591 Points,PS1_L10.csv,,,,,,,,,,,,,,,,,,,,,,,,,,,,,0,9,9,9,0,18,18,18,,,,,,,,,,,,,,,,,,,1689.1842898750037,p,1.2188842489995295,1690.484610792002,,,,,,,52,A,2025-01-18_08h59.47.191,EPIDM,2023.1.2,None,
2221.jpg,2270.jpg,2 Points,2 Points,593 Points,PS1_L10.csv,,,,,,,,,,,,,,,,,,,,,,,,,,,,,0,9,9,9,0,19,19,19,,,,,,,,,,,,,,,,,,,1694.7274798340004,q,1.1713261250042706,1695.9613176670027,,,,,,,52,A,2025-01-18_08h59.47.191,EPIDM,2023.1.2,None,
1650.jpg,2130.jpg,1 Points,1 Points,594 Points,PS1_L10.csv,,,,,,,,,,,,,,,,,,,,,,,,,,,,,0,9,9,9,0,20,20,20,,,,,,,,,,,,,,,,,,,1700.213615624998,p,0.877994165995915,1701.1634124170014,,,,,,,52,A,2025-01-18_08h59.47.191,EPIDM,2023.1.2,None,
1280.jpg,9402.jpg,2 Points,2 Points,596 Points,PS1_L10.csv,,,,,,,,,,,,,,,,,,,,,,,,,,,,,0,9,9,9,0,21,21,21,,,,,,,,,,,,,,,,,,,1705.4063473339993,q,1.1965433330042288,1706.6681078340043,,,,,,,52,A,2025-01-18_08h59.47.191,EPIDM,2023.1.2,None,
2214.jpg,4500.jpg,3 Points,3 Points,599 Points,PS1_L10.csv,,,,,,,,,,,,,,,,,,,,,,,,,,,,,0,9,9,9,0,22,22,22,,,,,,,,,,,,,,,,,,,1710.9271107500026,p,1.0750081250007497,1712.0789014589973,,,,,,,52,A,2025-01-18_08h59.47.191,EPIDM,2023.1.2,None,
7284.jpg,8021.jpg,4 Points,4 Points,603 Points,PS1_L10.csv,,,,,,,,,,,,,,,,,,,,,,,,,,,,,0,9,9,9,0,23,23,23,,,,,,,,,,,,,,,,,,,1716.3198193749995,q,0.7784700420015724,1717.1706564589986,,,,1727.630421834001,space,0.6679012909953599,52,A,2025-01-18_08h59.47.191,EPIDM,2023.1.2,None,
