L_Scene,R_Scene,Points_L,Points_R,PtTotal,blockFile,Instructions_Loop.thisRepN,Instructions_Loop.thisTrialN,Instructions_Loop.thisN,Instructions_Loop.thisIndex,Redo_Instructions_Loop.thisRepN,Redo_Instructions_Loop.thisTrialN,Redo_Instructions_Loop.thisN,Redo_Instructions_Loop.thisIndex,Practice_Encoding_Loop.thisRepN,Practice_Encoding_Loop.thisTrialN,Practice_Encoding_Loop.thisN,Practice_Encoding_Loop.thisIndex,Practice_Response_Fail_Loop.thisRepN,Practice_Response_Fail_Loop.thisTrialN,Practice_Response_Fail_Loop.thisN,Practice_Response_Fail_Loop.thisIndex,Practice_FB_Loop.thisRepN,Practice_FB_Loop.thisTrialN,Practice_FB_Loop.thisN,Practice_FB_Loop.thisIndex,Practice_Attention_Loop.thisRepN,Practice_Attention_Loop.thisTrialN,Practice_Attention_Loop.thisN,Practice_Attention_Loop.thisIndex,Practice_EncBrk_Loop.thisRepN,Practice_EncBrk_Loop.thisTrialN,Practice_EncBrk_Loop.thisN,Practice_EncBrk_Loop.thisIndex,Encoding_Loop.thisRepN,Encoding_Loop.thisTrialN,Encoding_Loop.thisN,Encoding_Loop.thisIndex,EncStim_Loop.thisRepN,EncStim_Loop.thisTrialN,EncStim_Loop.thisN,EncStim_Loop.thisIndex,Response_Fail_Loop.thisRepN,Response_Fail_Loop.thisTrialN,Response_Fail_Loop.thisN,Response_Fail_Loop.thisIndex,FB_Loop.thisRepN,FB_Loop.thisTrialN,FB_Loop.thisN,FB_Loop.thisIndex,Attention_Loop.thisRepN,Attention_Loop.thisTrialN,Attention_Loop.thisN,Attention_Loop.thisIndex,EncBrk_Loop.thisRepN,EncBrk_Loop.thisTrialN,EncBrk_Loop.thisN,EncBrk_Loop.thisIndex,Transition_Enc.keys,Transition_Enc.rt,Encoding_Resp.started,Encoding_Resp.keys,Encoding_Resp.rt,R_Point_FB_Stim.started,Attn_resp.keys,Attn_resp.rt,Progress_Tracker.started,EncBrk_Resp.keys,EncBrk_Resp.rt,participant,Group,date,expName,psychopyVersion,frameRate,
,,,,,,,,,,,,,,,,,,,,,,,,,,,,,,,,,,,,,,,,,,,,,,,,,,,,,,,,,,space,5.836306874000002,,,,,,,,,,59,A,2025-02-08_13h03.15.214,EPIDM,2023.1.2,61.02443265111014,
A060.jpg,F041.jpg,5 Points,5 Points,5 Points,,,,,,,,,,0,0,0,0,,,,,,,,,,,,,,,,,,,,,,,,,,,,,,,,,,,,,,,,,,,344.155752792,q,3.138181750000001,347.439847459,,,,,,59,A,2025-02-08_13h03.15.214,EPIDM,2023.1.2,61.02443265111014,
O161.jpg,1812.jpg,2 Points,2 Points,7 Points,,,,,,,,,,0,1,1,1,,,,,,,,,,,,,,,,,,,,,,,,,,,,,,,,,,,,,,,,,,,351.618544792,p,1.4590988330000414,353.215812709,,,,,,59,A,2025-02-08_13h03.15.214,EPIDM,2023.1.2,61.02443265111014,
O013.jpg,A001.jpg,3 Points,3 Points,10 Points,,,,,,,,,,0,2,2,2,,,,,,,,,,,,,,,,,,,,,,,,,,,,,,,,,,,,,,,,,,,357.390455917,q,2.790495374000045,360.327315792,,,,,,59,A,2025-02-08_13h03.15.214,EPIDM,2023.1.2,61.02443265111014,
P036.jpg,F273.jpg,5 Points,5 Points,15 Points,,,,,,,,,,0,3,3,3,,,,,,,,,,,,,,,,,,,,,,,,,,,,,,,,,,,,,,,,,,,364.52203125,p,3.196980832999941,367.886796,,,,,,59,A,2025-02-08_13h03.15.214,EPIDM,2023.1.2,61.02443265111014,
L130.jpg,2393.jpg,0 Points,0 Points,15 Points,,,,,,,,,,0,4,4,4,,,,,,,,,,,,,,,,,,,,,,,,,,,,,,,,,,,,,,,,,,,372.037056209,q,2.9527115830000525,375.142798,0,4.43111099999993,,,,59,A,2025-02-08_13h03.15.214,EPIDM,2023.1.2,61.02443265111014,
F279.jpg,P033.jpg,3 Points,3 Points,18 Points,,,,,,,,,,0,5,5,5,,,,,,,,,,,,,,,,,,,,,,,,,,,,,,,,,,,,,,,,,,,383.851059334,q,2.6741579989999877,386.662365167,,,,,,59,A,2025-02-08_13h03.15.214,EPIDM,2023.1.2,61.02443265111014,
A104.jpg,2593.jpg,2 Points,2 Points,20 Points,,,,,,,,,,0,6,6,6,,,,,,,,,,,,,,,,,,,,,,,,,,,,,,,,,,,,,,,,,,,390.84118241699997,q,2.1226582909999365,393.10491604199996,,,,,,59,A,2025-02-08_13h03.15.214,EPIDM,2023.1.2,61.02443265111014,
2598.jpg,2605.jpg,0 Points,0 Points,20 Points,,,,,,,,,,0,7,7,7,,,,,,,,,,,,,,,,,,,,,,,,,,,,,,,,,,,,,,,,,,,397.29180116699996,q,1.8329900409999595,399.18085345900005,,,,,,59,A,2025-02-08_13h03.15.214,EPIDM,2023.1.2,61.02443265111014,
L005.jpg,O011.jpg,1 Points,1 Points,21 Points,,,,,,,,,,0,8,8,8,,,,,,,,,,,,,,,,,,,,,,,,,,,,,,,,,,,,,,,,,,,403.45486695899996,q,2.589950748999911,406.18154595899995,,,,,,59,A,2025-02-08_13h03.15.214,EPIDM,2023.1.2,61.02443265111014,
8186.jpg,F078.jpg,2 Points,2 Points,23 Points,,,,,,,,,,0,9,9,9,,,,,,,,,,,,,,,,,,,,,,,,,,,,,,,,,,,,,,,,,,,410.36527504199995,p,1.4146115409999425,411.922635792,2,1.8927119580000067,424.02686562499997,space,5.345848915999966,59,A,2025-02-08_13h03.15.214,EPIDM,2023.1.2,61.02443265111014,
,,,,,,,,,,,,,,,,,,,,,,,,,,,,,,,,,,,,,,,,,,,,,,,,,,,,,,,,,,space,2.5557847069999866,,,,,,,,,,59,A,2025-02-08_13h03.15.214,EPIDM,2023.1.2,61.02443265111014,
1019.jpg,2120.jpg,0 Points,0 Points,0 Points,PS1_L1.csv,,,,,,,,,,,,,,,,,,,,,,,,,,,,,0,0,0,0,0,0,0,0,,,,,,,,,,,,,,,,,,,442.678843375,p,2.7009942489999617,445.45711695899996,,,,,,59,A,2025-02-08_13h03.15.214,EPIDM,2023.1.2,61.02443265111014,
6900.jpg,8531.jpg,4 Points,4 Points,4 Points,PS1_L1.csv,,,,,,,,,,,,,,,,,,,,,,,,,,,,,0,0,0,0,0,1,1,1,,,,,,,,,,,,,,,,,,,449.693786667,q,0.9904997489999801,450.748635667,4,2.4446158329998866,,,,59,A,2025-02-08_13h03.15.214,EPIDM,2023.1.2,61.02443265111014,
5594.jpg,5750.jpg,5 Points,5 Points,9 Points,PS1_L1.csv,,,,,,,,,,,,,,,,,,,,,,,,,,,,,0,0,0,0,0,2,2,2,,,,,,,,,,,,,,,,,,,457.52468212499997,q,2.062365707999959,459.66682475,,,,,,59,A,2025-02-08_13h03.15.214,EPIDM,2023.1.2,61.02443265111014,
2205.jpg,3053.jpg,4 Points,4 Points,13 Points,PS1_L1.csv,,,,,,,,,,,,,,,,,,,,,,,,,,,,,0,0,0,0,0,3,3,3,,,,,,,,,,,,,,,,,,,463.907156959,p,1.1283901659999742,465.102737667,,,,,,59,A,2025-02-08_13h03.15.214,EPIDM,2023.1.2,61.02443265111014,
3250.jpg,A053.jpg,3 Points,3 Points,16 Points,PS1_L1.csv,,,,,,,,,,,,,,,,,,,,,,,,,,,,,0,0,0,0,0,4,4,4,,,,,,,,,,,,,,,,,,,469.350460125,q,2.117115874000035,471.56393058400005,,,,,,59,A,2025-02-08_13h03.15.214,EPIDM,2023.1.2,61.02443265111014,
7950.jpg,7187.jpg,1 Point,1 Point,17 Points,PS1_L1.csv,,,,,,,,,,,,,,,,,,,,,,,,,,,,,0,0,0,0,0,5,5,5,,,,,,,,,,,,,,,,,,,475.77623058399996,q,2.2913964579999515,478.176103459,,,,,,59,A,2025-02-08_13h03.15.214,EPIDM,2023.1.2,61.02443265111014,
5535.jpg,8210.jpg,3 Points,3 Points,20 Points,PS1_L1.csv,,,,,,,,,,,,,,,,,,,,,,,,,,,,,0,0,0,0,0,6,6,6,,,,,,,,,,,,,,,,,,,482.383918459,q,1.8353249989999654,484.29781487500003,,,,,,59,A,2025-02-08_13h03.15.214,EPIDM,2023.1.2,61.02443265111014,
9001.jpg,9620.jpg,1 Point,1 Point,21 Points,PS1_L1.csv,,,,,,,,,,,,,,,,,,,,,,,,,,,,,0,0,0,0,0,7,7,7,,,,,,,,,,,,,,,,,,,488.543086417,p,1.7325934159999292,490.35585733399995,,,,,,59,A,2025-02-08_13h03.15.214,EPIDM,2023.1.2,61.02443265111014,
1110.jpg,9331.jpg,2 Points,2 Points,23 Points,PS1_L1.csv,,,,,,,,,,,,,,,,,,,,,,,,,,,,,0,0,0,0,0,8,8,8,,,,,,,,,,,,,,,,,,,494.59853274999995,p,1.9402963319999458,496.6095895,,,,,,59,A,2025-02-08_13h03.15.214,EPIDM,2023.1.2,61.02443265111014,
7820.jpg,1121.jpg,0 Points,0 Points,23 Points,PS1_L1.csv,,,,,,,,,,,,,,,,,,,,,,,,,,,,,0,0,0,0,0,9,9,9,,,,,,,,,,,,,,,,,,,500.86966550000005,q,1.6770679990000303,502.612489834,,,,,,59,A,2025-02-08_13h03.15.214,EPIDM,2023.1.2,61.02443265111014,
7186.jpg,9182.jpg,2 Points,2 Points,25 Points,PS1_L1.csv,,,,,,,,,,,,,,,,,,,,,,,,,,,,,0,0,0,0,0,10,10,10,,,,,,,,,,,,,,,,,,,506.86140704200005,p,1.749512124999967,508.69716895899995,,,,,,59,A,2025-02-08_13h03.15.214,EPIDM,2023.1.2,61.02443265111014,
9280.jpg,9390.jpg,1 Point,1 Point,26 Points,PS1_L1.csv,,,,,,,,,,,,,,,,,,,,,,,,,,,,,0,0,0,0,0,11,11,11,,,,,,,,,,,,,,,,,,,512.9351615,p,1.3003411239999991,514.3095698340001,,,,,,59,A,2025-02-08_13h03.15.214,EPIDM,2023.1.2,61.02443265111014,
2440.jpg,7351.jpg,4 Points,4 Points,30 Points,PS1_L1.csv,,,,,,,,,,,,,,,,,,,,,,,,,,,,,0,0,0,0,0,12,12,12,,,,,,,,,,,,,,,,,,,518.5525767920001,q,1.9220197079999366,520.5477249170001,,,,,,59,A,2025-02-08_13h03.15.214,EPIDM,2023.1.2,61.02443265111014,
6834.jpg,9120.jpg,5 Points,5 Points,35 Points,PS1_L1.csv,,,,,,,,,,,,,,,,,,,,,,,,,,,,,0,0,0,0,0,13,13,13,,,,,,,,,,,,,,,,,,,524.7853352919999,q,3.297639040999968,528.146195,5,1.497393790999979,,,,59,A,2025-02-08_13h03.15.214,EPIDM,2023.1.2,61.02443265111014,
9230.jpg,9181.jpg,0 Points,0 Points,35 Points,PS1_L1.csv,,,,,,,,,,,,,,,,,,,,,,,,,,,,,0,0,0,0,0,14,14,14,,,,,,,,,,,,,,,,,,,533.952972542,q,1.9939057499998967,536.004197084,,,,,,59,A,2025-02-08_13h03.15.214,EPIDM,2023.1.2,61.02443265111014,
8260.jpg,8280.jpg,3 Points,3 Points,38 Points,PS1_L1.csv,,,,,,,,,,,,,,,,,,,,,,,,,,,,,0,0,0,0,0,15,15,15,,,,,,,,,,,,,,,,,,,540.258849417,p,2.9365589999999315,543.2660934590001,,,,,,59,A,2025-02-08_13h03.15.214,EPIDM,2023.1.2,61.02443265111014,
9470.jpg,9400.jpg,3 Points,3 Points,41 Points,PS1_L1.csv,,,,,,,,,,,,,,,,,,,,,,,,,,,,,0,0,0,0,0,16,16,16,,,,,,,,,,,,,,,,,,,547.516476542,p,2.1660063329999844,549.742111042,,,,,,59,A,2025-02-08_13h03.15.214,EPIDM,2023.1.2,61.02443265111014,
2616.jpg,7238.jpg,4 Points,4 Points,45 Points,PS1_L1.csv,,,,,,,,,,,,,,,,,,,,,,,,,,,,,0,0,0,0,0,17,17,17,,,,,,,,,,,,,,,,,,,554.005110417,None,,,,,,,,59,A,2025-02-08_13h03.15.214,EPIDM,2023.1.2,61.02443265111014,
9430.jpg,3010.jpg,5 Points,5 Points,50 Points,PS1_L1.csv,,,,,,,,,,,,,,,,,,,,,,,,,,,,,0,0,0,0,0,18,18,18,,,,,,,,,,,,,,,,,,,561.4965743749999,p,0.9542036249999342,562.515956084,,,,,,59,A,2025-02-08_13h03.15.214,EPIDM,2023.1.2,61.02443265111014,
1661.jpg,1321.jpg,3 Points,3 Points,53 Points,PS1_L1.csv,,,,,,,,,,,,,,,,,,,,,,,,,,,,,0,0,0,0,0,19,19,19,,,,,,,,,,,,,,,,,,,566.7820334999999,p,2.043372665999925,568.8816541250001,,,,,,59,A,2025-02-08_13h03.15.214,EPIDM,2023.1.2,61.02443265111014,
8041.jpg,2271.jpg,2 Points,2 Points,55 Points,PS1_L1.csv,,,,,,,,,,,,,,,,,,,,,,,,,,,,,0,0,0,0,0,20,20,20,,,,,,,,,,,,,,,,,,,573.14394025,p,0.58622004099999,573.793937959,,,,,,59,A,2025-02-08_13h03.15.214,EPIDM,2023.1.2,61.02443265111014,
9180.jpg,9046.jpg,3 Points,3 Points,58 Points,PS1_L1.csv,,,,,,,,,,,,,,,,,,,,,,,,,,,,,0,0,0,0,0,21,21,21,,,,,,,,,,,,,,,,,,,578.050895417,q,1.2626151659999891,579.3807765839999,,,,,,59,A,2025-02-08_13h03.15.214,EPIDM,2023.1.2,61.02443265111014,
2691.jpg,7640.jpg,0 Points,0 Points,58 Points,PS1_L1.csv,,,,,,,,,,,,,,,,,,,,,,,,,,,,,0,0,0,0,0,22,22,22,,,,,,,,,,,,,,,,,,,583.6355066250001,p,1.3899565819999111,585.09401725,,,,,,59,A,2025-02-08_13h03.15.214,EPIDM,2023.1.2,61.02443265111014,
1660.jpg,2840.jpg,2 Points,2 Points,60 Points,PS1_L1.csv,,,,,,,,,,,,,,,,,,,,,,,,,,,,,0,0,0,0,0,23,23,23,,,,,,,,,,,,,,,,,,,589.3524015840001,q,1.2092061659998876,590.6304102920001,,,601.098855667,space,8.462763832000007,59,A,2025-02-08_13h03.15.214,EPIDM,2023.1.2,61.02443265111014,
9480.jpg,9250.jpg,0 Points,0 Points,60 Points,PS1_L2.csv,,,,,,,,,,,,,,,,,,,,,,,,,,,,,0,1,1,1,0,0,0,0,,,,,,,,,,,,,,,,,,,612.87145525,p,2.7608088329999987,615.704280334,,,,,,59,A,2025-02-08_13h03.15.214,EPIDM,2023.1.2,61.02443265111014,
9910.jpg,6940.jpg,2 Points,2 Points,62 Points,PS1_L2.csv,,,,,,,,,,,,,,,,,,,,,,,,,,,,,0,1,1,1,0,1,1,1,,,,,,,,,,,,,,,,,,,619.959113917,p,1.4333985829999278,621.453542,2,1.6156674570000291,,,,59,A,2025-02-08_13h03.15.214,EPIDM,2023.1.2,61.02443265111014,
4535.jpg,1811.jpg,1 Point,1 Point,63 Points,PS1_L2.csv,,,,,,,,,,,,,,,,,,,,,,,,,,,,,0,1,1,1,0,2,2,2,,,,,,,,,,,,,,,,,,,627.3995725,q,2.089772499999924,629.5635158749999,,,,,,59,A,2025-02-08_13h03.15.214,EPIDM,2023.1.2,61.02443265111014,
2020.jpg,1947.jpg,5 Points,5 Points,68 Points,PS1_L2.csv,,,,,,,,,,,,,,,,,,,,,,,,,,,,,0,1,1,1,0,3,3,3,,,,,,,,,,,,,,,,,,,633.8025367089999,p,1.1500278739999317,635.0248085840001,,,,,,59,A,2025-02-08_13h03.15.214,EPIDM,2023.1.2,61.02443265111014,
9160.jpg,1200.jpg,4 Points,4 Points,72 Points,PS1_L2.csv,,,,,,,,,,,,,,,,,,,,,,,,,,,,,0,1,1,1,0,4,4,4,,,,,,,,,,,,,,,,,,,639.266352959,p,0.8537274990000583,640.1983735419999,,,,,,59,A,2025-02-08_13h03.15.214,EPIDM,2023.1.2,61.02443265111014,
9520.jpg,1931.jpg,3 Points,3 Points,75 Points,PS1_L2.csv,,,,,,,,,,,,,,,,,,,,,,,,,,,,,0,1,1,1,0,5,5,5,,,,,,,,,,,,,,,,,,,644.439819167,q,2.279624915999932,646.7917119589999,,,,,,59,A,2025-02-08_13h03.15.214,EPIDM,2023.1.2,61.02443265111014,
7830.jpg,2499.jpg,3 Points,3 Points,78 Points,PS1_L2.csv,,,,,,,,,,,,,,,,,,,,,,,,,,,,,0,1,1,1,0,6,6,6,,,,,,,,,,,,,,,,,,,651.0449268750001,p,1.939086040999939,653.041921792,,,,,,59,A,2025-02-08_13h03.15.214,EPIDM,2023.1.2,61.02443265111014,
6830.jpg,6212.jpg,4 Points,4 Points,82 Points,PS1_L2.csv,,,,,,,,,,,,,,,,,,,,,,,,,,,,,0,1,1,1,0,7,7,7,,,,,,,,,,,,,,,,,,,657.2996995420001,q,1.7318679579998957,659.0955524169999,,,,,,59,A,2025-02-08_13h03.15.214,EPIDM,2023.1.2,61.02443265111014,
7285.jpg,4233.jpg,5 Points,5 Points,87 Points,PS1_L2.csv,,,,,,,,,,,,,,,,,,,,,,,,,,,,,0,1,1,1,0,8,8,8,,,,,,,,,,,,,,,,,,,663.3584847919999,q,1.6414759159999335,665.0721156669999,,,,,,59,A,2025-02-08_13h03.15.214,EPIDM,2023.1.2,61.02443265111014,
1740.jpg,7480.jpg,0 Points,0 Points,87 Points,PS1_L2.csv,,,,,,,,,,,,,,,,,,,,,,,,,,,,,0,1,1,1,0,9,9,9,,,,,,,,,,,,,,,,,,,669.315905834,q,1.4285406659999467,670.81228725,,,,,,59,A,2025-02-08_13h03.15.214,EPIDM,2023.1.2,61.02443265111014,
7380.jpg,1220.jpg,1 Point,1 Point,88 Points,PS1_L2.csv,,,,,,,,,,,,,,,,,,,,,,,,,,,,,0,1,1,1,0,10,10,10,,,,,,,,,,,,,,,,,,,675.0570345839999,p,0.6307796239998993,675.7438936670001,,,,,,59,A,2025-02-08_13h03.15.214,EPIDM,2023.1.2,61.02443265111014,
3061.jpg,2717.jpg,4 Points,4 Points,92 Points,PS1_L2.csv,,,,,,,,,,,,,,,,,,,,,,,,,,,,,0,1,1,1,0,11,11,11,,,,,,,,,,,,,,,,,,,680.0024033340001,q,0.8285272499999223,680.8828176669999,,,,,,59,A,2025-02-08_13h03.15.214,EPIDM,2023.1.2,61.02443265111014,
5460.jpg,5800.jpg,0 Points,0 Points,92 Points,PS1_L2.csv,,,,,,,,,,,,,,,,,,,,,,,,,,,,,0,1,1,1,0,12,12,12,,,,,,,,,,,,,,,,,,,685.1490442090001,q,1.6023153749999324,686.8300542920001,,,,,,59,A,2025-02-08_13h03.15.214,EPIDM,2023.1.2,61.02443265111014,
2215.jpg,2512.jpg,1 Point,1 Point,93 Points,PS1_L2.csv,,,,,,,,,,,,,,,,,,,,,,,,,,,,,0,1,1,1,0,13,13,13,,,,,,,,,,,,,,,,,,,691.074617584,q,1.1729693739999334,692.3180116670001,1,3.015992623999921,,,,59,A,2025-02-08_13h03.15.214,EPIDM,2023.1.2,61.02443265111014,
3000.jpg,6200.jpg,5 Points,5 Points,98 Points,PS1_L2.csv,,,,,,,,,,,,,,,,,,,,,,,,,,,,,0,1,1,1,0,14,14,14,,,,,,,,,,,,,,,,,,,699.651988334,q,1.8352342499999281,701.557038959,,,,,,59,A,2025-02-08_13h03.15.214,EPIDM,2023.1.2,61.02443265111014,
1945.jpg,2800.jpg,4 Points,4 Points,102 Points,PS1_L2.csv,,,,,,,,,,,,,,,,,,,,,,,,,,,,,0,1,1,1,0,15,15,15,,,,,,,,,,,,,,,,,,,705.811552167,p,1.7483232909999629,707.624725834,,,,,,59,A,2025-02-08_13h03.15.214,EPIDM,2023.1.2,61.02443265111014,
5660.jpg,5201.jpg,0 Points,0 Points,102 Points,PS1_L2.csv,,,,,,,,,,,,,,,,,,,,,,,,,,,,,0,1,1,1,0,16,16,16,,,,,,,,,,,,,,,,,,,711.8795725,q,1.9196213749999629,713.866329209,,,,,,59,A,2025-02-08_13h03.15.214,EPIDM,2023.1.2,61.02443265111014,
3266.jpg,7360.jpg,1 Point,1 Point,103 Points,PS1_L2.csv,,,,,,,,,,,,,,,,,,,,,,,,,,,,,0,1,1,1,0,17,17,17,,,,,,,,,,,,,,,,,,,718.1217489589999,q,0.8846939160000034,719.080660542,,,,,,59,A,2025-02-08_13h03.15.214,EPIDM,2023.1.2,61.02443265111014,
F149.jpg,3030.jpg,0 Points,0 Points,103 Points,PS1_L2.csv,,,,,,,,,,,,,,,,,,,,,,,,,,,,,0,1,1,1,0,18,18,18,,,,,,,,,,,,,,,,,,,723.3237434170001,p,1.0435051659999885,724.4806675,,,,,,59,A,2025-02-08_13h03.15.214,EPIDM,2023.1.2,61.02443265111014,
5410.jpg,1450.jpg,5 Points,5 Points,108 Points,PS1_L2.csv,,,,,,,,,,,,,,,,,,,,,,,,,,,,,0,1,1,1,0,19,19,19,,,,,,,,,,,,,,,,,,,728.6902448339999,q,1.0914284580000526,729.8473288340001,,,,,,59,A,2025-02-08_13h03.15.214,EPIDM,2023.1.2,61.02443265111014,
9101.jpg,9571.jpg,2 Points,2 Points,110 Points,PS1_L2.csv,,,,,,,,,,,,,,,,,,,,,,,,,,,,,0,1,1,1,0,20,20,20,,,,,,,,,,,,,,,,,,,734.1011517090001,p,1.1368835410000315,735.309106125,,,,,,59,A,2025-02-08_13h03.15.214,EPIDM,2023.1.2,61.02443265111014,
9110.jpg,3051.jpg,1 Point,1 Point,111 Points,PS1_L2.csv,,,,,,,,,,,,,,,,,,,,,,,,,,,,,0,1,1,1,0,21,21,21,,,,,,,,,,,,,,,,,,,739.5552970000001,p,0.5404478319999839,740.170183917,,,,,,59,A,2025-02-08_13h03.15.214,EPIDM,2023.1.2,61.02443265111014,
2100.jpg,7205.jpg,5 Points,5 Points,116 Points,PS1_L2.csv,,,,,,,,,,,,,,,,,,,,,,,,,,,,,0,1,1,1,0,22,22,22,,,,,,,,,,,,,,,,,,,744.4041845419999,q,0.9784930819999431,745.4699593749999,,,,,,59,A,2025-02-08_13h03.15.214,EPIDM,2023.1.2,61.02443265111014,
3160.jpg,6210.jpg,1 Point,1 Point,117 Points,PS1_L2.csv,,,,,,,,,,,,,,,,,,,,,,,,,,,,,0,1,1,1,0,23,23,23,,,,,,,,,,,,,,,,,,,749.710243209,q,1.4475734160000115,751.249245209,,,761.737284542,space,7.996749582999939,59,A,2025-02-08_13h03.15.214,EPIDM,2023.1.2,61.02443265111014,
7283.jpg,1720.jpg,4 Points,4 Points,121 Points,PS1_L3.csv,,,,,,,,,,,,,,,,,,,,,,,,,,,,,0,2,2,2,0,0,0,0,,,,,,,,,,,,,,,,,,,773.0633827920001,q,2.11809733299998,775.4840026249999,,,,,,59,A,2025-02-08_13h03.15.214,EPIDM,2023.1.2,61.02443265111014,
6571.jpg,P237.jpg,2 Points,2 Points,123 Points,PS1_L3.csv,,,,,,,,,,,,,,,,,,,,,,,,,,,,,0,2,2,2,0,1,1,1,,,,,,,,,,,,,,,,,,,779.710198042,p,0.7593821239999556,780.581806875,2,1.2997433329999808,,,,59,A,2025-02-08_13h03.15.214,EPIDM,2023.1.2,61.02443265111014,
6260.jpg,3062.jpg,3 Points,3 Points,126 Points,PS1_L3.csv,,,,,,,,,,,,,,,,,,,,,,,,,,,,,0,2,2,2,0,2,2,2,,,,,,,,,,,,,,,,,,,786.18663225,p,0.6748332909999704,786.9324113340001,,,,,,59,A,2025-02-08_13h03.15.214,EPIDM,2023.1.2,61.02443265111014,
6150.jpg,2206.jpg,0 Points,0 Points,126 Points,PS1_L3.csv,,,,,,,,,,,,,,,,,,,,,,,,,,,,,0,2,2,2,0,3,3,3,,,,,,,,,,,,,,,,,,,791.1798060000001,q,1.7930582079999908,793.0486886670001,,,,,,59,A,2025-02-08_13h03.15.214,EPIDM,2023.1.2,61.02443265111014,
9300.jpg,1050.jpg,4 Points,4 Points,130 Points,PS1_L3.csv,,,,,,,,,,,,,,,,,,,,,,,,,,,,,0,2,2,2,0,4,4,4,,,,,,,,,,,,,,,,,,,797.292091,q,1.3685212080000042,798.730548667,,,,,,59,A,2025-02-08_13h03.15.214,EPIDM,2023.1.2,61.02443265111014,
F365.jpg,3180.jpg,5 Points,5 Points,135 Points,PS1_L3.csv,,,,,,,,,,,,,,,,,,,,,,,,,,,,,0,2,2,2,0,5,5,5,,,,,,,,,,,,,,,,,,,802.9967772089999,q,1.6635869160000425,804.7531072500001,,,,,,59,A,2025-02-08_13h03.15.214,EPIDM,2023.1.2,61.02443265111014,
2320.jpg,2791.jpg,4 Points,4 Points,139 Points,PS1_L3.csv,,,,,,,,,,,,,,,,,,,,,,,,,,,,,0,2,2,2,0,6,6,6,,,,,,,,,,,,,,,,,,,808.975762459,p,1.4530855830000178,810.5228235,,,,,,59,A,2025-02-08_13h03.15.214,EPIDM,2023.1.2,61.02443265111014,
8311.jpg,4609.jpg,2 Points,2 Points,141 Points,PS1_L3.csv,,,,,,,,,,,,,,,,,,,,,,,,,,,,,0,2,2,2,0,7,7,7,,,,,,,,,,,,,,,,,,,814.749449334,q,1.4872915819999548,816.297323084,,,,,,59,A,2025-02-08_13h03.15.214,EPIDM,2023.1.2,61.02443265111014,
9042.jpg,2753.jpg,0 Points,0 Points,141 Points,PS1_L3.csv,,,,,,,,,,,,,,,,,,,,,,,,,,,,,0,2,2,2,0,8,8,8,,,,,,,,,,,,,,,,,,,820.5629229169999,q,1.601812415999973,822.237184459,,,,,,59,A,2025-02-08_13h03.15.214,EPIDM,2023.1.2,61.02443265111014,
5471.jpg,7352.jpg,2 Points,2 Points,143 Points,PS1_L3.csv,,,,,,,,,,,,,,,,,,,,,,,,,,,,,0,2,2,2,0,9,9,9,,,,,,,,,,,,,,,,,,,826.493381542,p,0.6950383319999105,827.260554209,,,,,,59,A,2025-02-08_13h03.15.214,EPIDM,2023.1.2,61.02443265111014,
P222.jpg,9401.jpg,2 Points,2 Points,145 Points,PS1_L3.csv,,,,,,,,,,,,,,,,,,,,,,,,,,,,,0,2,2,2,0,10,10,10,,,,,,,,,,,,,,,,,,,831.5148214169999,q,2.041884957000036,833.658158875,,,,,,59,A,2025-02-08_13h03.15.214,EPIDM,2023.1.2,61.02443265111014,
1610.jpg,F203.jpg,0 Points,0 Points,145 Points,PS1_L3.csv,,,,,,,,,,,,,,,,,,,,,,,,,,,,,0,2,2,2,0,11,11,11,,,,,,,,,,,,,,,,,,,837.864456709,q,1.4757869160000041,839.4593555839999,,,,,,59,A,2025-02-08_13h03.15.214,EPIDM,2023.1.2,61.02443265111014,
9405.jpg,6250.2.jpg,3 Points,3 Points,148 Points,PS1_L3.csv,,,,,,,,,,,,,,,,,,,,,,,,,,,,,0,2,2,2,0,12,12,12,,,,,,,,,,,,,,,,,,,843.6580792090001,q,1.2901648319999026,845.0588185839999,,,,,,59,A,2025-02-08_13h03.15.214,EPIDM,2023.1.2,61.02443265111014,
1090.jpg,P217.jpg,5 Points,5 Points,153 Points,PS1_L3.csv,,,,,,,,,,,,,,,,,,,,,,,,,,,,,0,2,2,2,0,13,13,13,,,,,,,,,,,,,,,,,,,849.2716063749999,p,2.091098958000032,851.472342625,4,1.6347857079999244,,,,59,A,2025-02-08_13h03.15.214,EPIDM,2023.1.2,61.02443265111014,
P233.jpg,3060.jpg,1 Point,1 Point,154 Points,PS1_L3.csv,,,,,,,,,,,,,,,,,,,,,,,,,,,,,0,2,2,2,0,14,14,14,,,,,,,,,,,,,,,,,,,857.4457144590001,p,2.253206165999984,859.8201691249999,,,,,,59,A,2025-02-08_13h03.15.214,EPIDM,2023.1.2,61.02443265111014,
8040.jpg,7185.jpg,1 Point,1 Point,155 Points,PS1_L3.csv,,,,,,,,,,,,,,,,,,,,,,,,,,,,,0,2,2,2,0,15,15,15,,,,,,,,,,,,,,,,,,,864.0249383339999,q,1.5463096660000133,865.656464209,,,,,,59,A,2025-02-08_13h03.15.214,EPIDM,2023.1.2,61.02443265111014,
6550.jpg,9582.jpg,5 Points,5 Points,160 Points,PS1_L3.csv,,,,,,,,,,,,,,,,,,,,,,,,,,,,,0,2,2,2,0,16,16,16,,,,,,,,,,,,,,,,,,,869.901909875,q,1.908271415999991,871.8880341669999,,,,,,59,A,2025-02-08_13h03.15.214,EPIDM,2023.1.2,61.02443265111014,
P077.jpg,A041.jpg,1 Point,1 Point,161 Points,PS1_L3.csv,,,,,,,,,,,,,,,,,,,,,,,,,,,,,0,2,2,2,0,17,17,17,,,,,,,,,,,,,,,,,,,876.135416542,p,1.1628797489999556,877.4411204590001,,,,,,59,A,2025-02-08_13h03.15.214,EPIDM,2023.1.2,61.02443265111014,
4770.jpg,4275.jpg,3 Points,3 Points,164 Points,PS1_L3.csv,,,,,,,,,,,,,,,,,,,,,,,,,,,,,0,2,2,2,0,18,18,18,,,,,,,,,,,,,,,,,,,881.618182917,q,1.3696089580000148,883.0980427090001,,,,,,59,A,2025-02-08_13h03.15.214,EPIDM,2023.1.2,61.02443265111014,
9594.jpg,1080.jpg,4 Points,4 Points,168 Points,PS1_L3.csv,,,,,,,,,,,,,,,,,,,,,,,,,,,,,0,2,2,2,0,19,19,19,,,,,,,,,,,,,,,,,,,887.303122584,q,1.0913540819998957,888.466387167,,,,,,59,A,2025-02-08_13h03.15.214,EPIDM,2023.1.2,61.02443265111014,
2606.jpg,2480.jpg,1 Point,1 Point,169 Points,PS1_L3.csv,,,,,,,,,,,,,,,,,,,,,,,,,,,,,0,2,2,2,0,20,20,20,,,,,,,,,,,,,,,,,,,892.702648917,p,0.9569728330001794,893.728238792,,,,,,59,A,2025-02-08_13h03.15.214,EPIDM,2023.1.2,61.02443265111014,
1052.jpg,1201.jpg,3 Points,3 Points,172 Points,PS1_L3.csv,,,,,,,,,,,,,,,,,,,,,,,,,,,,,0,2,2,2,0,21,21,21,,,,,,,,,,,,,,,,,,,897.9843262090001,p,1.0184852909998767,899.063667834,,,,,,59,A,2025-02-08_13h03.15.214,EPIDM,2023.1.2,61.02443265111014,
F369.jpg,3100.jpg,2 Points,2 Points,174 Points,PS1_L3.csv,,,,,,,,,,,,,,,,,,,,,,,,,,,,,0,2,2,2,0,22,22,22,,,,,,,,,,,,,,,,,,,903.324176417,p,1.3747819570000388,904.7925257090001,,,,,,59,A,2025-02-08_13h03.15.214,EPIDM,2023.1.2,61.02443265111014,
2620.jpg,2594.jpg,0 Points,0 Points,174 Points,PS1_L3.csv,,,,,,,,,,,,,,,,,,,,,,,,,,,,,0,2,2,2,0,23,23,23,,,,,,,,,,,,,,,,,,,909.012514625,q,1.870422374999805,910.9520641250001,,,921.4279100000001,space,1.7496904159999644,59,A,2025-02-08_13h03.15.214,EPIDM,2023.1.2,61.02443265111014,
P019.jpg,F158.jpg,3 Points,3 Points,177 Points,PS1_L4.csv,,,,,,,,,,,,,,,,,,,,,,,,,,,,,0,3,3,3,0,0,0,0,,,,,,,,,,,,,,,,,,,926.5086216670002,p,1.6693155830000137,928.316835959,,,,,,59,A,2025-02-08_13h03.15.214,EPIDM,2023.1.2,61.02443265111014,
7620.jpg,5395.jpg,1 Point,1 Point,178 Points,PS1_L4.csv,,,,,,,,,,,,,,,,,,,,,,,,,,,,,0,3,3,3,0,1,1,1,,,,,,,,,,,,,,,,,,,932.5000607920001,q,1.2935349159999419,933.892573584,1,1.3958224990000758,,,,59,A,2025-02-08_13h03.15.214,EPIDM,2023.1.2,61.02443265111014,
5970.jpg,3300.jpg,0 Points,0 Points,178 Points,PS1_L4.csv,,,,,,,,,,,,,,,,,,,,,,,,,,,,,0,3,3,3,0,2,2,2,,,,,,,,,,,,,,,,,,,939.5530444590001,p,1.1604097910000633,940.788848792,,,,,,59,A,2025-02-08_13h03.15.214,EPIDM,2023.1.2,61.02443265111014,
5120.jpg,5520.jpg,2 Points,2 Points,180 Points,PS1_L4.csv,,,,,,,,,,,,,,,,,,,,,,,,,,,,,0,3,3,3,0,3,3,3,,,,,,,,,,,,,,,,,,,945.039831417,q,2.201855291000072,947.3098841670001,,,,,,59,A,2025-02-08_13h03.15.214,EPIDM,2023.1.2,61.02443265111014,
9452.jpg,7184.jpg,4 Points,4 Points,184 Points,PS1_L4.csv,,,,,,,,,,,,,,,,,,,,,,,,,,,,,0,3,3,3,0,4,4,4,,,,,,,,,,,,,,,,,,,951.566264,q,2.07411158199983,953.7128599590001,,,,,,59,A,2025-02-08_13h03.15.214,EPIDM,2023.1.2,61.02443265111014,
6570.1.jpg,9432.jpg,5 Points,5 Points,189 Points,PS1_L4.csv,,,,,,,,,,,,,,,,,,,,,,,,,,,,,0,3,3,3,0,5,5,5,,,,,,,,,,,,,,,,,,,957.9601882920001,p,1.1856805829999644,959.220503709,,,,,,59,A,2025-02-08_13h03.15.214,EPIDM,2023.1.2,61.02443265111014,
2389.jpg,7320.jpg,0 Points,0 Points,189 Points,PS1_L4.csv,,,,,,,,,,,,,,,,,,,,,,,,,,,,,0,3,3,3,0,6,6,6,,,,,,,,,,,,,,,,,,,963.4756951670001,q,1.317478706999907,964.86770725,,,,,,59,A,2025-02-08_13h03.15.214,EPIDM,2023.1.2,61.02443265111014,
9330.jpg,3015.jpg,5 Points,5 Points,194 Points,PS1_L4.csv,,,,,,,,,,,,,,,,,,,,,,,,,,,,,0,3,3,3,0,7,7,7,,,,,,,,,,,,,,,,,,,969.1185769590002,p,0.61856174899998,969.803217167,,,,,,59,A,2025-02-08_13h03.15.214,EPIDM,2023.1.2,61.02443265111014,
9560.jpg,3071.jpg,1 Point,1 Point,195 Points,PS1_L4.csv,,,,,,,,,,,,,,,,,,,,,,,,,,,,,0,3,3,3,0,8,8,8,,,,,,,,,,,,,,,,,,,974.0583487920001,p,1.126240290999874,975.248713875,,,,,,59,A,2025-02-08_13h03.15.214,EPIDM,2023.1.2,61.02443265111014,
5994.jpg,5390.jpg,0 Points,0 Points,195 Points,PS1_L4.csv,,,,,,,,,,,,,,,,,,,,,,,,,,,,,0,3,3,3,0,9,9,9,,,,,,,,,,,,,,,,,,,979.504076959,p,1.0653597909999348,980.6334885000001,,,,,,59,A,2025-02-08_13h03.15.214,EPIDM,2023.1.2,61.02443265111014,
2692.jpg,8231.jpg,4 Points,4 Points,199 Points,PS1_L4.csv,,,,,,,,,,,,,,,,,,,,,,,,,,,,,0,3,3,3,0,10,10,10,,,,,,,,,,,,,,,,,,,984.888055417,p,1.7930323739998926,986.7343660840002,,,,,,59,A,2025-02-08_13h03.15.214,EPIDM,2023.1.2,61.02443265111014,
F174.jpg,9404.jpg,5 Points,5 Points,204 Points,PS1_L4.csv,,,,,,,,,,,,,,,,,,,,,,,,,,,,,0,3,3,3,0,11,11,11,,,,,,,,,,,,,,,,,,,990.9889027500001,q,0.8425621240000396,991.9414977920001,,,,,,59,A,2025-02-08_13h03.15.214,EPIDM,2023.1.2,61.02443265111014,
8010.jpg,2630.jpg,0 Points,0 Points,204 Points,PS1_L4.csv,,,,,,,,,,,,,,,,,,,,,,,,,,,,,0,3,3,3,0,12,12,12,,,,,,,,,,,,,,,,,,,996.157845667,q,1.67458137400007,997.8989228340001,,,,,,59,A,2025-02-08_13h03.15.214,EPIDM,2023.1.2,61.02443265111014,
7175.jpg,7490.jpg,2 Points,2 Points,206 Points,PS1_L4.csv,,,,,,,,,,,,,,,,,,,,,,,,,,,,,0,3,3,3,0,13,13,13,,,,,,,,,,,,,,,,,,,1002.142251667,q,1.0338809159997595,1003.266042,2,1.494635125000002,,,,59,A,2025-02-08_13h03.15.214,EPIDM,2023.1.2,61.02443265111014,
6561.jpg,1525.jpg,2 Points,2 Points,208 Points,PS1_L4.csv,,,,,,,,,,,,,,,,,,,,,,,,,,,,,0,3,3,3,0,14,14,14,,,,,,,,,,,,,,,,,,,1009.0675277090002,p,1.3721906659999945,1010.504679917,,,,,,59,A,2025-02-08_13h03.15.214,EPIDM,2023.1.2,61.02443265111014,
9070.jpg,9420.jpg,2 Points,2 Points,210 Points,PS1_L4.csv,,,,,,,,,,,,,,,,,,,,,,,,,,,,,0,3,3,3,0,15,15,15,,,,,,,,,,,,,,,,,,,1014.7746272500001,p,0.7219441250001069,1015.5608442090002,,,,,,59,A,2025-02-08_13h03.15.214,EPIDM,2023.1.2,61.02443265111014,
2516.jpg,8500.jpg,4 Points,4 Points,214 Points,PS1_L4.csv,,,,,,,,,,,,,,,,,,,,,,,,,,,,,0,3,3,3,0,16,16,16,,,,,,,,,,,,,,,,,,,1019.8174465,q,0.8876137489998541,1020.7790285840001,,,,,,59,A,2025-02-08_13h03.15.214,EPIDM,2023.1.2,61.02443265111014,
9140.jpg,2810.jpg,3 Points,3 Points,217 Points,PS1_L4.csv,,,,,,,,,,,,,,,,,,,,,,,,,,,,,0,3,3,3,0,17,17,17,,,,,,,,,,,,,,,,,,,1025.028845375,q,0.9071567080000591,1026.0005390420001,,,,,,59,A,2025-02-08_13h03.15.214,EPIDM,2023.1.2,61.02443265111014,
7220.jpg,8090.jpg,2 Points,2 Points,219 Points,PS1_L4.csv,,,,,,,,,,,,,,,,,,,,,,,,,,,,,0,3,3,3,0,18,18,18,,,,,,,,,,,,,,,,,,,1030.253765917,q,1.5384310830000345,1031.858257459,,,,,,59,A,2025-02-08_13h03.15.214,EPIDM,2023.1.2,61.02443265111014,
2661.jpg,2870.jpg,5 Points,5 Points,224 Points,PS1_L4.csv,,,,,,,,,,,,,,,,,,,,,,,,,,,,,0,3,3,3,0,19,19,19,,,,,,,,,,,,,,,,,,,1036.1143650420001,q,1.3258264579999945,1037.5135004590002,,,,,,59,A,2025-02-08_13h03.15.214,EPIDM,2023.1.2,61.02443265111014,
6010.jpg,7361.jpg,2 Points,2 Points,226 Points,PS1_L4.csv,,,,,,,,,,,,,,,,,,,,,,,,,,,,,0,3,3,3,0,20,20,20,,,,,,,,,,,,,,,,,,,1041.764275625,p,1.4421515410002144,1043.270388334,,,,,,59,A,2025-02-08_13h03.15.214,EPIDM,2023.1.2,61.02443265111014,
7289.jpg,4534.jpg,0 Points,0 Points,226 Points,PS1_L4.csv,,,,,,,,,,,,,,,,,,,,,,,,,,,,,0,3,3,3,0,21,21,21,,,,,,,,,,,,,,,,,,,1047.527431042,q,1.2872916249999093,1048.8847869590002,,,,,,59,A,2025-02-08_13h03.15.214,EPIDM,2023.1.2,61.02443265111014,
1310.jpg,3181.jpg,4 Points,4 Points,230 Points,PS1_L4.csv,,,,,,,,,,,,,,,,,,,,,,,,,,,,,0,3,3,3,0,22,22,22,,,,,,,,,,,,,,,,,,,1053.127230834,p,1.7832594990002804,1054.981499625,,,,,,59,A,2025-02-08_13h03.15.214,EPIDM,2023.1.2,61.02443265111014,
2383.jpg,1616.jpg,2 Points,2 Points,232 Points,PS1_L4.csv,,,,,,,,,,,,,,,,,,,,,,,,,,,,,0,3,3,3,0,23,23,23,,,,,,,,,,,,,,,,,,,1059.233331375,p,1.4379410409999878,1060.7421018750001,,,1071.21706275,space,37.443917541000076,59,A,2025-02-08_13h03.15.214,EPIDM,2023.1.2,61.02443265111014,
4510.jpg,2230.jpg,5 Points,5 Points,237 Points,PS1_L5.csv,,,,,,,,,,,,,,,,,,,,,,,,,,,,,0,4,4,4,0,0,0,0,,,,,,,,,,,,,,,,,,,1111.9855850420001,p,0.9239382080000382,1112.982472834,,,,,,59,A,2025-02-08_13h03.15.214,EPIDM,2023.1.2,61.02443265111014,
A025.jpg,1051.jpg,0 Points,0 Points,237 Points,PS1_L5.csv,,,,,,,,,,,,,,,,,,,,,,,,,,,,,0,4,4,4,0,1,1,1,,,,,,,,,,,,,,,,,,,1117.238668875,q,1.4711459990001572,1118.8267828340001,0,1.671030791000078,,,,59,A,2025-02-08_13h03.15.214,EPIDM,2023.1.2,61.02443265111014,
7002.jpg,4660.jpg,4 Points,4 Points,241 Points,PS1_L5.csv,,,,,,,,,,,,,,,,,,,,,,,,,,,,,0,4,4,4,0,2,2,2,,,,,,,,,,,,,,,,,,,1124.8053643340002,p,1.3761362080002186,1126.3048854170002,,,,,,59,A,2025-02-08_13h03.15.214,EPIDM,2023.1.2,61.02443265111014,
2900.jpg,1101.jpg,3 Points,3 Points,244 Points,PS1_L5.csv,,,,,,,,,,,,,,,,,,,,,,,,,,,,,0,4,4,4,0,3,3,3,,,,,,,,,,,,,,,,,,,1130.495660125,q,0.8699049160000527,1131.44898975,,,,,,59,A,2025-02-08_13h03.15.214,EPIDM,2023.1.2,61.02443265111014,
2485.jpg,7350.jpg,0 Points,0 Points,244 Points,PS1_L5.csv,,,,,,,,,,,,,,,,,,,,,,,,,,,,,0,4,4,4,0,4,4,4,,,,,,,,,,,,,,,,,,,1135.6892715840002,q,1.1711441660000332,1136.941543584,,,,,,59,A,2025-02-08_13h03.15.214,EPIDM,2023.1.2,61.02443265111014,
6242.jpg,F034.jpg,4 Points,4 Points,248 Points,PS1_L5.csv,,,,,,,,,,,,,,,,,,,,,,,,,,,,,0,4,4,4,0,5,5,5,,,,,,,,,,,,,,,,,,,1141.189007375,p,1.127854291000233,1142.423182292,,,,,,59,A,2025-02-08_13h03.15.214,EPIDM,2023.1.2,61.02443265111014,
3170.jpg,6560.jpg,2 Points,2 Points,250 Points,PS1_L5.csv,,,,,,,,,,,,,,,,,,,,,,,,,,,,,0,4,4,4,0,6,6,6,,,,,,,,,,,,,,,,,,,1146.639296,p,0.49322895699998526,1147.1964010420002,,,,,,59,A,2025-02-08_13h03.15.214,EPIDM,2023.1.2,61.02443265111014,
8033.jpg,7270.jpg,3 Points,3 Points,253 Points,PS1_L5.csv,,,,,,,,,,,,,,,,,,,,,,,,,,,,,0,4,4,4,0,7,7,7,,,,,,,,,,,,,,,,,,,1151.445234209,p,1.7361108739999622,1153.249409709,,,,,,59,A,2025-02-08_13h03.15.214,EPIDM,2023.1.2,61.02443265111014,
2597.jpg,5870.jpg,5 Points,5 Points,258 Points,PS1_L5.csv,,,,,,,,,,,,,,,,,,,,,,,,,,,,,0,4,4,4,0,8,8,8,,,,,,,,,,,,,,,,,,,1157.4978820000001,q,1.0753649160001828,1158.654597667,,,,,,59,A,2025-02-08_13h03.15.214,EPIDM,2023.1.2,61.02443265111014,
6312.jpg,3230.jpg,2 Points,2 Points,260 Points,PS1_L5.csv,,,,,,,,,,,,,,,,,,,,,,,,,,,,,0,4,4,4,0,9,9,9,,,,,,,,,,,,,,,,,,,1162.89799425,p,0.850032750000139,1163.815120042,,,,,,59,A,2025-02-08_13h03.15.214,EPIDM,2023.1.2,61.02443265111014,
3130.jpg,3500.jpg,4 Points,4 Points,264 Points,PS1_L5.csv,,,,,,,,,,,,,,,,,,,,,,,,,,,,,0,4,4,4,0,10,10,10,,,,,,,,,,,,,,,,,,,1168.0693881670002,q,0.6865307500000313,1168.8190435420001,,,,,,59,A,2025-02-08_13h03.15.214,EPIDM,2023.1.2,61.02443265111014,
2749.jpg,7282.jpg,3 Points,3 Points,267 Points,PS1_L5.csv,,,,,,,,,,,,,,,,,,,,,,,,,,,,,0,4,4,4,0,11,11,11,,,,,,,,,,,,,,,,,,,1173.070409917,q,1.1100016660000733,1174.243113542,,,,,,59,A,2025-02-08_13h03.15.214,EPIDM,2023.1.2,61.02443265111014,
5300.jpg,2372.jpg,1 Point,1 Point,268 Points,PS1_L5.csv,,,,,,,,,,,,,,,,,,,,,,,,,,,,,0,4,4,4,0,12,12,12,,,,,,,,,,,,,,,,,,,1178.486787459,q,1.588932040999964,1180.158080167,,,,,,59,A,2025-02-08_13h03.15.214,EPIDM,2023.1.2,61.02443265111014,
6510.jpg,A074.jpg,2 Points,2 Points,270 Points,PS1_L5.csv,,,,,,,,,,,,,,,,,,,,,,,,,,,,,0,4,4,4,0,13,13,13,,,,,,,,,,,,,,,,,,,1184.421263792,p,1.390303291000066,1185.924550125,2,1.3718529990001684,,,,59,A,2025-02-08_13h03.15.214,EPIDM,2023.1.2,61.02443265111014,
2260.jpg,2830.jpg,5 Points,5 Points,275 Points,PS1_L5.csv,,,,,,,,,,,,,,,,,,,,,,,,,,,,,0,4,4,4,0,14,14,14,,,,,,,,,,,,,,,,,,,1191.605307667,p,2.0793974990002084,1193.755179042,,,,,,59,A,2025-02-08_13h03.15.214,EPIDM,2023.1.2,61.02443265111014,
2710.jpg,9252.jpg,1 Point,1 Point,276 Points,PS1_L5.csv,,,,,,,,,,,,,,,,,,,,,,,,,,,,,0,4,4,4,0,15,15,15,,,,,,,,,,,,,,,,,,,1198.000033875,p,1.1017806250002309,1199.171980542,,,,,,59,A,2025-02-08_13h03.15.214,EPIDM,2023.1.2,61.02443265111014,
3064.jpg,3168.jpg,4 Points,4 Points,280 Points,PS1_L5.csv,,,,,,,,,,,,,,,,,,,,,,,,,,,,,0,4,4,4,0,16,16,16,,,,,,,,,,,,,,,,,,,1203.436792959,q,1.4873079160000202,1204.993579,,,,,,59,A,2025-02-08_13h03.15.214,EPIDM,2023.1.2,61.02443265111014,
1640.jpg,5531.jpg,3 Points,3 Points,283 Points,PS1_L5.csv,,,,,,,,,,,,,,,,,,,,,,,,,,,,,0,4,4,4,0,17,17,17,,,,,,,,,,,,,,,,,,,1209.243839667,p,0.9994539580000605,1210.325730875,,,,,,59,A,2025-02-08_13h03.15.214,EPIDM,2023.1.2,61.02443265111014,
3530.jpg,6213.jpg,1 Point,1 Point,284 Points,PS1_L5.csv,,,,,,,,,,,,,,,,,,,,,,,,,,,,,0,4,4,4,0,18,18,18,,,,,,,,,,,,,,,,,,,1214.563566125,q,2.543786333000128,1217.175646917,,,,,,59,A,2025-02-08_13h03.15.214,EPIDM,2023.1.2,61.02443265111014,
9090.jpg,7580.jpg,3 Points,3 Points,287 Points,PS1_L5.csv,,,,,,,,,,,,,,,,,,,,,,,,,,,,,0,4,4,4,0,19,19,19,,,,,,,,,,,,,,,,,,,1221.4267005000002,p,1.9368558750002762,1223.434399875,,,,,,59,A,2025-02-08_13h03.15.214,EPIDM,2023.1.2,61.02443265111014,
8230.jpg,2682.jpg,5 Points,5 Points,292 Points,PS1_L5.csv,,,,,,,,,,,,,,,,,,,,,,,,,,,,,0,4,4,4,0,20,20,20,,,,,,,,,,,,,,,,,,,1227.673037,p,2.1937339579999957,1229.936414,,,,,,59,A,2025-02-08_13h03.15.214,EPIDM,2023.1.2,61.02443265111014,
9592.jpg,1300.jpg,2 Points,2 Points,294 Points,PS1_L5.csv,,,,,,,,,,,,,,,,,,,,,,,,,,,,,0,4,4,4,0,21,21,21,,,,,,,,,,,,,,,,,,,1234.176731875,q,1.1865048739999224,1235.42575975,,,,,,59,A,2025-02-08_13h03.15.214,EPIDM,2023.1.2,61.02443265111014,
2490.jpg,2590.jpg,4 Points,4 Points,298 Points,PS1_L5.csv,,,,,,,,,,,,,,,,,,,,,,,,,,,,,0,4,4,4,0,22,22,22,,,,,,,,,,,,,,,,,,,1239.676250375,p,1.6143403330000297,1241.366071209,,,,,,59,A,2025-02-08_13h03.15.214,EPIDM,2023.1.2,61.02443265111014,
2190.jpg,7503.jpg,2 Points,2 Points,300 Points,PS1_L5.csv,,,,,,,,,,,,,,,,,,,,,,,,,,,,,0,4,4,4,0,23,23,23,,,,,,,,,,,,,,,,,,,1245.6149622090002,q,1.2352653739999937,1246.923505709,,,1257.413141709,space,1.7561651250001091,59,A,2025-02-08_13h03.15.214,EPIDM,2023.1.2,61.02443265111014,
1930.jpg,9008.jpg,1 Point,1 Point,301 Points,PS1_L6.csv,,,,,,,,,,,,,,,,,,,,,,,,,,,,,0,5,5,5,0,0,0,0,,,,,,,,,,,,,,,,,,,1262.492325959,p,2.74216095800017,1265.322421375,,,,,,59,A,2025-02-08_13h03.15.214,EPIDM,2023.1.2,61.02443265111014,
4613.jpg,2720.jpg,4 Points,4 Points,305 Points,PS1_L6.csv,,,,,,,,,,,,,,,,,,,,,,,,,,,,,0,5,5,5,0,1,1,1,,,,,,,,,,,,,,,,,,,1269.569853917,p,1.0000148330000798,1270.644133125,4,1.7896502490000898,,,,59,A,2025-02-08_13h03.15.214,EPIDM,2023.1.2,61.02443265111014,
3280.jpg,9270.jpg,0 Points,0 Points,305 Points,PS1_L6.csv,,,,,,,,,,,,,,,,,,,,,,,,,,,,,0,5,5,5,0,2,2,2,,,,,,,,,,,,,,,,,,,1276.761504375,q,1.5916294990002484,1278.4101365840002,,,,,,59,A,2025-02-08_13h03.15.214,EPIDM,2023.1.2,61.02443265111014,
6800.jpg,9190.jpg,0 Points,0 Points,305 Points,PS1_L6.csv,,,,,,,,,,,,,,,,,,,,,,,,,,,,,0,5,5,5,0,3,3,3,,,,,,,,,,,,,,,,,,,1282.669264667,p,1.5080706249999025,1284.2408803340002,,,,,,59,A,2025-02-08_13h03.15.214,EPIDM,2023.1.2,61.02443265111014,
5600.jpg,9080.jpg,5 Points,5 Points,310 Points,PS1_L6.csv,,,,,,,,,,,,,,,,,,,,,,,,,,,,,0,5,5,5,0,4,4,4,,,,,,,,,,,,,,,,,,,1288.501448625,p,0.8913142080000966,1289.474667125,,,,,,59,A,2025-02-08_13h03.15.214,EPIDM,2023.1.2,61.02443265111014,
P211.jpg,9041.jpg,4 Points,4 Points,314 Points,PS1_L6.csv,,,,,,,,,,,,,,,,,,,,,,,,,,,,,0,5,5,5,0,5,5,5,,,,,,,,,,,,,,,,,,,1293.7135592920001,p,1.4079784580001729,1295.240053667,,,,,,59,A,2025-02-08_13h03.15.214,EPIDM,2023.1.2,61.02443265111014,
5200.jpg,5020.jpg,0 Points,0 Points,314 Points,PS1_L6.csv,,,,,,,,,,,,,,,,,,,,,,,,,,,,,0,5,5,5,0,6,6,6,,,,,,,,,,,,,,,,,,,1299.442035209,q,1.7346329570000876,1301.245486084,,,,,,59,A,2025-02-08_13h03.15.214,EPIDM,2023.1.2,61.02443265111014,
1850.jpg,5623.jpg,5 Points,5 Points,319 Points,PS1_L6.csv,,,,,,,,,,,,,,,,,,,,,,,,,,,,,0,5,5,5,0,7,7,7,,,,,,,,,,,,,,,,,,,1305.4975549590001,p,1.7680526660001874,1307.344751042,,,,,,59,A,2025-02-08_13h03.15.214,EPIDM,2023.1.2,61.02443265111014,
9440.jpg,6350.jpg,4 Points,4 Points,323 Points,PS1_L6.csv,,,,,,,,,,,,,,,,,,,,,,,,,,,,,0,5,5,5,0,8,8,8,,,,,,,,,,,,,,,,,,,1311.590814584,p,1.3136154990000364,1312.9611075,,,,,,59,A,2025-02-08_13h03.15.214,EPIDM,2023.1.2,61.02443265111014,
5990.jpg,5780.jpg,3 Points,3 Points,326 Points,PS1_L6.csv,,,,,,,,,,,,,,,,,,,,,,,,,,,,,0,5,5,5,0,9,9,9,,,,,,,,,,,,,,,,,,,1317.2212525,q,0.996018541000069,1318.278618709,,,,,,59,A,2025-02-08_13h03.15.214,EPIDM,2023.1.2,61.02443265111014,
6244.jpg,9265.jpg,0 Points,0 Points,326 Points,PS1_L6.csv,,,,,,,,,,,,,,,,,,,,,,,,,,,,,0,5,5,5,0,10,10,10,,,,,,,,,,,,,,,,,,,1322.534367042,q,1.9137547490000202,1324.506924792,,,,,,59,A,2025-02-08_13h03.15.214,EPIDM,2023.1.2,61.02443265111014,
5000.jpg,8180.jpg,4 Points,4 Points,330 Points,PS1_L6.csv,,,,,,,,,,,,,,,,,,,,,,,,,,,,,0,5,5,5,0,11,11,11,,,,,,,,,,,,,,,,,,,1328.759515875,p,2.200908666000089,1331.042358584,,,,,,59,A,2025-02-08_13h03.15.214,EPIDM,2023.1.2,61.02443265111014,
5982.jpg,5260.jpg,5 Points,5 Points,335 Points,PS1_L6.csv,,,,,,,,,,,,,,,,,,,,,,,,,,,,,0,5,5,5,0,12,12,12,,,,,,,,,,,,,,,,,,,1335.300743,q,1.4182099160000803,1336.800913417,,,,,,59,A,2025-02-08_13h03.15.214,EPIDM,2023.1.2,61.02443265111014,
1301.jpg,1070.jpg,2 Points,2 Points,337 Points,PS1_L6.csv,,,,,,,,,,,,,,,,,,,,,,,,,,,,,0,5,5,5,0,13,13,13,,,,,,,,,,,,,,,,,,,1341.036399334,q,1.6273387910001134,1342.741975875,2,1.5482907910000563,,,,59,A,2025-02-08_13h03.15.214,EPIDM,2023.1.2,61.02443265111014,
7920.jpg,9102.jpg,3 Points,3 Points,340 Points,PS1_L6.csv,,,,,,,,,,,,,,,,,,,,,,,,,,,,,0,5,5,5,0,14,14,14,,,,,,,,,,,,,,,,,,,1348.6093162920001,p,1.2145450820001429,1349.895361375,,,,,,59,A,2025-02-08_13h03.15.214,EPIDM,2023.1.2,61.02443265111014,
5455.jpg,5220.jpg,0 Points,0 Points,340 Points,PS1_L6.csv,,,,,,,,,,,,,,,,,,,,,,,,,,,,,0,5,5,5,0,15,15,15,,,,,,,,,,,,,,,,,,,1354.144169959,p,1.0875521240000694,1355.2967324590002,,,,,,59,A,2025-02-08_13h03.15.214,EPIDM,2023.1.2,61.02443265111014,
3350.jpg,3210.jpg,1 Point,1 Point,341 Points,PS1_L6.csv,,,,,,,,,,,,,,,,,,,,,,,,,,,,,0,5,5,5,0,16,16,16,,,,,,,,,,,,,,,,,,,1359.545130959,q,1.582305333000079,1361.181748417,,,,,,59,A,2025-02-08_13h03.15.214,EPIDM,2023.1.2,61.02443265111014,
2560.jpg,5270.jpg,4 Points,4 Points,345 Points,PS1_L6.csv,,,,,,,,,,,,,,,,,,,,,,,,,,,,,0,5,5,5,0,17,17,17,,,,,,,,,,,,,,,,,,,1365.439755459,p,1.712260998999966,1367.229326917,,,,,,59,A,2025-02-08_13h03.15.214,EPIDM,2023.1.2,61.02443265111014,
9584.jpg,3400.jpg,2 Points,2 Points,347 Points,PS1_L6.csv,,,,,,,,,,,,,,,,,,,,,,,,,,,,,0,5,5,5,0,18,18,18,,,,,,,,,,,,,,,,,,,1371.479173375,p,1.4397817910001436,1372.9918453340001,,,,,,59,A,2025-02-08_13h03.15.214,EPIDM,2023.1.2,61.02443265111014,
5760.jpg,1602.jpg,1 Point,1 Point,348 Points,PS1_L6.csv,,,,,,,,,,,,,,,,,,,,,,,,,,,,,0,5,5,5,0,19,19,19,,,,,,,,,,,,,,,,,,,1377.239585625,q,1.6312901660001558,1378.932597834,,,,,,59,A,2025-02-08_13h03.15.214,EPIDM,2023.1.2,61.02443265111014,
7230.jpg,7570.jpg,5 Points,5 Points,353 Points,PS1_L6.csv,,,,,,,,,,,,,,,,,,,,,,,,,,,,,0,5,5,5,0,20,20,20,,,,,,,,,,,,,,,,,,,1383.1853185,p,1.8300670410001771,1385.092166792,,,,,,59,A,2025-02-08_13h03.15.214,EPIDM,2023.1.2,61.02443265111014,
1022.jpg,6930.jpg,1 Point,1 Point,354 Points,PS1_L6.csv,,,,,,,,,,,,,,,,,,,,,,,,,,,,,0,5,5,5,0,21,21,21,,,,,,,,,,,,,,,,,,,1389.336096917,p,1.607457915999987,1391.033634459,,,,,,59,A,2025-02-08_13h03.15.214,EPIDM,2023.1.2,61.02443265111014,
8340.jpg,7546.jpg,2 Points,2 Points,356 Points,PS1_L6.csv,,,,,,,,,,,,,,,,,,,,,,,,,,,,,0,5,5,5,0,22,22,22,,,,,,,,,,,,,,,,,,,1395.282560459,q,1.8359515000000215,1397.1828714170001,,,,,,59,A,2025-02-08_13h03.15.214,EPIDM,2023.1.2,61.02443265111014,
6243.jpg,2752.jpg,2 Points,2 Points,358 Points,PS1_L6.csv,,,,,,,,,,,,,,,,,,,,,,,,,,,,,0,5,5,5,0,23,23,23,,,,,,,,,,,,,,,,,,,1401.4389867920002,p,1.598907458000042,1403.1092484590001,,,1413.60952125,space,1.6532695410001566,59,A,2025-02-08_13h03.15.214,EPIDM,2023.1.2,61.02443265111014,
7280.jpg,7160.jpg,0 Points,0 Points,358 Points,PS1_L7.csv,,,,,,,,,,,,,,,,,,,,,,,,,,,,,0,6,6,6,0,0,0,0,,,,,,,,,,,,,,,,,,,1418.5771999590002,p,2.012925666000058,1420.668528209,,,,,,59,A,2025-02-08_13h03.15.214,EPIDM,2023.1.2,61.02443265111014,
2580.jpg,8300.jpg,3 Points,3 Points,361 Points,PS1_L7.csv,,,,,,,,,,,,,,,,,,,,,,,,,,,,,0,6,6,6,0,1,1,1,,,,,,,,,,,,,,,,,,,1424.917917584,q,1.3516006660000244,1426.341382084,2,1.6965201250000632,,,,59,A,2025-02-08_13h03.15.214,EPIDM,2023.1.2,61.02443265111014,
5972.jpg,6838.jpg,5 Points,5 Points,366 Points,PS1_L7.csv,,,,,,,,,,,,,,,,,,,,,,,,,,,,,0,6,6,6,0,2,2,2,,,,,,,,,,,,,,,,,,,1432.3419248750001,q,1.191640499000016,1433.611536209,,,,,,59,A,2025-02-08_13h03.15.214,EPIDM,2023.1.2,61.02443265111014,
5621.jpg,5534.jpg,3 Points,3 Points,369 Points,PS1_L7.csv,,,,,,,,,,,,,,,,,,,,,,,,,,,,,0,6,6,6,0,3,3,3,,,,,,,,,,,,,,,,,,,1437.879641542,q,0.5994182910001769,1438.5493100840001,,,,,,59,A,2025-02-08_13h03.15.214,EPIDM,2023.1.2,61.02443265111014,
8480.jpg,6410.jpg,1 Point,1 Point,370 Points,PS1_L7.csv,,,,,,,,,,,,,,,,,,,,,,,,,,,,,0,6,6,6,0,4,4,4,,,,,,,,,,,,,,,,,,,1442.797390917,p,1.0399904159999664,1443.906735,,,,,,59,A,2025-02-08_13h03.15.214,EPIDM,2023.1.2,61.02443265111014,
2702.jpg,1590.jpg,5 Points,5 Points,375 Points,PS1_L7.csv,,,,,,,,,,,,,,,,,,,,,,,,,,,,,0,6,6,6,0,5,5,5,,,,,,,,,,,,,,,,,,,1448.167449834,q,1.4380025830001273,1449.684911375,,,,,,59,A,2025-02-08_13h03.15.214,EPIDM,2023.1.2,61.02443265111014,
1275.jpg,3150.jpg,1 Point,1 Point,376 Points,PS1_L7.csv,,,,,,,,,,,,,,,,,,,,,,,,,,,,,0,6,6,6,0,6,6,6,,,,,,,,,,,,,,,,,,,1453.927086417,p,0.9736754990001941,1454.970788542,,,,,,59,A,2025-02-08_13h03.15.214,EPIDM,2023.1.2,61.02443265111014,
1910.jpg,2575.jpg,2 Points,2 Points,378 Points,PS1_L7.csv,,,,,,,,,,,,,,,,,,,,,,,,,,,,,0,6,6,6,0,7,7,7,,,,,,,,,,,,,,,,,,,1459.222070209,q,0.8791200829999184,1460.155453292,,,,,,59,A,2025-02-08_13h03.15.214,EPIDM,2023.1.2,61.02443265111014,
2518.jpg,2381.jpg,1 Point,1 Point,382 Points,PS1_L7.csv,,,,,,,,,,,,,,,,,,,,,,,,,,,,,0,6,6,6,0,8,8,8,,,,,,,,,,,,,,,,,,,1464.416923917,q,1.8196455830000673,1466.290126417,,,,,,59,A,2025-02-08_13h03.15.214,EPIDM,2023.1.2,61.02443265111014,
6250.1.jpg,3301.jpg,0 Points,0 Points,382 Points,PS1_L7.csv,,,,,,,,,,,,,,,,,,,,,,,,,,,,,0,6,6,6,0,9,9,9,,,,,,,,,,,,,,,,,,,1470.5500347500001,p,0.8944166240001437,1471.5085142090002,,,,,,59,A,2025-02-08_13h03.15.214,EPIDM,2023.1.2,61.02443265111014,
7234.jpg,5533.jpg,3 Points,3 Points,385 Points,PS1_L7.csv,,,,,,,,,,,,,,,,,,,,,,,,,,,,,0,6,6,6,0,10,10,10,,,,,,,,,,,,,,,,,,,1475.7565015,p,1.2087561660001143,1477.0355704170001,,,,,,59,A,2025-02-08_13h03.15.214,EPIDM,2023.1.2,61.02443265111014,
9920.jpg,3068.jpg,5 Points,5 Points,390 Points,PS1_L7.csv,,,,,,,,,,,,,,,,,,,,,,,,,,,,,0,6,6,6,0,11,11,11,,,,,,,,,,,,,,,,,,,1481.280395042,p,1.3642867490000867,1482.698329167,,,,,,59,A,2025-02-08_13h03.15.214,EPIDM,2023.1.2,61.02443265111014,
3022.jpg,2352.2.jpg,0 Points,0 Points,390 Points,PS1_L7.csv,,,,,,,,,,,,,,,,,,,,,,,,,,,,,0,6,6,6,0,12,12,12,,,,,,,,,,,,,,,,,,,1486.958072542,p,1.525009582000223,1488.556667417,,,,,,59,A,2025-02-08_13h03.15.214,EPIDM,2023.1.2,61.02443265111014,
8250.jpg,1313.jpg,4 Points,4 Points,394 Points,PS1_L7.csv,,,,,,,,,,,,,,,,,,,,,,,,,,,,,0,6,6,6,0,13,13,13,,,,,,,,,,,,,,,,,,,1492.81080075,p,1.6731689989999836,1494.552741709,4,1.3474646250002138,,,,59,A,2025-02-08_13h03.15.214,EPIDM,2023.1.2,61.02443265111014,
2690.jpg,9360.jpg,1 Point,1 Point,395 Points,PS1_L7.csv,,,,,,,,,,,,,,,,,,,,,,,,,,,,,0,6,6,6,0,14,14,14,,,,,,,,,,,,,,,,,,,1500.219616292,q,1.1443221660002223,1501.432082417,,,,,,59,A,2025-02-08_13h03.15.214,EPIDM,2023.1.2,61.02443265111014,
9570.jpg,6610.jpg,0 Points,0 Points,395 Points,PS1_L7.csv,,,,,,,,,,,,,,,,,,,,,,,,,,,,,0,6,6,6,0,15,15,15,,,,,,,,,,,,,,,,,,,1505.679912042,q,0.5802540000000249,1506.331713625,,,,,,59,A,2025-02-08_13h03.15.214,EPIDM,2023.1.2,61.02443265111014,
3110.jpg,9000.jpg,4 Points,4 Points,399 Points,PS1_L7.csv,,,,,,,,,,,,,,,,,,,,,,,,,,,,,0,6,6,6,0,16,16,16,,,,,,,,,,,,,,,,,,,1510.575661709,q,0.747554416000014,1511.3962141670002,,,,,,59,A,2025-02-08_13h03.15.214,EPIDM,2023.1.2,61.02443265111014,
8465.jpg,8400.jpg,1 Point,1 Point,400 Points,PS1_L7.csv,,,,,,,,,,,,,,,,,,,,,,,,,,,,,0,6,6,6,0,17,17,17,,,,,,,,,,,,,,,,,,,1515.649015334,p,0.7542554580000456,1516.4767457090002,,,,,,59,A,2025-02-08_13h03.15.214,EPIDM,2023.1.2,61.02443265111014,
1540.jpg,2600.jpg,1 Point,1 Point,401 Points,PS1_L7.csv,,,,,,,,,,,,,,,,,,,,,,,,,,,,,0,6,6,6,0,18,18,18,,,,,,,,,,,,,,,,,,,1520.726834042,p,1.0680882080001197,1521.854822,,,,,,59,A,2025-02-08_13h03.15.214,EPIDM,2023.1.2,61.02443265111014,
2276.jpg,6540.jpg,3 Points,3 Points,404 Points,PS1_L7.csv,,,,,,,,,,,,,,,,,,,,,,,,,,,,,0,6,6,6,0,19,19,19,,,,,,,,,,,,,,,,,,,1526.109226417,q,1.6062064580001447,1527.77899325,,,,,,59,A,2025-02-08_13h03.15.214,EPIDM,2023.1.2,61.02443265111014,
5030.jpg,1670.jpg,3 Points,3 Points,407 Points,PS1_L7.csv,,,,,,,,,,,,,,,,,,,,,,,,,,,,,0,6,6,6,0,20,20,20,,,,,,,,,,,,,,,,,,,1532.026322084,p,0.9055995409999582,1532.997237542,,,,,,59,A,2025-02-08_13h03.15.214,EPIDM,2023.1.2,61.02443265111014,
9040.jpg,1120.jpg,3 Points,3 Points,410 Points,PS1_L7.csv,,,,,,,,,,,,,,,,,,,,,,,,,,,,,0,6,6,6,0,21,21,21,,,,,,,,,,,,,,,,,,,1537.2552318340001,q,1.1068331249999233,1538.429176667,,,,,,59,A,2025-02-08_13h03.15.214,EPIDM,2023.1.2,61.02443265111014,
3220.jpg,3063.jpg,5 Points,5 Points,415 Points,PS1_L7.csv,,,,,,,,,,,,,,,,,,,,,,,,,,,,,0,6,6,6,0,22,22,22,,,,,,,,,,,,,,,,,,,1542.682744292,p,1.984614249000117,1544.7258865840001,,,,,,59,A,2025-02-08_13h03.15.214,EPIDM,2023.1.2,61.02443265111014,
8117.jpg,2880.jpg,5 Points,5 Points,420 Points,PS1_L7.csv,,,,,,,,,,,,,,,,,,,,,,,,,,,,,0,6,6,6,0,23,23,23,,,,,,,,,,,,,,,,,,,1548.990753875,q,1.7881159160002085,1550.8548925,,,1561.354057917,space,2.1600029570000174,59,A,2025-02-08_13h03.15.214,EPIDM,2023.1.2,61.02443265111014,
4274.jpg,8160.jpg,2 Points,2 Points,422 Points,PS1_L8.csv,,,,,,,,,,,,,,,,,,,,,,,,,,,,,0,7,7,7,0,0,0,0,,,,,,,,,,,,,,,,,,,1566.842061042,p,0.880705583000065,1567.792136209,,,,,,59,A,2025-02-08_13h03.15.214,EPIDM,2023.1.2,61.02443265111014,
6314.jpg,O022.jpg,2 Points,2 Points,424 Points,PS1_L8.csv,,,,,,,,,,,,,,,,,,,,,,,,,,,,,0,7,7,7,0,1,1,1,,,,,,,,,,,,,,,,,,,1572.044039584,p,1.215047124000023,1573.37003175,2,1.381082291000041,,,,59,A,2025-02-08_13h03.15.214,EPIDM,2023.1.2,61.02443265111014,
1560.jpg,8185.jpg,0 Points,0 Points,424 Points,PS1_L8.csv,,,,,,,,,,,,,,,,,,,,,,,,,,,,,0,7,7,7,0,2,2,2,,,,,,,,,,,,,,,,,,,1579.0723305420001,q,1.1213452080001503,1580.302785375,,,,,,59,A,2025-02-08_13h03.15.214,EPIDM,2023.1.2,61.02443265111014,
2850.jpg,4532.jpg,3 Points,3 Points,427 Points,PS1_L8.csv,,,,,,,,,,,,,,,,,,,,,,,,,,,,,0,7,7,7,0,3,3,3,,,,,,,,,,,,,,,,,,,1584.5138295000002,p,1.3748173330000668,1585.965328,,,,,,59,A,2025-02-08_13h03.15.214,EPIDM,2023.1.2,61.02443265111014,
1390.jpg,9421.jpg,2 Points,2 Points,429 Points,PS1_L8.csv,,,,,,,,,,,,,,,,,,,,,,,,,,,,,0,7,7,7,0,4,4,4,,,,,,,,,,,,,,,,,,,1590.226566417,p,0.5828725000001782,1590.887731042,,,,,,59,A,2025-02-08_13h03.15.214,EPIDM,2023.1.2,61.02443265111014,
9800.jpg,9433.jpg,1 Point,1 Point,430 Points,PS1_L8.csv,,,,,,,,,,,,,,,,,,,,,,,,,,,,,0,7,7,7,0,5,5,5,,,,,,,,,,,,,,,,,,,1595.140868,q,1.203904957000134,1596.410246292,,,,,,59,A,2025-02-08_13h03.15.214,EPIDM,2023.1.2,61.02443265111014,
8161.jpg,1900.jpg,4 Points,4 Points,434 Points,PS1_L8.csv,,,,,,,,,,,,,,,,,,,,,,,,,,,,,0,7,7,7,0,6,6,6,,,,,,,,,,,,,,,,,,,1600.670001917,q,0.8428623329999141,1601.58188975,,,,,,59,A,2025-02-08_13h03.15.214,EPIDM,2023.1.2,61.02443265111014,
1112.jpg,6230.jpg,3 Points,3 Points,437 Points,PS1_L8.csv,,,,,,,,,,,,,,,,,,,,,,,,,,,,,0,7,7,7,0,7,7,7,,,,,,,,,,,,,,,,,,,1605.8309322090001,p,1.0895804990000784,1606.9979472920002,,,,,,59,A,2025-02-08_13h03.15.214,EPIDM,2023.1.2,61.02443265111014,
1111.jpg,1040.jpg,0 Points,0 Points,437 Points,PS1_L8.csv,,,,,,,,,,,,,,,,,,,,,,,,,,,,,0,7,7,7,0,8,8,8,,,,,,,,,,,,,,,,,,,1611.252943334,q,1.1952508330001024,1612.520452209,,,,,,59,A,2025-02-08_13h03.15.214,EPIDM,2023.1.2,61.02443265111014,
5622.jpg,9156.jpg,4 Points,4 Points,441 Points,PS1_L8.csv,,,,,,,,,,,,,,,,,,,,,,,,,,,,,0,7,7,7,0,9,9,9,,,,,,,,,,,,,,,,,,,1616.7759907500001,p,1.2567811239999287,1618.101946,,,,,,59,A,2025-02-08_13h03.15.214,EPIDM,2023.1.2,61.02443265111014,
2681.jpg,7100.jpg,3 Points,3 Points,444 Points,PS1_L8.csv,,,,,,,,,,,,,,,,,,,,,,,,,,,,,0,7,7,7,0,10,10,10,,,,,,,,,,,,,,,,,,,1622.34601475,q,0.8550812080000583,1623.277741,,,,,,59,A,2025-02-08_13h03.15.214,EPIDM,2023.1.2,61.02443265111014,
6821.jpg,9622.jpg,2 Points,2 Points,446 Points,PS1_L8.csv,,,,,,,,,,,,,,,,,,,,,,,,,,,,,0,7,7,7,0,11,11,11,,,,,,,,,,,,,,,,,,,1627.5431445420002,q,1.6327489580001497,1629.2391018340002,,,,,,59,A,2025-02-08_13h03.15.214,EPIDM,2023.1.2,61.02443265111014,
9490.jpg,9210.jpg,1 Point,1 Point,447 Points,PS1_L8.csv,,,,,,,,,,,,,,,,,,,,,,,,,,,,,0,7,7,7,0,12,12,12,,,,,,,,,,,,,,,,,,,1633.501845709,q,1.5470632490001321,1635.11209925,,,,,,59,A,2025-02-08_13h03.15.214,EPIDM,2023.1.2,61.02443265111014,
4605.jpg,1510.jpg,4 Points,4 Points,451 Points,PS1_L8.csv,,,,,,,,,,,,,,,,,,,,,,,,,,,,,0,7,7,7,0,13,13,13,,,,,,,,,,,,,,,,,,,1639.36762975,q,0.7448059159999616,1640.175443042,4,1.6342533330001174,,,,59,A,2025-02-08_13h03.15.214,EPIDM,2023.1.2,61.02443265111014,
2240.jpg,5010.jpg,5 Points,5 Points,456 Points,PS1_L8.csv,,,,,,,,,,,,,,,,,,,,,,,,,,,,,0,7,7,7,0,14,14,14,,,,,,,,,,,,,,,,,,,1646.134974084,q,0.8410705829999756,1647.068768292,,,,,,59,A,2025-02-08_13h03.15.214,EPIDM,2023.1.2,61.02443265111014,
3102.jpg,F032.jpg,1 Point,1 Point,457 Points,PS1_L8.csv,,,,,,,,,,,,,,,,,,,,,,,,,,,,,0,7,7,7,0,15,15,15,,,,,,,,,,,,,,,,,,,1651.305387375,q,1.2789159160000168,1652.692053292,,,,,,59,A,2025-02-08_13h03.15.214,EPIDM,2023.1.2,61.02443265111014,
4100.jpg,6570.2.jpg,3 Points,3 Points,460 Points,PS1_L8.csv,,,,,,,,,,,,,,,,,,,,,,,,,,,,,0,7,7,7,0,16,16,16,,,,,,,,,,,,,,,,,,,1656.902716834,p,1.1539436240000782,1658.126029084,,,,,,59,A,2025-02-08_13h03.15.214,EPIDM,2023.1.2,61.02443265111014,
2650.jpg,4531.jpg,5 Points,5 Points,465 Points,PS1_L8.csv,,,,,,,,,,,,,,,,,,,,,,,,,,,,,0,7,7,7,0,17,17,17,,,,,,,,,,,,,,,,,,,1662.374420417,p,1.0730999569998971,1663.5227709170001,,,,,,59,A,2025-02-08_13h03.15.214,EPIDM,2023.1.2,61.02443265111014,
9320.jpg,9007.jpg,0 Points,0 Points,465 Points,PS1_L8.csv,,,,,,,,,,,,,,,,,,,,,,,,,,,,,0,7,7,7,0,18,18,18,,,,,,,,,,,,,,,,,,,1667.7679143750001,p,1.3671408749999614,1669.215221542,,,,,,59,A,2025-02-08_13h03.15.214,EPIDM,2023.1.2,61.02443265111014,
8460.jpg,8330.jpg,0 Points,0 Points,465 Points,PS1_L8.csv,,,,,,,,,,,,,,,,,,,,,,,,,,,,,0,7,7,7,0,19,19,19,,,,,,,,,,,,,,,,,,,1673.4747192920001,q,1.2454416660000902,1674.777902625,,,,,,59,A,2025-02-08_13h03.15.214,EPIDM,2023.1.2,61.02443265111014,
2570.jpg,5500.jpg,3 Points,3 Points,468 Points,PS1_L8.csv,,,,,,,,,,,,,,,,,,,,,,,,,,,,,0,7,7,7,0,20,20,20,,,,,,,,,,,,,,,,,,,1679.035382042,q,0.9157229160001066,1680.021884,,,,,,59,A,2025-02-08_13h03.15.214,EPIDM,2023.1.2,61.02443265111014,
6190.jpg,3120.jpg,5 Points,5 Points,473 Points,PS1_L8.csv,,,,,,,,,,,,,,,,,,,,,,,,,,,,,0,7,7,7,0,21,21,21,,,,,,,,,,,,,,,,,,,1684.275119375,p,0.4599713750001797,1684.811675584,,,,,,59,A,2025-02-08_13h03.15.214,EPIDM,2023.1.2,61.02443265111014,
2200.jpg,4598.jpg,1 Point,1 Point,474 Points,PS1_L8.csv,,,,,,,,,,,,,,,,,,,,,,,,,,,,,0,7,7,7,0,22,22,22,,,,,,,,,,,,,,,,,,,1689.074321417,p,0.9327784990001078,1690.0788695840001,,,,,,59,A,2025-02-08_13h03.15.214,EPIDM,2023.1.2,61.02443265111014,
1303.jpg,2000.jpg,0 Points,0 Points,474 Points,PS1_L8.csv,,,,,,,,,,,,,,,,,,,,,,,,,,,,,0,7,7,7,0,23,23,23,,,,,,,,,,,,,,,,,,,1694.321144209,p,0.5106876240000133,1694.902811292,,,1705.395893875,space,4.699390998999945,59,A,2025-02-08_13h03.15.214,EPIDM,2023.1.2,61.02443265111014,
9010.jpg,9253.jpg,0 Points,0 Points,474 Points,PS1_L9.csv,,,,,,,,,,,,,,,,,,,,,,,,,,,,,0,8,8,8,0,0,0,0,,,,,,,,,,,,,,,,,,,1713.420397042,p,0.6825270820000355,1714.167124167,,,,,,59,A,2025-02-08_13h03.15.214,EPIDM,2023.1.2,61.02443265111014,
1302.jpg,2700.jpg,3 Points,3 Points,477 Points,PS1_L9.csv,,,,,,,,,,,,,,,,,,,,,,,,,,,,,0,8,8,8,0,1,1,1,,,,,,,,,,,,,,,,,,,1718.4181845,p,0.931183749000013,1719.4269233750001,3,1.2294155830000477,,,,59,A,2025-02-08_13h03.15.214,EPIDM,2023.1.2,61.02443265111014,
2030.jpg,2495.jpg,0 Points,0 Points,477 Points,PS1_L9.csv,,,,,,,,,,,,,,,,,,,,,,,,,,,,,0,8,8,8,0,2,2,2,,,,,,,,,,,,,,,,,,,1724.971318625,p,0.7174248330000523,1725.7533377500001,,,,,,59,A,2025-02-08_13h03.15.214,EPIDM,2023.1.2,61.02443265111014,
2110.jpg,7260.jpg,5 Points,5 Points,482 Points,PS1_L9.csv,,,,,,,,,,,,,,,,,,,,,,,,,,,,,0,8,8,8,0,3,3,3,,,,,,,,,,,,,,,,,,,1729.997521709,q,0.7531803320001131,1730.815958584,,,,,,59,A,2025-02-08_13h03.15.214,EPIDM,2023.1.2,61.02443265111014,
2053.jpg,9415.jpg,4 Points,4 Points,486 Points,PS1_L9.csv,,,,,,,,,,,,,,,,,,,,,,,,,,,,,0,8,8,8,0,4,4,4,,,,,,,,,,,,,,,,,,,1735.0702457920002,q,1.2635590830000751,1736.408571875,,,,,,59,A,2025-02-08_13h03.15.214,EPIDM,2023.1.2,61.02443265111014,
6211.jpg,9611.jpg,3 Points,3 Points,489 Points,PS1_L9.csv,,,,,,,,,,,,,,,,,,,,,,,,,,,,,0,8,8,8,0,5,5,5,,,,,,,,,,,,,,,,,,,1740.6533932500001,q,1.7675387910001632,1742.48637925,,,,,,59,A,2025-02-08_13h03.15.214,EPIDM,2023.1.2,61.02443265111014,
8350.jpg,7190.jpg,5 Points,5 Points,494 Points,PS1_L9.csv,,,,,,,,,,,,,,,,,,,,,,,,,,,,,0,8,8,8,0,6,6,6,,,,,,,,,,,,,,,,,,,1746.7468329590001,p,1.163200750000044,1747.984544542,,,,,,59,A,2025-02-08_13h03.15.214,EPIDM,2023.1.2,61.02443265111014,
9340.jpg,6910.jpg,0 Points,0 Points,494 Points,PS1_L9.csv,,,,,,,,,,,,,,,,,,,,,,,,,,,,,0,8,8,8,0,7,7,7,,,,,,,,,,,,,,,,,,,1752.232434709,p,1.0369060410001225,1753.3414782500001,,,,,,59,A,2025-02-08_13h03.15.214,EPIDM,2023.1.2,61.02443265111014,
4533.jpg,2385.jpg,3 Points,3 Points,497 Points,PS1_L9.csv,,,,,,,,,,,,,,,,,,,,,,,,,,,,,0,8,8,8,0,8,8,8,,,,,,,,,,,,,,,,,,,1757.586219042,p,0.9873686660001226,1758.653101459,,,,,,59,A,2025-02-08_13h03.15.214,EPIDM,2023.1.2,61.02443265111014,
5940.jpg,9411.jpg,0 Points,0 Points,497 Points,PS1_L9.csv,,,,,,,,,,,,,,,,,,,,,,,,,,,,,0,8,8,8,0,9,9,9,,,,,,,,,,,,,,,,,,,1762.898244792,q,1.6907217070000229,1764.661180625,,,,,,59,A,2025-02-08_13h03.15.214,EPIDM,2023.1.2,61.02443265111014,
2220.jpg,2010.jpg,5 Points,5 Points,502 Points,PS1_L9.csv,,,,,,,,,,,,,,,,,,,,,,,,,,,,,0,8,8,8,0,10,10,10,,,,,,,,,,,,,,,,,,,1768.91210075,q,1.2126502080000705,1770.197640334,,,,,,59,A,2025-02-08_13h03.15.214,EPIDM,2023.1.2,61.02443265111014,
9500.jpg,6360.jpg,1 Point,1 Point,503 Points,PS1_L9.csv,,,,,,,,,,,,,,,,,,,,,,,,,,,,,0,8,8,8,0,11,11,11,,,,,,,,,,,,,,,,,,,1774.439460584,p,0.7089417499999513,1775.225528292,,,,,,59,A,2025-02-08_13h03.15.214,EPIDM,2023.1.2,61.02443265111014,
2092.jpg,2210.jpg,0 Points,0 Points,503 Points,PS1_L9.csv,,,,,,,,,,,,,,,,,,,,,,,,,,,,,0,8,8,8,0,12,12,12,,,,,,,,,,,,,,,,,,,1779.475298084,p,1.9051514990001692,1781.44879075,,,,,,59,A,2025-02-08_13h03.15.214,EPIDM,2023.1.2,61.02443265111014,
9530.jpg,9220.jpg,1 Point,1 Point,504 Points,PS1_L9.csv,,,,,,,,,,,,,,,,,,,,,,,,,,,,,0,8,8,8,0,13,13,13,,,,,,,,,,,,,,,,,,,1785.698636292,q,1.0263004990002287,1786.796974459,1,1.0288911660000508,,,,59,A,2025-02-08_13h03.15.214,EPIDM,2023.1.2,61.02443265111014,
9254.jpg,9290.jpg,2 Points,2 Points,506 Points,PS1_L9.csv,,,,,,,,,,,,,,,,,,,,,,,,,,,,,0,8,8,8,0,14,14,14,,,,,,,,,,,,,,,,,,,1792.1592990000001,q,1.5963244160000727,1793.816027667,,,,,,59,A,2025-02-08_13h03.15.214,EPIDM,2023.1.2,61.02443265111014,
4608.jpg,8320.jpg,1 Point,1 Point,507 Points,PS1_L9.csv,,,,,,,,,,,,,,,,,,,,,,,,,,,,,0,8,8,8,0,15,15,15,,,,,,,,,,,,,,,,,,,1798.0812660420002,p,1.337893999000073,1799.489543459,,,,,,59,A,2025-02-08_13h03.15.214,EPIDM,2023.1.2,61.02443265111014,
7237.jpg,8510.jpg,4 Points,4 Points,511 Points,PS1_L9.csv,,,,,,,,,,,,,,,,,,,,,,,,,,,,,0,8,8,8,0,16,16,16,,,,,,,,,,,,,,,,,,,1803.738459792,q,0.9852682910000681,1804.796536084,,,,,,59,A,2025-02-08_13h03.15.214,EPIDM,2023.1.2,61.02443265111014,
9417.jpg,6530.jpg,1 Point,1 Point,512 Points,PS1_L9.csv,,,,,,,,,,,,,,,,,,,,,,,,,,,,,0,8,8,8,0,17,17,17,,,,,,,,,,,,,,,,,,,1809.042064667,p,1.8736079159999122,1810.999316334,,,,,,59,A,2025-02-08_13h03.15.214,EPIDM,2023.1.2,61.02443265111014,
6831.jpg,2141.jpg,5 Points,5 Points,517 Points,PS1_L9.csv,,,,,,,,,,,,,,,,,,,,,,,,,,,,,0,8,8,8,0,18,18,18,,,,,,,,,,,,,,,,,,,1815.231523875,q,1.764609541000084,1817.0695705,,,,,,59,A,2025-02-08_13h03.15.214,EPIDM,2023.1.2,61.02443265111014,
4689.jpg,7009.jpg,5 Points,5 Points,522 Points,PS1_L9.csv,,,,,,,,,,,,,,,,,,,,,,,,,,,,,0,8,8,8,0,19,19,19,,,,,,,,,,,,,,,,,,,1821.3210035,q,0.6979875830000424,1822.0880180000001,,,,,,59,A,2025-02-08_13h03.15.214,EPIDM,2023.1.2,61.02443265111014,
2751.jpg,6313.jpg,3 Points,3 Points,525 Points,PS1_L9.csv,,,,,,,,,,,,,,,,,,,,,,,,,,,,,0,8,8,8,0,20,20,20,,,,,,,,,,,,,,,,,,,1826.337458709,p,1.1372301250001442,1827.550962209,,,,,,59,A,2025-02-08_13h03.15.214,EPIDM,2023.1.2,61.02443265111014,
4621.jpg,3550.jpg,2 Points,2 Points,527 Points,PS1_L9.csv,,,,,,,,,,,,,,,,,,,,,,,,,,,,,0,8,8,8,0,21,21,21,,,,,,,,,,,,,,,,,,,1831.7914203340001,p,1.1481508750001126,1833.014822334,,,,,,59,A,2025-02-08_13h03.15.214,EPIDM,2023.1.2,61.02443265111014,
8220.jpg,2410.jpg,4 Points,4 Points,531 Points,PS1_L9.csv,,,,,,,,,,,,,,,,,,,,,,,,,,,,,0,8,8,8,0,22,22,22,,,,,,,,,,,,,,,,,,,1837.262713375,p,1.3405366250001975,1838.684859709,,,,,,59,A,2025-02-08_13h03.15.214,EPIDM,2023.1.2,61.02443265111014,
1113.jpg,1240.jpg,3 Points,3 Points,534 Points,PS1_L9.csv,,,,,,,,,,,,,,,,,,,,,,,,,,,,,0,8,8,8,0,23,23,23,,,,,,,,,,,,,,,,,,,1842.9317265,q,1.2156039570000416,1844.213035334,,,1854.701723375,space,8.63673358300008,59,A,2025-02-08_13h03.15.214,EPIDM,2023.1.2,61.02443265111014,
2750.jpg,9050.jpg,4 Points,4 Points,538 Points,PS1_L10.csv,,,,,,,,,,,,,,,,,,,,,,,,,,,,,0,9,9,9,0,0,0,0,,,,,,,,,,,,,,,,,,,1866.6568295,q,1.9766568740001844,1868.701851625,,,,,,59,A,2025-02-08_13h03.15.214,EPIDM,2023.1.2,61.02443265111014,
2312.jpg,2722.jpg,1 Points,1 Points,539 Points,PS1_L10.csv,,,,,,,,,,,,,,,,,,,,,,,,,,,,,0,9,9,9,0,1,1,1,,,,,,,,,,,,,,,,,,,1872.95278475,p,1.089472416000092,1874.1117920000002,1,1.1695303740000895,,,,59,A,2025-02-08_13h03.15.214,EPIDM,2023.1.2,61.02443265111014,
8232.jpg,4279.jpg,5 Points,5 Points,544 Points,PS1_L10.csv,,,,,,,,,,,,,,,,,,,,,,,,,,,,,0,9,9,9,0,2,2,2,,,,,,,,,,,,,,,,,,,1879.586765167,p,1.0711773740000012,1880.734263125,,,,,,59,A,2025-02-08_13h03.15.214,EPIDM,2023.1.2,61.02443265111014,
6000.jpg,6836.jpg,4 Points,4 Points,548 Points,PS1_L10.csv,,,,,,,,,,,,,,,,,,,,,,,,,,,,,0,9,9,9,0,3,3,3,,,,,,,,,,,,,,,,,,,1884.978582125,p,0.9751725409999494,1886.036624334,,,,,,59,A,2025-02-08_13h03.15.214,EPIDM,2023.1.2,61.02443265111014,
4536.jpg,2280.jpg,4 Points,4 Points,552 Points,PS1_L10.csv,,,,,,,,,,,,,,,,,,,,,,,,,,,,,0,9,9,9,0,4,4,4,,,,,,,,,,,,,,,,,,,1890.2824386250002,p,1.103222041000265,1891.4657106250002,,,,,,59,A,2025-02-08_13h03.15.214,EPIDM,2023.1.2,61.02443265111014,
6241.jpg,9561.jpg,3 Points,3 Points,555 Points,PS1_L10.csv,,,,,,,,,,,,,,,,,,,,,,,,,,,,,0,9,9,9,0,5,5,5,,,,,,,,,,,,,,,,,,,1895.718896,p,1.7646724990002554,1897.5580315,,,,,,59,A,2025-02-08_13h03.15.214,EPIDM,2023.1.2,61.02443265111014,
1942.jpg,2890.jpg,1 Points,1 Points,556 Points,PS1_L10.csv,,,,,,,,,,,,,,,,,,,,,,,,,,,,,0,9,9,9,0,6,6,6,,,,,,,,,,,,,,,,,,,1901.8008831670002,p,1.2327179580000234,1903.0973061670002,,,,,,59,A,2025-02-08_13h03.15.214,EPIDM,2023.1.2,61.02443265111014,
6020.jpg,6300.jpg,2 Points,2 Points,558 Points,PS1_L10.csv,,,,,,,,,,,,,,,,,,,,,,,,,,,,,0,9,9,9,0,7,7,7,,,,,,,,,,,,,,,,,,,1907.353421792,q,1.431603083000084,1908.848304042,,,,,,59,A,2025-02-08_13h03.15.214,EPIDM,2023.1.2,61.02443265111014,
7170.jpg,2170.jpg,2 Points,2 Points,560 Points,PS1_L10.csv,,,,,,,,,,,,,,,,,,,,,,,,,,,,,0,9,9,9,0,8,8,8,,,,,,,,,,,,,,,,,,,1913.1017457500002,p,1.4763541660000215,1914.639658917,,,,,,59,A,2025-02-08_13h03.15.214,EPIDM,2023.1.2,61.02443265111014,
5510.jpg,2514.jpg,5 Points,5 Points,565 Points,PS1_L10.csv,,,,,,,,,,,,,,,,,,,,,,,,,,,,,0,9,9,9,0,9,9,9,,,,,,,,,,,,,,,,,,,1918.89224375,p,1.1654628740002977,1920.1373830840002,,,,,,59,A,2025-02-08_13h03.15.214,EPIDM,2023.1.2,61.02443265111014,
6840.jpg,3080.jpg,1 Points,1 Points,566 Points,PS1_L10.csv,,,,,,,,,,,,,,,,,,,,,,,,,,,,,0,9,9,9,0,10,10,10,,,,,,,,,,,,,,,,,,,1924.3791191250002,p,1.6456899989998988,1926.0953587919998,,,,,,59,A,2025-02-08_13h03.15.214,EPIDM,2023.1.2,61.02443265111014,
7195.jpg,2487.jpg,2 Points,2 Points,568 Points,PS1_L10.csv,,,,,,,,,,,,,,,,,,,,,,,,,,,,,0,9,9,9,0,11,11,11,,,,,,,,,,,,,,,,,,,1930.341881709,p,1.114383624000368,1931.5276519590002,,,,,,59,A,2025-02-08_13h03.15.214,EPIDM,2023.1.2,61.02443265111014,
5971.jpg,9912.jpg,5 Points,5 Points,573 Points,PS1_L10.csv,,,,,,,,,,,,,,,,,,,,,,,,,,,,,0,9,9,9,0,12,12,12,,,,,,,,,,,,,,,,,,,1935.774904125,p,1.2253448740003137,1937.0630927920001,,,,,,59,A,2025-02-08_13h03.15.214,EPIDM,2023.1.2,61.02443265111014,
2520.jpg,8503.jpg,2 Points,2 Points,575 Points,PS1_L10.csv,,,,,,,,,,,,,,,,,,,,,,,,,,,,,0,9,9,9,0,13,13,13,,,,,,,,,,,,,,,,,,,1941.308682125,p,1.0835619159998373,1942.461749959,2,1.0664623320004125,,,,59,A,2025-02-08_13h03.15.214,EPIDM,2023.1.2,61.02443265111014,
5480.jpg,8200.jpg,4 Points,4 Points,579 Points,PS1_L10.csv,,,,,,,,,,,,,,,,,,,,,,,,,,,,,0,9,9,9,0,14,14,14,,,,,,,,,,,,,,,,,,,1947.8453277500003,p,1.4270322080001847,1949.346670042,,,,,,59,A,2025-02-08_13h03.15.214,EPIDM,2023.1.2,61.02443265111014,
6370.jpg,1270.jpg,4 Points,4 Points,583 Points,PS1_L10.csv,,,,,,,,,,,,,,,,,,,,,,,,,,,,,0,9,9,9,0,15,15,15,,,,,,,,,,,,,,,,,,,1953.588089459,q,0.5319078739999554,1954.1949091669999,,,,,,59,A,2025-02-08_13h03.15.214,EPIDM,2023.1.2,61.02443265111014,
5130.jpg,1810.jpg,3 Points,3 Points,586 Points,PS1_L10.csv,,,,,,,,,,,,,,,,,,,,,,,,,,,,,0,9,9,9,0,16,16,16,,,,,,,,,,,,,,,,,,,1958.4341637500002,p,1.3585758740001097,1959.867425584,,,,,,59,A,2025-02-08_13h03.15.214,EPIDM,2023.1.2,61.02443265111014,
4250.jpg,7060.jpg,5 Points,5 Points,591 Points,PS1_L10.csv,,,,,,,,,,,,,,,,,,,,,,,,,,,,,0,9,9,9,0,17,17,17,,,,,,,,,,,,,,,,,,,1964.1148387920002,q,0.8690636659999313,1965.0549233340003,,,,,,59,A,2025-02-08_13h03.15.214,EPIDM,2023.1.2,61.02443265111014,
9373.jpg,9410.jpg,0 Points,0 Points,591 Points,PS1_L10.csv,,,,,,,,,,,,,,,,,,,,,,,,,,,,,0,9,9,9,0,18,18,18,,,,,,,,,,,,,,,,,,,1969.2934636250002,p,1.7464446660001727,1971.1225130000003,,,,,,59,A,2025-02-08_13h03.15.214,EPIDM,2023.1.2,61.02443265111014,
2221.jpg,2270.jpg,2 Points,2 Points,593 Points,PS1_L10.csv,,,,,,,,,,,,,,,,,,,,,,,,,,,,,0,9,9,9,0,19,19,19,,,,,,,,,,,,,,,,,,,1975.384071209,p,0.6148445829999787,1976.063996334,,,,,,59,A,2025-02-08_13h03.15.214,EPIDM,2023.1.2,61.02443265111014,
1650.jpg,2130.jpg,1 Points,1 Points,594 Points,PS1_L10.csv,,,,,,,,,,,,,,,,,,,,,,,,,,,,,0,9,9,9,0,20,20,20,,,,,,,,,,,,,,,,,,,1980.3095521250002,p,0.8820088330003841,1981.25989025,,,,,,59,A,2025-02-08_13h03.15.214,EPIDM,2023.1.2,61.02443265111014,
1280.jpg,9402.jpg,2 Points,2 Points,596 Points,PS1_L10.csv,,,,,,,,,,,,,,,,,,,,,,,,,,,,,0,9,9,9,0,21,21,21,,,,,,,,,,,,,,,,,,,1985.509783209,q,1.2169915820000483,1986.7862840000003,,,,,,59,A,2025-02-08_13h03.15.214,EPIDM,2023.1.2,61.02443265111014,
2214.jpg,4500.jpg,3 Points,3 Points,599 Points,PS1_L10.csv,,,,,,,,,,,,,,,,,,,,,,,,,,,,,0,9,9,9,0,22,22,22,,,,,,,,,,,,,,,,,,,1991.0367619170001,p,1.418510291000132,1992.524738875,,,,,,59,A,2025-02-08_13h03.15.214,EPIDM,2023.1.2,61.02443265111014,
7284.jpg,8021.jpg,4 Points,4 Points,603 Points,PS1_L10.csv,,,,,,,,,,,,,,,,,,,,,,,,,,,,,0,9,9,9,0,23,23,23,,,,,,,,,,,,,,,,,,,1996.773215709,q,1.1857261239998138,1998.0321574590002,,,2008.5277450419999,space,2.2707595410002455,59,A,2025-02-08_13h03.15.214,EPIDM,2023.1.2,61.02443265111014,
