L_Scene,R_Scene,Points_L,Points_R,PtTotal,blockFile,Instructions_Loop.thisRepN,Instructions_Loop.thisTrialN,Instructions_Loop.thisN,Instructions_Loop.thisIndex,Redo_Instructions_Loop.thisRepN,Redo_Instructions_Loop.thisTrialN,Redo_Instructions_Loop.thisN,Redo_Instructions_Loop.thisIndex,Practice_Encoding_Loop.thisRepN,Practice_Encoding_Loop.thisTrialN,Practice_Encoding_Loop.thisN,Practice_Encoding_Loop.thisIndex,Practice_Response_Fail_Loop.thisRepN,Practice_Response_Fail_Loop.thisTrialN,Practice_Response_Fail_Loop.thisN,Practice_Response_Fail_Loop.thisIndex,Practice_FB_Loop.thisRepN,Practice_FB_Loop.thisTrialN,Practice_FB_Loop.thisN,Practice_FB_Loop.thisIndex,Practice_Attention_Loop.thisRepN,Practice_Attention_Loop.thisTrialN,Practice_Attention_Loop.thisN,Practice_Attention_Loop.thisIndex,Practice_EncBrk_Loop.thisRepN,Practice_EncBrk_Loop.thisTrialN,Practice_EncBrk_Loop.thisN,Practice_EncBrk_Loop.thisIndex,Encoding_Loop.thisRepN,Encoding_Loop.thisTrialN,Encoding_Loop.thisN,Encoding_Loop.thisIndex,EncStim_Loop.thisRepN,EncStim_Loop.thisTrialN,EncStim_Loop.thisN,EncStim_Loop.thisIndex,Response_Fail_Loop.thisRepN,Response_Fail_Loop.thisTrialN,Response_Fail_Loop.thisN,Response_Fail_Loop.thisIndex,FB_Loop.thisRepN,FB_Loop.thisTrialN,FB_Loop.thisN,FB_Loop.thisIndex,Attention_Loop.thisRepN,Attention_Loop.thisTrialN,Attention_Loop.thisN,Attention_Loop.thisIndex,EncBrk_Loop.thisRepN,EncBrk_Loop.thisTrialN,EncBrk_Loop.thisN,EncBrk_Loop.thisIndex,Transition_Enc.keys,Transition_Enc.rt,Encoding_Resp.started,Encoding_Resp.keys,Encoding_Resp.rt,R_Point_FB_Stim.started,Attn_resp.keys,Attn_resp.rt,Progress_Tracker.started,EncBrk_Resp.keys,EncBrk_Resp.rt,participant,Group,date,expName,psychopyVersion,frameRate,
,,,,,,,,,,,,,,,,,,,,,,,,,,,,,,,,,,,,,,,,,,,,,,,,,,,,,,,,,,space,4.320918541983701,,,,,,,,,,271222,A,2024-07-11_11h01.12.333,EPIDM,2023.1.2,None,
A060.jpg,F041.jpg,5 Points,5 Points,5 Points,,,,,,,,,,0,0,0,0,,,,,,,,,,,,,,,,,,,,,,,,,,,,,,,,,,,,,,,,,,,1769.4162503329571,p,2.612377958954312,1772.192325873999,,,,,,271222,A,2024-07-11_11h01.12.333,EPIDM,2023.1.2,None,
O161.jpg,1812.jpg,2 Points,2 Points,7 Points,,,,,,,,,,0,1,1,1,,,,,,,,,,,,,,,,,,,,,,,,,,,,,,,,,,,,,,,,,,,1776.3620204579784,p,1.8104034170974046,1778.3137032489758,,,,,,271222,A,2024-07-11_11h01.12.333,EPIDM,2023.1.2,None,
O013.jpg,A001.jpg,3 Points,3 Points,10 Points,,,,,,,,,,0,2,2,2,,,,,,,,,,,,,,,,,,,,,,,,,,,,,,,,,,,,,,,,,,,1782.5133566239383,p,1.964681249926798,1784.6420541240368,,,,,,271222,A,2024-07-11_11h01.12.333,EPIDM,2023.1.2,None,
P036.jpg,F273.jpg,5 Points,5 Points,15 Points,,,,,,,,,,0,3,3,3,,,,,,,,,,,,,,,,,,,,,,,,,,,,,,,,,,,,,,,,,,,1788.783407040988,q,2.1408629179932177,1791.093791665975,,,,,,271222,A,2024-07-11_11h01.12.333,EPIDM,2023.1.2,None,
L130.jpg,2393.jpg,0 Points,0 Points,15 Points,,,,,,,,,,0,4,4,4,,,,,,,,,,,,,,,,,,,,,,,,,,,,,,,,,,,,,,,,,,,1795.2462970829802,q,1.9491279181092978,1797.3380047490355,0,3.2961704169865698,,,,271222,A,2024-07-11_11h01.12.333,EPIDM,2023.1.2,None,
F279.jpg,P033.jpg,3 Points,3 Points,18 Points,,,,,,,,,,0,5,5,5,,,,,,,,,,,,,,,,,,,,,,,,,,,,,,,,,,,,,,,,,,,1804.9289679989452,p,1.4119069590233266,1806.5261310830247,,,,,,271222,A,2024-07-11_11h01.12.333,EPIDM,2023.1.2,None,
A104.jpg,2593.jpg,2 Points,2 Points,20 Points,,,,,,,,,,0,6,6,6,,,,,,,,,,,,,,,,,,,,,,,,,,,,,,,,,,,,,,,,,,,1810.670196666033,p,1.1101695840479806,1811.9141247910447,,,,,,271222,A,2024-07-11_11h01.12.333,EPIDM,2023.1.2,None,
2598.jpg,2605.jpg,0 Points,0 Points,20 Points,,,,,,,,,,0,7,7,7,,,,,,,,,,,,,,,,,,,,,,,,,,,,,,,,,,,,,,,,,,,1816.0960814160062,q,1.0200540840160102,1817.1734152489807,,,,,,271222,A,2024-07-11_11h01.12.333,EPIDM,2023.1.2,None,
L005.jpg,O011.jpg,1 Points,1 Points,21 Points,,,,,,,,,,0,8,8,8,,,,,,,,,,,,,,,,,,,,,,,,,,,,,,,,,,,,,,,,,,,1821.4295474579558,p,2.5591075429692864,1824.1289107489865,,,,,,271222,A,2024-07-11_11h01.12.333,EPIDM,2023.1.2,None,
8186.jpg,F078.jpg,2 Points,2 Points,23 Points,,,,,,,,,,0,9,9,9,,,,,,,,,,,,,,,,,,,,,,,,,,,,,,,,,,,,,,,,,,,1828.3108608330367,q,2.28548162500374,1830.7318592489464,2,1.6372590840328485,1842.6160950829508,space,22.715651417034678,271222,A,2024-07-11_11h01.12.333,EPIDM,2023.1.2,None,
,,,,,,,,,,,,,,,,,,,,,,,,,,,,,,,,,,,,,,,,,,,,,,,,,,,,,,,,,,space,2.2766751679591835,,,,,,,,,,271222,A,2024-07-11_11h01.12.333,EPIDM,2023.1.2,None,
1019.jpg,2120.jpg,0 Points,0 Points,0 Points,PS1_L1.csv,,,,,,,,,,,,,,,,,,,,,,,,,,,,,0,0,0,0,0,0,0,0,,,,,,,,,,,,,,,,,,,1904.0615279990016,q,2.700563709018752,1906.8801756240427,,,,,,271222,A,2024-07-11_11h01.12.333,EPIDM,2023.1.2,None,
6900.jpg,8531.jpg,4 Points,4 Points,4 Points,PS1_L1.csv,,,,,,,,,,,,,,,,,,,,,,,,,,,,,0,0,0,0,0,1,1,1,,,,,,,,,,,,,,,,,,,1911.0803371239454,q,0.6666391680482775,1911.8153176240157,4,2.085065959021449,,,,271222,A,2024-07-11_11h01.12.333,EPIDM,2023.1.2,None,
5594.jpg,5750.jpg,5 Points,5 Points,9 Points,PS1_L1.csv,,,,,,,,,,,,,,,,,,,,,,,,,,,,,0,0,0,0,0,2,2,2,,,,,,,,,,,,,,,,,,,1918.2103751660325,q,0.9676117090275511,1919.2586887079524,,,,,,271222,A,2024-07-11_11h01.12.333,EPIDM,2023.1.2,None,
2205.jpg,3053.jpg,4 Points,4 Points,13 Points,PS1_L1.csv,,,,,,,,,,,,,,,,,,,,,,,,,,,,,0,0,0,0,0,3,3,3,,,,,,,,,,,,,,,,,,,1923.5013995829504,q,1.4216866680653766,1924.9930786240147,,,,,,271222,A,2024-07-11_11h01.12.333,EPIDM,2023.1.2,None,
3250.jpg,A053.jpg,3 Points,3 Points,16 Points,PS1_L1.csv,,,,,,,,,,,,,,,,,,,,,,,,,,,,,0,0,0,0,0,4,4,4,,,,,,,,,,,,,,,,,,,1929.239500583033,p,1.5625303749693558,1930.9102921240265,,,,,,271222,A,2024-07-11_11h01.12.333,EPIDM,2023.1.2,None,
7950.jpg,7187.jpg,1 Point,1 Point,17 Points,PS1_L1.csv,,,,,,,,,,,,,,,,,,,,,,,,,,,,,0,0,0,0,0,5,5,5,,,,,,,,,,,,,,,,,,,1935.1266495409654,p,1.3883602920686826,1936.584099291009,,,,,,271222,A,2024-07-11_11h01.12.333,EPIDM,2023.1.2,None,
5535.jpg,8210.jpg,3 Points,3 Points,20 Points,PS1_L1.csv,,,,,,,,,,,,,,,,,,,,,,,,,,,,,0,0,0,0,0,6,6,6,,,,,,,,,,,,,,,,,,,1940.8268207079964,q,1.1273033759789541,1942.020914915949,,,,,,271222,A,2024-07-11_11h01.12.333,EPIDM,2023.1.2,None,
9001.jpg,9620.jpg,1 Point,1 Point,21 Points,PS1_L1.csv,,,,,,,,,,,,,,,,,,,,,,,,,,,,,0,0,0,0,0,7,7,7,,,,,,,,,,,,,,,,,,,1946.2674652079586,p,2.7510972500313073,1949.091371499002,,,,,,271222,A,2024-07-11_11h01.12.333,EPIDM,2023.1.2,None,
1110.jpg,9331.jpg,2 Points,2 Points,23 Points,PS1_L1.csv,,,,,,,,,,,,,,,,,,,,,,,,,,,,,0,0,0,0,0,8,8,8,,,,,,,,,,,,,,,,,,,1953.3373445409816,q,1.1374836249742657,1954.5483256239677,,,,,,271222,A,2024-07-11_11h01.12.333,EPIDM,2023.1.2,None,
7820.jpg,1121.jpg,0 Points,0 Points,23 Points,PS1_L1.csv,,,,,,,,,,,,,,,,,,,,,,,,,,,,,0,0,0,0,0,9,9,9,,,,,,,,,,,,,,,,,,,1958.7939416660229,q,1.8812320840079337,1960.7347365409369,,,,,,271222,A,2024-07-11_11h01.12.333,EPIDM,2023.1.2,None,
7186.jpg,9182.jpg,2 Points,2 Points,25 Points,PS1_L1.csv,,,,,,,,,,,,,,,,,,,,,,,,,,,,,0,0,0,0,0,10,10,10,,,,,,,,,,,,,,,,,,,1964.9933306239545,p,3.095867541967891,1968.1678536239779,,,,,,271222,A,2024-07-11_11h01.12.333,EPIDM,2023.1.2,None,
9280.jpg,9390.jpg,1 Point,1 Point,26 Points,PS1_L1.csv,,,,,,,,,,,,,,,,,,,,,,,,,,,,,0,0,0,0,0,11,11,11,,,,,,,,,,,,,,,,,,,1972.4059253740124,p,0.8683660009410232,1973.3470294990111,,,,,,271222,A,2024-07-11_11h01.12.333,EPIDM,2023.1.2,None,
2440.jpg,7351.jpg,4 Points,4 Points,30 Points,PS1_L1.csv,,,,,,,,,,,,,,,,,,,,,,,,,,,,,0,0,0,0,0,12,12,12,,,,,,,,,,,,,,,,,,,1977.5965926659992,q,1.7798166670836508,1979.459341541049,,,,,,271222,A,2024-07-11_11h01.12.333,EPIDM,2023.1.2,None,
6834.jpg,9120.jpg,5 Points,5 Points,35 Points,PS1_L1.csv,,,,,,,,,,,,,,,,,,,,,,,,,,,,,0,0,0,0,0,13,13,13,,,,,,,,,,,,,,,,,,,1983.699576248997,None,,,0,3.4434041250497103,,,,271222,A,2024-07-11_11h01.12.333,EPIDM,2023.1.2,None,
9230.jpg,9181.jpg,0 Points,0 Points,35 Points,PS1_L1.csv,,,,,,,,,,,,,,,,,,,,,,,,,,,,,0,0,0,0,0,14,14,14,,,,,,,,,,,,,,,,,,,1994.6911519989371,p,0.7826571250334382,1995.5409790830454,,,,,,271222,A,2024-07-11_11h01.12.333,EPIDM,2023.1.2,None,
8260.jpg,8280.jpg,3 Points,3 Points,38 Points,PS1_L1.csv,,,,,,,,,,,,,,,,,,,,,,,,,,,,,0,0,0,0,0,15,15,15,,,,,,,,,,,,,,,,,,,1999.7998346659588,p,0.6809989589964971,2000.5489467079751,,,,,,271222,A,2024-07-11_11h01.12.333,EPIDM,2023.1.2,None,
9470.jpg,9400.jpg,3 Points,3 Points,41 Points,PS1_L1.csv,,,,,,,,,,,,,,,,,,,,,,,,,,,,,0,0,0,0,0,16,16,16,,,,,,,,,,,,,,,,,,,2004.805051540956,q,0.852257626131177,2005.7188259579707,,,,,,271222,A,2024-07-11_11h01.12.333,EPIDM,2023.1.2,None,
2616.jpg,7238.jpg,4 Points,4 Points,45 Points,PS1_L1.csv,,,,,,,,,,,,,,,,,,,,,,,,,,,,,0,0,0,0,0,17,17,17,,,,,,,,,,,,,,,,,,,2009.9870542909484,q,0.8055750000057742,2010.861564749037,,,,,,271222,A,2024-07-11_11h01.12.333,EPIDM,2023.1.2,None,
9430.jpg,3010.jpg,5 Points,5 Points,50 Points,PS1_L1.csv,,,,,,,,,,,,,,,,,,,,,,,,,,,,,0,0,0,0,0,18,18,18,,,,,,,,,,,,,,,,,,,2015.1138229989447,p,0.511597124976106,2015.692227707943,,,,,,271222,A,2024-07-11_11h01.12.333,EPIDM,2023.1.2,None,
1661.jpg,1321.jpg,3 Points,3 Points,53 Points,PS1_L1.csv,,,,,,,,,,,,,,,,,,,,,,,,,,,,,0,0,0,0,0,19,19,19,,,,,,,,,,,,,,,,,,,2019.9517074580071,q,0.8331262919818982,2020.8447256239597,,,,,,271222,A,2024-07-11_11h01.12.333,EPIDM,2023.1.2,None,
8041.jpg,2271.jpg,2 Points,2 Points,55 Points,PS1_L1.csv,,,,,,,,,,,,,,,,,,,,,,,,,,,,,0,0,0,0,0,20,20,20,,,,,,,,,,,,,,,,,,,2025.1017720829695,q,0.6664473341079429,2025.832608290948,,,,,,271222,A,2024-07-11_11h01.12.333,EPIDM,2023.1.2,None,
9180.jpg,9046.jpg,3 Points,3 Points,58 Points,PS1_L1.csv,,,,,,,,,,,,,,,,,,,,,,,,,,,,,0,0,0,0,0,21,21,21,,,,,,,,,,,,,,,,,,,2030.086129916017,p,1.2205323750386015,2031.3757700410206,,,,,,271222,A,2024-07-11_11h01.12.333,EPIDM,2023.1.2,None,
2691.jpg,7640.jpg,0 Points,0 Points,58 Points,PS1_L1.csv,,,,,,,,,,,,,,,,,,,,,,,,,,,,,0,0,0,0,0,22,22,22,,,,,,,,,,,,,,,,,,,2035.6418935830006,q,0.8791231260402128,2036.5956974989967,,,,,,271222,A,2024-07-11_11h01.12.333,EPIDM,2023.1.2,None,
1660.jpg,2840.jpg,2 Points,2 Points,60 Points,PS1_L1.csv,,,,,,,,,,,,,,,,,,,,,,,,,,,,,0,0,0,0,0,23,23,23,,,,,,,,,,,,,,,,,,,2040.849343082984,p,0.958687209058553,2041.87956558296,,,2052.367873791023,space,1.4807552930433303,271222,A,2024-07-11_11h01.12.333,EPIDM,2023.1.2,None,
9480.jpg,9250.jpg,0 Points,0 Points,60 Points,PS1_L2.csv,,,,,,,,,,,,,,,,,,,,,,,,,,,,,0,1,1,1,0,0,0,0,,,,,,,,,,,,,,,,,,,2057.164976708009,p,1.3713224179809913,2058.608970665955,,,,,,271222,A,2024-07-11_11h01.12.333,EPIDM,2023.1.2,None,
9910.jpg,6940.jpg,2 Points,2 Points,62 Points,PS1_L2.csv,,,,,,,,,,,,,,,,,,,,,,,,,,,,,0,1,1,1,0,1,1,1,,,,,,,,,,,,,,,,,,,2062.875696624047,q,1.7248773339670151,2064.6662094580242,2,1.7111880000447854,,,,271222,A,2024-07-11_11h01.12.333,EPIDM,2023.1.2,None,
4535.jpg,1811.jpg,1 Point,1 Point,63 Points,PS1_L2.csv,,,,,,,,,,,,,,,,,,,,,,,,,,,,,0,1,1,1,0,2,2,2,,,,,,,,,,,,,,,,,,,2070.70156441594,q,1.106317791971378,2071.881487541017,,,,,,271222,A,2024-07-11_11h01.12.333,EPIDM,2023.1.2,None,
2020.jpg,1947.jpg,5 Points,5 Points,68 Points,PS1_L2.csv,,,,,,,,,,,,,,,,,,,,,,,,,,,,,0,1,1,1,0,3,3,3,,,,,,,,,,,,,,,,,,,2076.13352599903,p,0.7300273339496925,2076.934512165957,,,,,,271222,A,2024-07-11_11h01.12.333,EPIDM,2023.1.2,None,
9160.jpg,1200.jpg,4 Points,4 Points,72 Points,PS1_L2.csv,,,,,,,,,,,,,,,,,,,,,,,,,,,,,0,1,1,1,0,4,4,4,,,,,,,,,,,,,,,,,,,2081.186787790968,p,0.629260667017661,2081.8890413329937,,,,,,271222,A,2024-07-11_11h01.12.333,EPIDM,2023.1.2,None,
9520.jpg,1931.jpg,3 Points,3 Points,75 Points,PS1_L2.csv,,,,,,,,,,,,,,,,,,,,,,,,,,,,,0,1,1,1,0,5,5,5,,,,,,,,,,,,,,,,,,,2086.1242965830024,p,0.9710182091221213,2087.1588430410484,,,,,,271222,A,2024-07-11_11h01.12.333,EPIDM,2023.1.2,None,
7830.jpg,2499.jpg,3 Points,3 Points,78 Points,PS1_L2.csv,,,,,,,,,,,,,,,,,,,,,,,,,,,,,0,1,1,1,0,6,6,6,,,,,,,,,,,,,,,,,,,2091.405336332973,p,1.0898525840602815,2092.563782582991,,,,,,271222,A,2024-07-11_11h01.12.333,EPIDM,2023.1.2,None,
6830.jpg,6212.jpg,4 Points,4 Points,82 Points,PS1_L2.csv,,,,,,,,,,,,,,,,,,,,,,,,,,,,,0,1,1,1,0,7,7,7,,,,,,,,,,,,,,,,,,,2096.8159042909974,p,1.0790676260367036,2097.9605592490407,,,,,,271222,A,2024-07-11_11h01.12.333,EPIDM,2023.1.2,None,
7285.jpg,4233.jpg,5 Points,5 Points,87 Points,PS1_L2.csv,,,,,,,,,,,,,,,,,,,,,,,,,,,,,0,1,1,1,0,8,8,8,,,,,,,,,,,,,,,,,,,2102.2038009159733,q,1.1712070839712396,2103.454283582978,,,,,,271222,A,2024-07-11_11h01.12.333,EPIDM,2023.1.2,None,
1740.jpg,7480.jpg,0 Points,0 Points,87 Points,PS1_L2.csv,,,,,,,,,,,,,,,,,,,,,,,,,,,,,0,1,1,1,0,9,9,9,,,,,,,,,,,,,,,,,,,2107.707000458031,q,0.7568987921113148,2108.540197124006,,,,,,271222,A,2024-07-11_11h01.12.333,EPIDM,2023.1.2,None,
7380.jpg,1220.jpg,1 Point,1 Point,88 Points,PS1_L2.csv,,,,,,,,,,,,,,,,,,,,,,,,,,,,,0,1,1,1,0,10,10,10,,,,,,,,,,,,,,,,,,,2112.7892214159947,p,1.5158828340936452,2114.370965957991,,,,,,271222,A,2024-07-11_11h01.12.333,EPIDM,2023.1.2,None,
3061.jpg,2717.jpg,4 Points,4 Points,92 Points,PS1_L2.csv,,,,,,,,,,,,,,,,,,,,,,,,,,,,,0,1,1,1,0,11,11,11,,,,,,,,,,,,,,,,,,,2118.637836999027,q,1.3933710840065032,2120.085432166001,,,,,,271222,A,2024-07-11_11h01.12.333,EPIDM,2023.1.2,None,
5460.jpg,5800.jpg,0 Points,0 Points,92 Points,PS1_L2.csv,,,,,,,,,,,,,,,,,,,,,,,,,,,,,0,1,1,1,0,12,12,12,,,,,,,,,,,,,,,,,,,2124.347148415982,q,1.018934251042083,2125.442672041012,,,,,,271222,A,2024-07-11_11h01.12.333,EPIDM,2023.1.2,None,
2215.jpg,2512.jpg,1 Point,1 Point,93 Points,PS1_L2.csv,,,,,,,,,,,,,,,,,,,,,,,,,,,,,0,1,1,1,0,13,13,13,,,,,,,,,,,,,,,,,,,2129.688794582966,p,1.173774293041788,2130.9352843329543,1,1.2259391670813784,,,,271222,A,2024-07-11_11h01.12.333,EPIDM,2023.1.2,None,
3000.jpg,6200.jpg,5 Points,5 Points,98 Points,PS1_L2.csv,,,,,,,,,,,,,,,,,,,,,,,,,,,,,0,1,1,1,0,14,14,14,,,,,,,,,,,,,,,,,,,2136.4692801239435,q,1.1054008760256693,2137.641688665957,,,,,,271222,A,2024-07-11_11h01.12.333,EPIDM,2023.1.2,None,
1945.jpg,2800.jpg,4 Points,4 Points,102 Points,PS1_L2.csv,,,,,,,,,,,,,,,,,,,,,,,,,,,,,0,1,1,1,0,15,15,15,,,,,,,,,,,,,,,,,,,2141.8943440830335,p,0.9685387930367142,2142.9394776240224,,,,,,271222,A,2024-07-11_11h01.12.333,EPIDM,2023.1.2,None,
5660.jpg,5201.jpg,0 Points,0 Points,102 Points,PS1_L2.csv,,,,,,,,,,,,,,,,,,,,,,,,,,,,,0,1,1,1,0,16,16,16,,,,,,,,,,,,,,,,,,,2147.186746207997,q,1.1800963340792805,2148.431139540975,,,,,,271222,A,2024-07-11_11h01.12.333,EPIDM,2023.1.2,None,
3266.jpg,7360.jpg,1 Point,1 Point,103 Points,PS1_L2.csv,,,,,,,,,,,,,,,,,,,,,,,,,,,,,0,1,1,1,0,17,17,17,,,,,,,,,,,,,,,,,,,2152.6778939990327,q,0.8323892090702429,2153.5833384579746,,,,,,271222,A,2024-07-11_11h01.12.333,EPIDM,2023.1.2,None,
F149.jpg,3030.jpg,0 Points,0 Points,103 Points,PS1_L2.csv,,,,,,,,,,,,,,,,,,,,,,,,,,,,,0,1,1,1,0,18,18,18,,,,,,,,,,,,,,,,,,,2157.8310580829857,p,0.8308473750948906,2158.7660723739536,,,,,,271222,A,2024-07-11_11h01.12.333,EPIDM,2023.1.2,None,
5410.jpg,1450.jpg,5 Points,5 Points,108 Points,PS1_L2.csv,,,,,,,,,,,,,,,,,,,,,,,,,,,,,0,1,1,1,0,19,19,19,,,,,,,,,,,,,,,,,,,2162.980159083032,q,0.8653230420313776,2163.9073234989773,,,,,,271222,A,2024-07-11_11h01.12.333,EPIDM,2023.1.2,None,
9101.jpg,9571.jpg,2 Points,2 Points,110 Points,PS1_L2.csv,,,,,,,,,,,,,,,,,,,,,,,,,,,,,0,1,1,1,0,20,20,20,,,,,,,,,,,,,,,,,,,2168.164503998938,p,1.3847494591027498,2169.618750790949,,,,,,271222,A,2024-07-11_11h01.12.333,EPIDM,2023.1.2,None,
9110.jpg,3051.jpg,1 Point,1 Point,111 Points,PS1_L2.csv,,,,,,,,,,,,,,,,,,,,,,,,,,,,,0,1,1,1,0,21,21,21,,,,,,,,,,,,,,,,,,,2173.872683333,p,0.9889423340791836,2174.9433847080218,,,,,,271222,A,2024-07-11_11h01.12.333,EPIDM,2023.1.2,None,
2100.jpg,7205.jpg,5 Points,5 Points,116 Points,PS1_L2.csv,,,,,,,,,,,,,,,,,,,,,,,,,,,,,0,1,1,1,0,22,22,22,,,,,,,,,,,,,,,,,,,2179.1889281659387,q,1.2989718760363758,2180.5713964579627,,,,,,271222,A,2024-07-11_11h01.12.333,EPIDM,2023.1.2,None,
3160.jpg,6210.jpg,1 Point,1 Point,117 Points,PS1_L2.csv,,,,,,,,,,,,,,,,,,,,,,,,,,,,,0,1,1,1,0,23,23,23,,,,,,,,,,,,,,,,,,,2184.8128749580355,p,1.2246604590909556,2186.1075066239573,,,2196.5608593330253,space,1.788103667087853,271222,A,2024-07-11_11h01.12.333,EPIDM,2023.1.2,None,
7283.jpg,1720.jpg,4 Points,4 Points,121 Points,PS1_L3.csv,,,,,,,,,,,,,,,,,,,,,,,,,,,,,0,2,2,2,0,0,0,0,,,,,,,,,,,,,,,,,,,2201.6719653329346,p,1.269723334000446,2203.0204228330404,,,,,,271222,A,2024-07-11_11h01.12.333,EPIDM,2023.1.2,None,
6571.jpg,P237.jpg,2 Points,2 Points,123 Points,PS1_L3.csv,,,,,,,,,,,,,,,,,,,,,,,,,,,,,0,2,2,2,0,1,1,1,,,,,,,,,,,,,,,,,,,2207.289283916005,p,2.4922667091013864,2209.901614540955,2,1.325744625995867,,,,271222,A,2024-07-11_11h01.12.333,EPIDM,2023.1.2,None,
6260.jpg,3062.jpg,3 Points,3 Points,126 Points,PS1_L3.csv,,,,,,,,,,,,,,,,,,,,,,,,,,,,,0,2,2,2,0,2,2,2,,,,,,,,,,,,,,,,,,,2215.5377191660227,p,1.2660305839963257,2216.875043915934,,,,,,271222,A,2024-07-11_11h01.12.333,EPIDM,2023.1.2,None,
6150.jpg,2206.jpg,0 Points,0 Points,126 Points,PS1_L3.csv,,,,,,,,,,,,,,,,,,,,,,,,,,,,,0,2,2,2,0,3,3,3,,,,,,,,,,,,,,,,,,,2221.125281958026,p,1.6706426260061562,2222.8751835830044,,,,,,271222,A,2024-07-11_11h01.12.333,EPIDM,2023.1.2,None,
9300.jpg,1050.jpg,4 Points,4 Points,130 Points,PS1_L3.csv,,,,,,,,,,,,,,,,,,,,,,,,,,,,,0,2,2,2,0,4,4,4,,,,,,,,,,,,,,,,,,,2227.1220355409896,p,1.5311027090065181,2228.716254665982,,,,,,271222,A,2024-07-11_11h01.12.333,EPIDM,2023.1.2,None,
F365.jpg,3180.jpg,5 Points,5 Points,135 Points,PS1_L3.csv,,,,,,,,,,,,,,,,,,,,,,,,,,,,,0,2,2,2,0,5,5,5,,,,,,,,,,,,,,,,,,,2232.964230832993,q,1.1679451679810882,2234.235894290963,,,,,,271222,A,2024-07-11_11h01.12.333,EPIDM,2023.1.2,None,
2320.jpg,2791.jpg,4 Points,4 Points,139 Points,PS1_L3.csv,,,,,,,,,,,,,,,,,,,,,,,,,,,,,0,2,2,2,0,6,6,6,,,,,,,,,,,,,,,,,,,2238.4634988739854,q,2.7404647920047864,2241.277572458028,,,,,,271222,A,2024-07-11_11h01.12.333,EPIDM,2023.1.2,None,
8311.jpg,4609.jpg,2 Points,2 Points,141 Points,PS1_L3.csv,,,,,,,,,,,,,,,,,,,,,,,,,,,,,0,2,2,2,0,7,7,7,,,,,,,,,,,,,,,,,,,2245.5218380830484,p,1.8750148750841618,2247.468579416047,,,,,,271222,A,2024-07-11_11h01.12.333,EPIDM,2023.1.2,None,
9042.jpg,2753.jpg,0 Points,0 Points,141 Points,PS1_L3.csv,,,,,,,,,,,,,,,,,,,,,,,,,,,,,0,2,2,2,0,8,8,8,,,,,,,,,,,,,,,,,,,2251.736597332987,None,,,,,,,,271222,A,2024-07-11_11h01.12.333,EPIDM,2023.1.2,None,
5471.jpg,7352.jpg,2 Points,2 Points,143 Points,PS1_L3.csv,,,,,,,,,,,,,,,,,,,,,,,,,,,,,0,2,2,2,0,9,9,9,,,,,,,,,,,,,,,,,,,2259.227747333003,q,0.8322377919685096,2260.1318351660157,,,,,,271222,A,2024-07-11_11h01.12.333,EPIDM,2023.1.2,None,
P222.jpg,9401.jpg,2 Points,2 Points,145 Points,PS1_L3.csv,,,,,,,,,,,,,,,,,,,,,,,,,,,,,0,2,2,2,0,10,10,10,,,,,,,,,,,,,,,,,,,2264.3881862909766,q,1.0147822509752586,2265.514503748971,,,,,,271222,A,2024-07-11_11h01.12.333,EPIDM,2023.1.2,None,
1610.jpg,F203.jpg,0 Points,0 Points,145 Points,PS1_L3.csv,,,,,,,,,,,,,,,,,,,,,,,,,,,,,0,2,2,2,0,11,11,11,,,,,,,,,,,,,,,,,,,2269.7380184159847,p,0.8970423339633271,2270.7743752490496,,,,,,271222,A,2024-07-11_11h01.12.333,EPIDM,2023.1.2,None,
9405.jpg,6250.2.jpg,3 Points,3 Points,148 Points,PS1_L3.csv,,,,,,,,,,,,,,,,,,,,,,,,,,,,,0,2,2,2,0,12,12,12,,,,,,,,,,,,,,,,,,,2274.9538032909622,q,1.0812083339551464,2276.1483257910004,,,,,,271222,A,2024-07-11_11h01.12.333,EPIDM,2023.1.2,None,
1090.jpg,P217.jpg,5 Points,5 Points,153 Points,PS1_L3.csv,,,,,,,,,,,,,,,,,,,,,,,,,,,,,0,2,2,2,0,13,13,13,,,,,,,,,,,,,,,,,,,2280.3613641660195,q,1.9293562510283664,2282.404286499019,5,1.6831692920532078,,,,271222,A,2024-07-11_11h01.12.333,EPIDM,2023.1.2,None,
P233.jpg,3060.jpg,1 Point,1 Point,154 Points,PS1_L3.csv,,,,,,,,,,,,,,,,,,,,,,,,,,,,,0,2,2,2,0,14,14,14,,,,,,,,,,,,,,,,,,,2288.4171788740205,p,1.1535689590964466,2289.692155916011,,,,,,271222,A,2024-07-11_11h01.12.333,EPIDM,2023.1.2,None,
8040.jpg,7185.jpg,1 Point,1 Point,155 Points,PS1_L3.csv,,,,,,,,,,,,,,,,,,,,,,,,,,,,,0,2,2,2,0,15,15,15,,,,,,,,,,,,,,,,,,,2293.8935803329805,q,0.7413775840541348,2294.7092157489387,,,,,,271222,A,2024-07-11_11h01.12.333,EPIDM,2023.1.2,None,
6550.jpg,9582.jpg,5 Points,5 Points,160 Points,PS1_L3.csv,,,,,,,,,,,,,,,,,,,,,,,,,,,,,0,2,2,2,0,16,16,16,,,,,,,,,,,,,,,,,,,2298.95314495801,p,1.4894080000231043,2300.5216219580034,,,,,,271222,A,2024-07-11_11h01.12.333,EPIDM,2023.1.2,None,
P077.jpg,A041.jpg,1 Point,1 Point,161 Points,PS1_L3.csv,,,,,,,,,,,,,,,,,,,,,,,,,,,,,0,2,2,2,0,17,17,17,,,,,,,,,,,,,,,,,,,2304.7645747909555,q,2.0223918759729713,2306.928478665999,,,,,,271222,A,2024-07-11_11h01.12.333,EPIDM,2023.1.2,None,
4770.jpg,4275.jpg,3 Points,3 Points,164 Points,PS1_L3.csv,,,,,,,,,,,,,,,,,,,,,,,,,,,,,0,2,2,2,0,18,18,18,,,,,,,,,,,,,,,,,,,2311.1065262079937,q,2.5046487509971485,2313.723909707973,,,,,,271222,A,2024-07-11_11h01.12.333,EPIDM,2023.1.2,None,
9594.jpg,1080.jpg,4 Points,4 Points,168 Points,PS1_L3.csv,,,,,,,,,,,,,,,,,,,,,,,,,,,,,0,2,2,2,0,19,19,19,,,,,,,,,,,,,,,,,,,2317.926730582956,p,0.8990628340980038,2318.9098279579775,,,,,,271222,A,2024-07-11_11h01.12.333,EPIDM,2023.1.2,None,
2606.jpg,2480.jpg,1 Point,1 Point,169 Points,PS1_L3.csv,,,,,,,,,,,,,,,,,,,,,,,,,,,,,0,2,2,2,0,20,20,20,,,,,,,,,,,,,,,,,,,2323.1512718739687,q,1.283040834008716,2324.496997790993,,,,,,271222,A,2024-07-11_11h01.12.333,EPIDM,2023.1.2,None,
1052.jpg,1201.jpg,3 Points,3 Points,172 Points,PS1_L3.csv,,,,,,,,,,,,,,,,,,,,,,,,,,,,,0,2,2,2,0,21,21,21,,,,,,,,,,,,,,,,,,,2328.753151249024,q,0.5618442919803783,2329.38728133298,,,,,,271222,A,2024-07-11_11h01.12.333,EPIDM,2023.1.2,None,
F369.jpg,3100.jpg,2 Points,2 Points,174 Points,PS1_L3.csv,,,,,,,,,,,,,,,,,,,,,,,,,,,,,0,2,2,2,0,22,22,22,,,,,,,,,,,,,,,,,,,2333.6453662909335,p,1.0773179589305073,2334.8160356240114,,,,,,271222,A,2024-07-11_11h01.12.333,EPIDM,2023.1.2,None,
2620.jpg,2594.jpg,0 Points,0 Points,174 Points,PS1_L3.csv,,,,,,,,,,,,,,,,,,,,,,,,,,,,,0,2,2,2,0,23,23,23,,,,,,,,,,,,,,,,,,,2339.0521472080145,q,1.1902040420100093,2340.311736832955,,,2350.7917079579784,space,1.7133564590476453,271222,A,2024-07-11_11h01.12.333,EPIDM,2023.1.2,None,
P019.jpg,F158.jpg,3 Points,3 Points,177 Points,PS1_L4.csv,,,,,,,,,,,,,,,,,,,,,,,,,,,,,0,3,3,3,0,0,0,0,,,,,,,,,,,,,,,,,,,2355.8282044579973,q,2.5662520839832723,2358.548017374007,,,,,,271222,A,2024-07-11_11h01.12.333,EPIDM,2023.1.2,None,
7620.jpg,5395.jpg,1 Point,1 Point,178 Points,PS1_L4.csv,,,,,,,,,,,,,,,,,,,,,,,,,,,,,0,3,3,3,0,1,1,1,,,,,,,,,,,,,,,,,,,2362.717255541007,q,0.965619500959292,2363.7879792490276,1,1.4544164590770379,,,,271222,A,2024-07-11_11h01.12.333,EPIDM,2023.1.2,None,
5970.jpg,3300.jpg,0 Points,0 Points,178 Points,PS1_L4.csv,,,,,,,,,,,,,,,,,,,,,,,,,,,,,0,3,3,3,0,2,2,2,,,,,,,,,,,,,,,,,,,2369.521391707938,q,1.2800249180290848,2370.8649189160205,,,,,,271222,A,2024-07-11_11h01.12.333,EPIDM,2023.1.2,None,
5120.jpg,5520.jpg,2 Points,2 Points,180 Points,PS1_L4.csv,,,,,,,,,,,,,,,,,,,,,,,,,,,,,0,3,3,3,0,3,3,3,,,,,,,,,,,,,,,,,,,2375.114843957941,p,1.2373649589717388,2376.4356885829475,,,,,,271222,A,2024-07-11_11h01.12.333,EPIDM,2023.1.2,None,
9452.jpg,7184.jpg,4 Points,4 Points,184 Points,PS1_L4.csv,,,,,,,,,,,,,,,,,,,,,,,,,,,,,0,3,3,3,0,4,4,4,,,,,,,,,,,,,,,,,,,2380.684430498979,q,1.884876333991997,2382.637145832996,,,,,,271222,A,2024-07-11_11h01.12.333,EPIDM,2023.1.2,None,
6570.1.jpg,9432.jpg,5 Points,5 Points,189 Points,PS1_L4.csv,,,,,,,,,,,,,,,,,,,,,,,,,,,,,0,3,3,3,0,5,5,5,,,,,,,,,,,,,,,,,,,2386.8912660409696,q,1.469812042079866,2388.4324086239794,,,,,,271222,A,2024-07-11_11h01.12.333,EPIDM,2023.1.2,None,
2389.jpg,7320.jpg,0 Points,0 Points,189 Points,PS1_L4.csv,,,,,,,,,,,,,,,,,,,,,,,,,,,,,0,3,3,3,0,6,6,6,,,,,,,,,,,,,,,,,,,2392.6745106659364,q,1.8549944170517847,2394.5972322489833,,,,,,271222,A,2024-07-11_11h01.12.333,EPIDM,2023.1.2,None,
9330.jpg,3015.jpg,5 Points,5 Points,194 Points,PS1_L4.csv,,,,,,,,,,,,,,,,,,,,,,,,,,,,,0,3,3,3,0,7,7,7,,,,,,,,,,,,,,,,,,,2398.8375479159877,p,1.9628453759942204,2400.874570832937,,,,,,271222,A,2024-07-11_11h01.12.333,EPIDM,2023.1.2,None,
9560.jpg,3071.jpg,1 Point,1 Point,195 Points,PS1_L4.csv,,,,,,,,,,,,,,,,,,,,,,,,,,,,,0,3,3,3,0,8,8,8,,,,,,,,,,,,,,,,,,,2405.1180728329346,p,1.3871734590502456,2406.5710066659376,,,,,,271222,A,2024-07-11_11h01.12.333,EPIDM,2023.1.2,None,
5994.jpg,5390.jpg,0 Points,0 Points,195 Points,PS1_L4.csv,,,,,,,,,,,,,,,,,,,,,,,,,,,,,0,3,3,3,0,9,9,9,,,,,,,,,,,,,,,,,,,2410.829707207973,p,1.722787959035486,2412.6090546660125,,,,,,271222,A,2024-07-11_11h01.12.333,EPIDM,2023.1.2,None,
2692.jpg,8231.jpg,4 Points,4 Points,199 Points,PS1_L4.csv,,,,,,,,,,,,,,,,,,,,,,,,,,,,,0,3,3,3,0,10,10,10,,,,,,,,,,,,,,,,,,,2416.861031624023,q,2.4592693340964615,2419.3807635409757,,,,,,271222,A,2024-07-11_11h01.12.333,EPIDM,2023.1.2,None,
F174.jpg,9404.jpg,5 Points,5 Points,204 Points,PS1_L4.csv,,,,,,,,,,,,,,,,,,,,,,,,,,,,,0,3,3,3,0,11,11,11,,,,,,,,,,,,,,,,,,,2423.6474272910273,p,1.2574589170981199,2425.0227152489824,,,,,,271222,A,2024-07-11_11h01.12.333,EPIDM,2023.1.2,None,
8010.jpg,2630.jpg,0 Points,0 Points,204 Points,PS1_L4.csv,,,,,,,,,,,,,,,,,,,,,,,,,,,,,0,3,3,3,0,12,12,12,,,,,,,,,,,,,,,,,,,2429.237986458,q,2.3461111260112375,2431.650343374,,,,,,271222,A,2024-07-11_11h01.12.333,EPIDM,2023.1.2,None,
7175.jpg,7490.jpg,2 Points,2 Points,206 Points,PS1_L4.csv,,,,,,,,,,,,,,,,,,,,,,,,,,,,,0,3,3,3,0,13,13,13,,,,,,,,,,,,,,,,,,,2435.893209083006,q,1.5706818340113387,2437.5468806659337,2,1.2548315420281142,,,,271222,A,2024-07-11_11h01.12.333,EPIDM,2023.1.2,None,
6561.jpg,1525.jpg,2 Points,2 Points,208 Points,PS1_L4.csv,,,,,,,,,,,,,,,,,,,,,,,,,,,,,0,3,3,3,0,14,14,14,,,,,,,,,,,,,,,,,,,2443.1084298739443,p,0.8360646670917049,2444.0055588739924,,,,,,271222,A,2024-07-11_11h01.12.333,EPIDM,2023.1.2,None,
9070.jpg,9420.jpg,2 Points,2 Points,210 Points,PS1_L4.csv,,,,,,,,,,,,,,,,,,,,,,,,,,,,,0,3,3,3,0,15,15,15,,,,,,,,,,,,,,,,,,,2448.25383295794,p,0.7455632929923013,2449.060479457956,,,,,,271222,A,2024-07-11_11h01.12.333,EPIDM,2023.1.2,None,
2516.jpg,8500.jpg,4 Points,4 Points,214 Points,PS1_L4.csv,,,,,,,,,,,,,,,,,,,,,,,,,,,,,0,3,3,3,0,16,16,16,,,,,,,,,,,,,,,,,,,2453.312642707955,q,1.223484041984193,2454.610758707975,,,,,,271222,A,2024-07-11_11h01.12.333,EPIDM,2023.1.2,None,
9140.jpg,2810.jpg,3 Points,3 Points,217 Points,PS1_L4.csv,,,,,,,,,,,,,,,,,,,,,,,,,,,,,0,3,3,3,0,17,17,17,,,,,,,,,,,,,,,,,,,2458.865919957985,p,1.8212482929229736,2460.7562417909503,,,,,,271222,A,2024-07-11_11h01.12.333,EPIDM,2023.1.2,None,
7220.jpg,8090.jpg,2 Points,2 Points,219 Points,PS1_L4.csv,,,,,,,,,,,,,,,,,,,,,,,,,,,,,0,3,3,3,0,18,18,18,,,,,,,,,,,,,,,,,,,2465.0159131659893,p,1.7355796670308337,2466.82475279097,,,,,,271222,A,2024-07-11_11h01.12.333,EPIDM,2023.1.2,None,
2661.jpg,2870.jpg,5 Points,5 Points,224 Points,PS1_L4.csv,,,,,,,,,,,,,,,,,,,,,,,,,,,,,0,3,3,3,0,19,19,19,,,,,,,,,,,,,,,,,,,2471.0734044159763,q,1.3179622089955956,2472.4527488329913,,,,,,271222,A,2024-07-11_11h01.12.333,EPIDM,2023.1.2,None,
6010.jpg,7361.jpg,2 Points,2 Points,226 Points,PS1_L4.csv,,,,,,,,,,,,,,,,,,,,,,,,,,,,,0,3,3,3,0,20,20,20,,,,,,,,,,,,,,,,,,,2476.6991940409644,p,1.8910900430055335,2478.6616321660113,,,,,,271222,A,2024-07-11_11h01.12.333,EPIDM,2023.1.2,None,
7289.jpg,4534.jpg,0 Points,0 Points,226 Points,PS1_L4.csv,,,,,,,,,,,,,,,,,,,,,,,,,,,,,0,3,3,3,0,21,21,21,,,,,,,,,,,,,,,,,,,2482.9104372080183,q,1.1930097930599004,2484.184593832935,,,,,,271222,A,2024-07-11_11h01.12.333,EPIDM,2023.1.2,None,
1310.jpg,3181.jpg,4 Points,4 Points,230 Points,PS1_L4.csv,,,,,,,,,,,,,,,,,,,,,,,,,,,,,0,3,3,3,0,22,22,22,,,,,,,,,,,,,,,,,,,2488.427019582945,q,1.0359760840656236,2489.5256020829547,,,,,,271222,A,2024-07-11_11h01.12.333,EPIDM,2023.1.2,None,
2383.jpg,1616.jpg,2 Points,2 Points,232 Points,PS1_L4.csv,,,,,,,,,,,,,,,,,,,,,,,,,,,,,0,3,3,3,0,23,23,23,,,,,,,,,,,,,,,,,,,2493.7725302489707,p,1.6262992509873584,2495.4758731659967,,,2505.957501958008,space,1.1770960839930922,271222,A,2024-07-11_11h01.12.333,EPIDM,2023.1.2,None,
4510.jpg,2230.jpg,5 Points,5 Points,237 Points,PS1_L5.csv,,,,,,,,,,,,,,,,,,,,,,,,,,,,,0,4,4,4,0,0,0,0,,,,,,,,,,,,,,,,,,,2510.449007957941,p,1.6533453339943662,2512.170126165962,,,,,,271222,A,2024-07-11_11h01.12.333,EPIDM,2023.1.2,None,
A025.jpg,1051.jpg,0 Points,0 Points,237 Points,PS1_L5.csv,,,,,,,,,,,,,,,,,,,,,,,,,,,,,0,4,4,4,0,1,1,1,,,,,,,,,,,,,,,,,,,2516.432428415981,p,1.1495317090302706,2517.7081429989776,0,1.6077185840113088,,,,271222,A,2024-07-11_11h01.12.333,EPIDM,2023.1.2,None,
7002.jpg,4660.jpg,4 Points,4 Points,241 Points,PS1_L5.csv,,,,,,,,,,,,,,,,,,,,,,,,,,,,,0,4,4,4,0,2,2,2,,,,,,,,,,,,,,,,,,,2523.6251490409486,q,1.9811330010415986,2525.684148582979,,,,,,271222,A,2024-07-11_11h01.12.333,EPIDM,2023.1.2,None,
2900.jpg,1101.jpg,3 Points,3 Points,244 Points,PS1_L5.csv,,,,,,,,,,,,,,,,,,,,,,,,,,,,,0,4,4,4,0,3,3,3,,,,,,,,,,,,,,,,,,,2529.914191290969,p,1.515776208951138,2531.514004623983,,,,,,271222,A,2024-07-11_11h01.12.333,EPIDM,2023.1.2,None,
2485.jpg,7350.jpg,0 Points,0 Points,244 Points,PS1_L5.csv,,,,,,,,,,,,,,,,,,,,,,,,,,,,,0,4,4,4,0,4,4,4,,,,,,,,,,,,,,,,,,,2535.748034958029,q,1.2973494590260088,2537.115695458022,,,,,,271222,A,2024-07-11_11h01.12.333,EPIDM,2023.1.2,None,
6242.jpg,F034.jpg,4 Points,4 Points,248 Points,PS1_L5.csv,,,,,,,,,,,,,,,,,,,,,,,,,,,,,0,4,4,4,0,5,5,5,,,,,,,,,,,,,,,,,,,2541.365125790937,p,1.7040696260519326,2543.1782199579757,,,,,,271222,A,2024-07-11_11h01.12.333,EPIDM,2023.1.2,None,
3170.jpg,6560.jpg,2 Points,2 Points,250 Points,PS1_L5.csv,,,,,,,,,,,,,,,,,,,,,,,,,,,,,0,4,4,4,0,6,6,6,,,,,,,,,,,,,,,,,,,2547.3907477910398,p,1.2628164590569213,2548.7180707079824,,,,,,271222,A,2024-07-11_11h01.12.333,EPIDM,2023.1.2,None,
8033.jpg,7270.jpg,3 Points,3 Points,253 Points,PS1_L5.csv,,,,,,,,,,,,,,,,,,,,,,,,,,,,,0,4,4,4,0,7,7,7,,,,,,,,,,,,,,,,,,,2552.981426998973,p,3.040172876091674,2556.093619207968,,,,,,271222,A,2024-07-11_11h01.12.333,EPIDM,2023.1.2,None,
2597.jpg,5870.jpg,5 Points,5 Points,258 Points,PS1_L5.csv,,,,,,,,,,,,,,,,,,,,,,,,,,,,,0,4,4,4,0,8,8,8,,,,,,,,,,,,,,,,,,,2560.33950420795,p,2.3784342920407653,2562.778011040995,,,,,,271222,A,2024-07-11_11h01.12.333,EPIDM,2023.1.2,None,
6312.jpg,3230.jpg,2 Points,2 Points,260 Points,PS1_L5.csv,,,,,,,,,,,,,,,,,,,,,,,,,,,,,0,4,4,4,0,9,9,9,,,,,,,,,,,,,,,,,,,2567.0351121239364,p,1.3543016670737416,2568.4602052080445,,,,,,271222,A,2024-07-11_11h01.12.333,EPIDM,2023.1.2,None,
3130.jpg,3500.jpg,4 Points,4 Points,264 Points,PS1_L5.csv,,,,,,,,,,,,,,,,,,,,,,,,,,,,,0,4,4,4,0,10,10,10,,,,,,,,,,,,,,,,,,,2572.709511165973,q,1.143590334104374,2573.9139340410475,,,,,,271222,A,2024-07-11_11h01.12.333,EPIDM,2023.1.2,None,
2749.jpg,7282.jpg,3 Points,3 Points,267 Points,PS1_L5.csv,,,,,,,,,,,,,,,,,,,,,,,,,,,,,0,4,4,4,0,11,11,11,,,,,,,,,,,,,,,,,,,2578.1620037079556,q,1.4034104589372873,2579.630944623961,,,,,,271222,A,2024-07-11_11h01.12.333,EPIDM,2023.1.2,None,
5300.jpg,2372.jpg,1 Point,1 Point,268 Points,PS1_L5.csv,,,,,,,,,,,,,,,,,,,,,,,,,,,,,0,4,4,4,0,12,12,12,,,,,,,,,,,,,,,,,,,2583.875203832984,q,0.8820187509991229,2584.8285572079476,,,,,,271222,A,2024-07-11_11h01.12.333,EPIDM,2023.1.2,None,
6510.jpg,A074.jpg,2 Points,2 Points,270 Points,PS1_L5.csv,,,,,,,,,,,,,,,,,,,,,,,,,,,,,0,4,4,4,0,13,13,13,,,,,,,,,,,,,,,,,,,2589.0798209989443,q,2.10895308398176,2591.303263374022,2,1.4029625840485096,,,,271222,A,2024-07-11_11h01.12.333,EPIDM,2023.1.2,None,
2260.jpg,2830.jpg,5 Points,5 Points,275 Points,PS1_L5.csv,,,,,,,,,,,,,,,,,,,,,,,,,,,,,0,4,4,4,0,14,14,14,,,,,,,,,,,,,,,,,,,2597.0298386659706,q,1.662610417115502,2598.801143083023,,,,,,271222,A,2024-07-11_11h01.12.333,EPIDM,2023.1.2,None,
2710.jpg,9252.jpg,1 Point,1 Point,276 Points,PS1_L5.csv,,,,,,,,,,,,,,,,,,,,,,,,,,,,,0,4,4,4,0,15,15,15,,,,,,,,,,,,,,,,,,,2603.0095800829586,p,1.810490042087622,2604.8852834580466,,,,,,271222,A,2024-07-11_11h01.12.333,EPIDM,2023.1.2,None,
3064.jpg,3168.jpg,4 Points,4 Points,280 Points,PS1_L5.csv,,,,,,,,,,,,,,,,,,,,,,,,,,,,,0,4,4,4,0,16,16,16,,,,,,,,,,,,,,,,,,,2609.1295817489736,q,1.3707698760554194,2610.5580475829775,,,,,,271222,A,2024-07-11_11h01.12.333,EPIDM,2023.1.2,None,
1640.jpg,5531.jpg,3 Points,3 Points,283 Points,PS1_L5.csv,,,,,,,,,,,,,,,,,,,,,,,,,,,,,0,4,4,4,0,17,17,17,,,,,,,,,,,,,,,,,,,2614.819930166006,q,1.0414943340001628,2615.9338889990468,,,,,,271222,A,2024-07-11_11h01.12.333,EPIDM,2023.1.2,None,
3530.jpg,6213.jpg,1 Point,1 Point,284 Points,PS1_L5.csv,,,,,,,,,,,,,,,,,,,,,,,,,,,,,0,4,4,4,0,18,18,18,,,,,,,,,,,,,,,,,,,2620.1828787910054,q,1.0207346670795232,2621.2867255409947,,,,,,271222,A,2024-07-11_11h01.12.333,EPIDM,2023.1.2,None,
9090.jpg,7580.jpg,3 Points,3 Points,287 Points,PS1_L5.csv,,,,,,,,,,,,,,,,,,,,,,,,,,,,,0,4,4,4,0,19,19,19,,,,,,,,,,,,,,,,,,,2625.528206582996,p,1.5081122090341523,2627.1174896239536,,,,,,271222,A,2024-07-11_11h01.12.333,EPIDM,2023.1.2,None,
8230.jpg,2682.jpg,5 Points,5 Points,292 Points,PS1_L5.csv,,,,,,,,,,,,,,,,,,,,,,,,,,,,,0,4,4,4,0,20,20,20,,,,,,,,,,,,,,,,,,,2631.3796812909422,q,1.8799995839362964,2633.336202666047,,,,,,271222,A,2024-07-11_11h01.12.333,EPIDM,2023.1.2,None,
9592.jpg,1300.jpg,2 Points,2 Points,294 Points,PS1_L5.csv,,,,,,,,,,,,,,,,,,,,,,,,,,,,,0,4,4,4,0,21,21,21,,,,,,,,,,,,,,,,,,,2637.5799587910296,p,1.4974828759441152,2639.1431154579623,,,,,,271222,A,2024-07-11_11h01.12.333,EPIDM,2023.1.2,None,
2490.jpg,2590.jpg,4 Points,4 Points,298 Points,PS1_L5.csv,,,,,,,,,,,,,,,,,,,,,,,,,,,,,0,4,4,4,0,22,22,22,,,,,,,,,,,,,,,,,,,2643.4045112909516,p,2.558099834015593,2646.0349168740213,,,,,,271222,A,2024-07-11_11h01.12.333,EPIDM,2023.1.2,None,
2190.jpg,7503.jpg,2 Points,2 Points,300 Points,PS1_L5.csv,,,,,,,,,,,,,,,,,,,,,,,,,,,,,0,4,4,4,0,23,23,23,,,,,,,,,,,,,,,,,,,2650.2853719580453,q,1.6691802509594709,2652.0358654989395,,,2662.5080907909432,space,1.1906404179753736,271222,A,2024-07-11_11h01.12.333,EPIDM,2023.1.2,None,
1930.jpg,9008.jpg,1 Point,1 Point,301 Points,PS1_L6.csv,,,,,,,,,,,,,,,,,,,,,,,,,,,,,0,5,5,5,0,0,0,0,,,,,,,,,,,,,,,,,,,2667.0199794160435,q,1.4307398749515414,2668.521497540991,,,,,,271222,A,2024-07-11_11h01.12.333,EPIDM,2023.1.2,None,
4613.jpg,2720.jpg,4 Points,4 Points,305 Points,PS1_L6.csv,,,,,,,,,,,,,,,,,,,,,,,,,,,,,0,5,5,5,0,1,1,1,,,,,,,,,,,,,,,,,,,2672.7683266659733,q,3.274014209047891,2676.1163347490365,4,1.483132499968633,,,,271222,A,2024-07-11_11h01.12.333,EPIDM,2023.1.2,None,
3280.jpg,9270.jpg,0 Points,0 Points,305 Points,PS1_L6.csv,,,,,,,,,,,,,,,,,,,,,,,,,,,,,0,5,5,5,0,2,2,2,,,,,,,,,,,,,,,,,,,2681.9035834580427,q,1.6737607090035453,2683.638859458035,,,,,,271222,A,2024-07-11_11h01.12.333,EPIDM,2023.1.2,None,
6800.jpg,9190.jpg,0 Points,0 Points,305 Points,PS1_L6.csv,,,,,,,,,,,,,,,,,,,,,,,,,,,,,0,5,5,5,0,3,3,3,,,,,,,,,,,,,,,,,,,2687.901333582937,p,1.0852277090307325,2689.0556442909874,,,,,,271222,A,2024-07-11_11h01.12.333,EPIDM,2023.1.2,None,
5600.jpg,9080.jpg,5 Points,5 Points,310 Points,PS1_L6.csv,,,,,,,,,,,,,,,,,,,,,,,,,,,,,0,5,5,5,0,4,4,4,,,,,,,,,,,,,,,,,,,2693.318079208024,q,0.9642616669880226,2694.349922665977,,,,,,271222,A,2024-07-11_11h01.12.333,EPIDM,2023.1.2,None,
P211.jpg,9041.jpg,4 Points,4 Points,314 Points,PS1_L6.csv,,,,,,,,,,,,,,,,,,,,,,,,,,,,,0,5,5,5,0,5,5,5,,,,,,,,,,,,,,,,,,,2698.5975342079764,q,1.3475540420040488,2700.0648745410144,,,,,,271222,A,2024-07-11_11h01.12.333,EPIDM,2023.1.2,None,
5200.jpg,5020.jpg,0 Points,0 Points,314 Points,PS1_L6.csv,,,,,,,,,,,,,,,,,,,,,,,,,,,,,0,5,5,5,0,6,6,6,,,,,,,,,,,,,,,,,,,2704.2652700829785,q,1.5769795840606093,2705.9077278330224,,,,,,271222,A,2024-07-11_11h01.12.333,EPIDM,2023.1.2,None,
1850.jpg,5623.jpg,5 Points,5 Points,319 Points,PS1_L6.csv,,,,,,,,,,,,,,,,,,,,,,,,,,,,,0,5,5,5,0,7,7,7,,,,,,,,,,,,,,,,,,,2710.156805373961,q,1.387741501093842,2711.6192078329623,,,,,,271222,A,2024-07-11_11h01.12.333,EPIDM,2023.1.2,None,
9440.jpg,6350.jpg,4 Points,4 Points,323 Points,PS1_L6.csv,,,,,,,,,,,,,,,,,,,,,,,,,,,,,0,5,5,5,0,8,8,8,,,,,,,,,,,,,,,,,,,2715.8710207489785,q,1.2503260420635343,2717.187257873942,,,,,,271222,A,2024-07-11_11h01.12.333,EPIDM,2023.1.2,None,
5990.jpg,5780.jpg,3 Points,3 Points,326 Points,PS1_L6.csv,,,,,,,,,,,,,,,,,,,,,,,,,,,,,0,5,5,5,0,9,9,9,,,,,,,,,,,,,,,,,,,2721.4340237079887,q,1.1437233340693638,2722.6382981659845,,,,,,271222,A,2024-07-11_11h01.12.333,EPIDM,2023.1.2,None,
6244.jpg,9265.jpg,0 Points,0 Points,326 Points,PS1_L6.csv,,,,,,,,,,,,,,,,,,,,,,,,,,,,,0,5,5,5,0,10,10,10,,,,,,,,,,,,,,,,,,,2726.888912708033,p,1.1286029181210324,2728.078853416024,,,,,,271222,A,2024-07-11_11h01.12.333,EPIDM,2023.1.2,None,
5000.jpg,8180.jpg,4 Points,4 Points,330 Points,PS1_L6.csv,,,,,,,,,,,,,,,,,,,,,,,,,,,,,0,5,5,5,0,11,11,11,,,,,,,,,,,,,,,,,,,2732.326739415992,p,1.3060318760108203,2733.7117248330032,,,,,,271222,A,2024-07-11_11h01.12.333,EPIDM,2023.1.2,None,
5982.jpg,5260.jpg,5 Points,5 Points,335 Points,PS1_L6.csv,,,,,,,,,,,,,,,,,,,,,,,,,,,,,0,5,5,5,0,12,12,12,,,,,,,,,,,,,,,,,,,2737.9517147489823,q,0.6651710839942098,2738.6967843329767,,,,,,271222,A,2024-07-11_11h01.12.333,EPIDM,2023.1.2,None,
1301.jpg,1070.jpg,2 Points,2 Points,337 Points,PS1_L6.csv,,,,,,,,,,,,,,,,,,,,,,,,,,,,,0,5,5,5,0,13,13,13,,,,,,,,,,,,,,,,,,,2742.943456916022,p,0.7207375010475516,2743.7422862909734,2,1.1469483760884032,,,,271222,A,2024-07-11_11h01.12.333,EPIDM,2023.1.2,None,
7920.jpg,9102.jpg,3 Points,3 Points,340 Points,PS1_L6.csv,,,,,,,,,,,,,,,,,,,,,,,,,,,,,0,5,5,5,0,14,14,14,,,,,,,,,,,,,,,,,,,2749.21353149903,q,1.3790255419444293,2750.6735797489528,,,,,,271222,A,2024-07-11_11h01.12.333,EPIDM,2023.1.2,None,
5455.jpg,5220.jpg,0 Points,0 Points,340 Points,PS1_L6.csv,,,,,,,,,,,,,,,,,,,,,,,,,,,,,0,5,5,5,0,15,15,15,,,,,,,,,,,,,,,,,,,2754.9139914159896,q,1.501809417968616,2756.4856457909336,,,,,,271222,A,2024-07-11_11h01.12.333,EPIDM,2023.1.2,None,
3350.jpg,3210.jpg,1 Point,1 Point,341 Points,PS1_L6.csv,,,,,,,,,,,,,,,,,,,,,,,,,,,,,0,5,5,5,0,16,16,16,,,,,,,,,,,,,,,,,,,2760.730037332978,q,0.8221162089612335,2761.6129419159843,,,,,,271222,A,2024-07-11_11h01.12.333,EPIDM,2023.1.2,None,
2560.jpg,5270.jpg,4 Points,4 Points,345 Points,PS1_L6.csv,,,,,,,,,,,,,,,,,,,,,,,,,,,,,0,5,5,5,0,17,17,17,,,,,,,,,,,,,,,,,,,2765.875911540934,p,1.3883672920055687,2767.3359081239905,,,,,,271222,A,2024-07-11_11h01.12.333,EPIDM,2023.1.2,None,
9584.jpg,3400.jpg,2 Points,2 Points,347 Points,PS1_L6.csv,,,,,,,,,,,,,,,,,,,,,,,,,,,,,0,5,5,5,0,18,18,18,,,,,,,,,,,,,,,,,,,2771.5886810829397,p,1.1479532510275021,2772.8129064990208,,,,,,271222,A,2024-07-11_11h01.12.333,EPIDM,2023.1.2,None,
5760.jpg,1602.jpg,1 Point,1 Point,348 Points,PS1_L6.csv,,,,,,,,,,,,,,,,,,,,,,,,,,,,,0,5,5,5,0,19,19,19,,,,,,,,,,,,,,,,,,,2777.0684408330126,p,1.4442203760845587,2778.579960874049,,,,,,271222,A,2024-07-11_11h01.12.333,EPIDM,2023.1.2,None,
7230.jpg,7570.jpg,5 Points,5 Points,353 Points,PS1_L6.csv,,,,,,,,,,,,,,,,,,,,,,,,,,,,,0,5,5,5,0,20,20,20,,,,,,,,,,,,,,,,,,,2782.8284203739604,p,2.394632250070572,2785.3155104159378,,,,,,271222,A,2024-07-11_11h01.12.333,EPIDM,2023.1.2,None,
1022.jpg,6930.jpg,1 Point,1 Point,354 Points,PS1_L6.csv,,,,,,,,,,,,,,,,,,,,,,,,,,,,,0,5,5,5,0,21,21,21,,,,,,,,,,,,,,,,,,,2789.542557541048,q,1.5047364591155201,2791.119540998945,,,,,,271222,A,2024-07-11_11h01.12.333,EPIDM,2023.1.2,None,
8340.jpg,7546.jpg,2 Points,2 Points,356 Points,PS1_L6.csv,,,,,,,,,,,,,,,,,,,,,,,,,,,,,0,5,5,5,0,22,22,22,,,,,,,,,,,,,,,,,,,2795.3663891659817,q,1.0810556679498404,2796.512603332987,,,,,,271222,A,2024-07-11_11h01.12.333,EPIDM,2023.1.2,None,
6243.jpg,2752.jpg,2 Points,2 Points,358 Points,PS1_L6.csv,,,,,,,,,,,,,,,,,,,,,,,,,,,,,0,5,5,5,0,23,23,23,,,,,,,,,,,,,,,,,,,2800.765231749043,q,1.1088537919567898,2801.9346011659363,,,2812.406201582984,space,5.408490251051262,271222,A,2024-07-11_11h01.12.333,EPIDM,2023.1.2,None,
7280.jpg,7160.jpg,0 Points,0 Points,358 Points,PS1_L7.csv,,,,,,,,,,,,,,,,,,,,,,,,,,,,,0,6,6,6,0,0,0,0,,,,,,,,,,,,,,,,,,,2821.1340640409617,q,1.416514459066093,2822.633138083038,,,,,,271222,A,2024-07-11_11h01.12.333,EPIDM,2023.1.2,None,
2580.jpg,8300.jpg,3 Points,3 Points,361 Points,PS1_L7.csv,,,,,,,,,,,,,,,,,,,,,,,,,,,,,0,6,6,6,0,1,1,1,,,,,,,,,,,,,,,,,,,2826.864875457948,p,1.101354168029502,2828.0433560409583,3,1.1469629589701071,,,,271222,A,2024-07-11_11h01.12.333,EPIDM,2023.1.2,None,
5972.jpg,6838.jpg,5 Points,5 Points,366 Points,PS1_L7.csv,,,,,,,,,,,,,,,,,,,,,,,,,,,,,0,6,6,6,0,2,2,2,,,,,,,,,,,,,,,,,,,2833.5034823740134,q,1.3109685429371893,2834.8931761659915,,,,,,271222,A,2024-07-11_11h01.12.333,EPIDM,2023.1.2,None,
5621.jpg,5534.jpg,3 Points,3 Points,369 Points,PS1_L7.csv,,,,,,,,,,,,,,,,,,,,,,,,,,,,,0,6,6,6,0,3,3,3,,,,,,,,,,,,,,,,,,,2839.144223665935,q,1.4217159999534488,2840.644629249,,,,,,271222,A,2024-07-11_11h01.12.333,EPIDM,2023.1.2,None,
8480.jpg,6410.jpg,1 Point,1 Point,370 Points,PS1_L7.csv,,,,,,,,,,,,,,,,,,,,,,,,,,,,,0,6,6,6,0,4,4,4,,,,,,,,,,,,,,,,,,,2844.8911298329476,q,1.059293458936736,2846.030554665951,,,,,,271222,A,2024-07-11_11h01.12.333,EPIDM,2023.1.2,None,
2702.jpg,1590.jpg,5 Points,5 Points,375 Points,PS1_L7.csv,,,,,,,,,,,,,,,,,,,,,,,,,,,,,0,6,6,6,0,5,5,5,,,,,,,,,,,,,,,,,,,2850.2739582080394,p,0.9802877920446917,2851.3307320410386,,,,,,271222,A,2024-07-11_11h01.12.333,EPIDM,2023.1.2,None,
1275.jpg,3150.jpg,1 Point,1 Point,376 Points,PS1_L7.csv,,,,,,,,,,,,,,,,,,,,,,,,,,,,,0,6,6,6,0,6,6,6,,,,,,,,,,,,,,,,,,,2855.571292373934,p,1.1710453759878874,2856.8084955830127,,,,,,271222,A,2024-07-11_11h01.12.333,EPIDM,2023.1.2,None,
1910.jpg,2575.jpg,2 Points,2 Points,378 Points,PS1_L7.csv,,,,,,,,,,,,,,,,,,,,,,,,,,,,,0,6,6,6,0,7,7,7,,,,,,,,,,,,,,,,,,,2861.057809666032,q,1.8999641250120476,2863.014273207984,,,,,,271222,A,2024-07-11_11h01.12.333,EPIDM,2023.1.2,None,
2518.jpg,2381.jpg,1 Point,1 Point,382 Points,PS1_L7.csv,,,,,,,,,,,,,,,,,,,,,,,,,,,,,0,6,6,6,0,8,8,8,,,,,,,,,,,,,,,,,,,2867.2906232910464,q,1.4187725000083447,2868.7612840830116,,,,,,271222,A,2024-07-11_11h01.12.333,EPIDM,2023.1.2,None,
6250.1.jpg,3301.jpg,0 Points,0 Points,382 Points,PS1_L7.csv,,,,,,,,,,,,,,,,,,,,,,,,,,,,,0,6,6,6,0,9,9,9,,,,,,,,,,,,,,,,,,,2873.016684583039,q,0.9413230010541156,2874.018436333048,,,,,,271222,A,2024-07-11_11h01.12.333,EPIDM,2023.1.2,None,
7234.jpg,5533.jpg,3 Points,3 Points,385 Points,PS1_L7.csv,,,,,,,,,,,,,,,,,,,,,,,,,,,,,0,6,6,6,0,10,10,10,,,,,,,,,,,,,,,,,,,2878.2772454579826,p,1.0638817090075463,2879.417380998959,,,,,,271222,A,2024-07-11_11h01.12.333,EPIDM,2023.1.2,None,
9920.jpg,3068.jpg,5 Points,5 Points,390 Points,PS1_L7.csv,,,,,,,,,,,,,,,,,,,,,,,,,,,,,0,6,6,6,0,11,11,11,,,,,,,,,,,,,,,,,,,2883.6671430829447,p,1.2342280839802697,2884.959884291049,,,,,,271222,A,2024-07-11_11h01.12.333,EPIDM,2023.1.2,None,
3022.jpg,2352.2.jpg,0 Points,0 Points,390 Points,PS1_L7.csv,,,,,,,,,,,,,,,,,,,,,,,,,,,,,0,6,6,6,0,12,12,12,,,,,,,,,,,,,,,,,,,2889.2132410829654,p,1.8571158340200782,2891.144039707957,,,,,,271222,A,2024-07-11_11h01.12.333,EPIDM,2023.1.2,None,
8250.jpg,1313.jpg,4 Points,4 Points,394 Points,PS1_L7.csv,,,,,,,,,,,,,,,,,,,,,,,,,,,,,0,6,6,6,0,13,13,13,,,,,,,,,,,,,,,,,,,2895.3923206659965,p,0.9812375420005992,2896.4498797080014,4,1.5051950010238215,,,,271222,A,2024-07-11_11h01.12.333,EPIDM,2023.1.2,None,
2690.jpg,9360.jpg,1 Point,1 Point,395 Points,PS1_L7.csv,,,,,,,,,,,,,,,,,,,,,,,,,,,,,0,6,6,6,0,14,14,14,,,,,,,,,,,,,,,,,,,2902.282241791021,q,1.074548292090185,2903.4269952080213,,,,,,271222,A,2024-07-11_11h01.12.333,EPIDM,2023.1.2,None,
9570.jpg,6610.jpg,0 Points,0 Points,395 Points,PS1_L7.csv,,,,,,,,,,,,,,,,,,,,,,,,,,,,,0,6,6,6,0,15,15,15,,,,,,,,,,,,,,,,,,,2907.679841623991,q,0.7412532930029556,2908.49988416594,,,,,,271222,A,2024-07-11_11h01.12.333,EPIDM,2023.1.2,None,
3110.jpg,9000.jpg,4 Points,4 Points,399 Points,PS1_L7.csv,,,,,,,,,,,,,,,,,,,,,,,,,,,,,0,6,6,6,0,16,16,16,,,,,,,,,,,,,,,,,,,2912.7537359989947,p,1.9708162510069087,2914.79349874903,,,,,,271222,A,2024-07-11_11h01.12.333,EPIDM,2023.1.2,None,
8465.jpg,8400.jpg,1 Point,1 Point,400 Points,PS1_L7.csv,,,,,,,,,,,,,,,,,,,,,,,,,,,,,0,6,6,6,0,17,17,17,,,,,,,,,,,,,,,,,,,2919.0728147079935,q,1.8509980839444324,2920.995275583002,,,,,,271222,A,2024-07-11_11h01.12.333,EPIDM,2023.1.2,None,
1540.jpg,2600.jpg,1 Point,1 Point,401 Points,PS1_L7.csv,,,,,,,,,,,,,,,,,,,,,,,,,,,,,0,6,6,6,0,18,18,18,,,,,,,,,,,,,,,,,,,2925.2474089160096,q,2.1649837919976562,2927.4769657909637,,,,,,271222,A,2024-07-11_11h01.12.333,EPIDM,2023.1.2,None,
2276.jpg,6540.jpg,3 Points,3 Points,404 Points,PS1_L7.csv,,,,,,,,,,,,,,,,,,,,,,,,,,,,,0,6,6,6,0,19,19,19,,,,,,,,,,,,,,,,,,,2931.7316348740133,q,1.3223141260677949,2933.1159805830102,,,,,,271222,A,2024-07-11_11h01.12.333,EPIDM,2023.1.2,None,
5030.jpg,1670.jpg,3 Points,3 Points,407 Points,PS1_L7.csv,,,,,,,,,,,,,,,,,,,,,,,,,,,,,0,6,6,6,0,20,20,20,,,,,,,,,,,,,,,,,,,2937.367541583022,p,1.5643552510300651,2938.9881929579424,,,,,,271222,A,2024-07-11_11h01.12.333,EPIDM,2023.1.2,None,
9040.jpg,1120.jpg,3 Points,3 Points,410 Points,PS1_L7.csv,,,,,,,,,,,,,,,,,,,,,,,,,,,,,0,6,6,6,0,21,21,21,,,,,,,,,,,,,,,,,,,2943.250231040991,q,1.585666959057562,2944.913580290973,,,,,,271222,A,2024-07-11_11h01.12.333,EPIDM,2023.1.2,None,
3220.jpg,3063.jpg,5 Points,5 Points,415 Points,PS1_L7.csv,,,,,,,,,,,,,,,,,,,,,,,,,,,,,0,6,6,6,0,22,22,22,,,,,,,,,,,,,,,,,,,2949.1670766660245,p,1.8936611250974238,2951.127504291013,,,,,,271222,A,2024-07-11_11h01.12.333,EPIDM,2023.1.2,None,
8117.jpg,2880.jpg,5 Points,5 Points,420 Points,PS1_L7.csv,,,,,,,,,,,,,,,,,,,,,,,,,,,,,0,6,6,6,0,23,23,23,,,,,,,,,,,,,,,,,,,2955.3951124990126,q,1.1048871680395678,2956.5873059580335,,,2967.074318791041,space,1.1862517920089886,271222,A,2024-07-11_11h01.12.333,EPIDM,2023.1.2,None,
4274.jpg,8160.jpg,2 Points,2 Points,422 Points,PS1_L8.csv,,,,,,,,,,,,,,,,,,,,,,,,,,,,,0,7,7,7,0,0,0,0,,,,,,,,,,,,,,,,,,,2971.5676412079483,p,1.5238127510529011,2973.161135833012,,,,,,271222,A,2024-07-11_11h01.12.333,EPIDM,2023.1.2,None,
6314.jpg,O022.jpg,2 Points,2 Points,424 Points,PS1_L8.csv,,,,,,,,,,,,,,,,,,,,,,,,,,,,,0,7,7,7,0,1,1,1,,,,,,,,,,,,,,,,,,,2977.4047683739336,p,2.9499585840385407,2980.468580998946,2,1.2492218340048566,,,,271222,A,2024-07-11_11h01.12.333,EPIDM,2023.1.2,None,
1560.jpg,8185.jpg,0 Points,0 Points,424 Points,PS1_L8.csv,,,,,,,,,,,,,,,,,,,,,,,,,,,,,0,7,7,7,0,2,2,2,,,,,,,,,,,,,,,,,,,2986.035149708041,p,1.5684697090182453,2987.670598958037,,,,,,271222,A,2024-07-11_11h01.12.333,EPIDM,2023.1.2,None,
2850.jpg,4532.jpg,3 Points,3 Points,427 Points,PS1_L8.csv,,,,,,,,,,,,,,,,,,,,,,,,,,,,,0,7,7,7,0,3,3,3,,,,,,,,,,,,,,,,,,,2991.915089957998,p,1.8549634169321507,2993.8326620829757,,,,,,271222,A,2024-07-11_11h01.12.333,EPIDM,2023.1.2,None,
1390.jpg,9421.jpg,2 Points,2 Points,429 Points,PS1_L8.csv,,,,,,,,,,,,,,,,,,,,,,,,,,,,,0,7,7,7,0,4,4,4,,,,,,,,,,,,,,,,,,,2998.0960332079558,p,1.642611708957702,2999.812817665981,,,,,,271222,A,2024-07-11_11h01.12.333,EPIDM,2023.1.2,None,
9800.jpg,9433.jpg,1 Point,1 Point,430 Points,PS1_L8.csv,,,,,,,,,,,,,,,,,,,,,,,,,,,,,0,7,7,7,0,5,5,5,,,,,,,,,,,,,,,,,,,3004.0700217080303,p,1.3733905010158196,3005.513811083045,,,,,,271222,A,2024-07-11_11h01.12.333,EPIDM,2023.1.2,None,
8161.jpg,1900.jpg,4 Points,4 Points,434 Points,PS1_L8.csv,,,,,,,,,,,,,,,,,,,,,,,,,,,,,0,7,7,7,0,6,6,6,,,,,,,,,,,,,,,,,,,3009.7626854160335,q,2.0385094169760123,3011.874755457975,,,,,,271222,A,2024-07-11_11h01.12.333,EPIDM,2023.1.2,None,
1112.jpg,6230.jpg,3 Points,3 Points,437 Points,PS1_L8.csv,,,,,,,,,,,,,,,,,,,,,,,,,,,,,0,7,7,7,0,7,7,7,,,,,,,,,,,,,,,,,,,3016.1290965409717,p,1.1762831250671297,3017.377525998978,,,,,,271222,A,2024-07-11_11h01.12.333,EPIDM,2023.1.2,None,
1111.jpg,1040.jpg,0 Points,0 Points,437 Points,PS1_L8.csv,,,,,,,,,,,,,,,,,,,,,,,,,,,,,0,7,7,7,0,8,8,8,,,,,,,,,,,,,,,,,,,3021.6272235829383,p,1.1192767510656267,3022.820492040948,,,,,,271222,A,2024-07-11_11h01.12.333,EPIDM,2023.1.2,None,
5622.jpg,9156.jpg,4 Points,4 Points,441 Points,PS1_L8.csv,,,,,,,,,,,,,,,,,,,,,,,,,,,,,0,7,7,7,0,9,9,9,,,,,,,,,,,,,,,,,,,3027.06662524899,p,1.807777876034379,3028.9481038739905,,,,,,271222,A,2024-07-11_11h01.12.333,EPIDM,2023.1.2,None,
2681.jpg,7100.jpg,3 Points,3 Points,444 Points,PS1_L8.csv,,,,,,,,,,,,,,,,,,,,,,,,,,,,,0,7,7,7,0,10,10,10,,,,,,,,,,,,,,,,,,,3033.1897340409923,q,1.7158202501013875,3034.9823194580385,,,,,,271222,A,2024-07-11_11h01.12.333,EPIDM,2023.1.2,None,
6821.jpg,9622.jpg,2 Points,2 Points,446 Points,PS1_L8.csv,,,,,,,,,,,,,,,,,,,,,,,,,,,,,0,7,7,7,0,11,11,11,,,,,,,,,,,,,,,,,,,3039.224152083043,p,0.8576907510869205,3040.1430744989775,,,,,,271222,A,2024-07-11_11h01.12.333,EPIDM,2023.1.2,None,
9490.jpg,9210.jpg,1 Point,1 Point,447 Points,PS1_L8.csv,,,,,,,,,,,,,,,,,,,,,,,,,,,,,0,7,7,7,0,12,12,12,,,,,,,,,,,,,,,,,,,3044.395433541038,q,1.4141565840691328,3045.861829124042,,,,,,271222,A,2024-07-11_11h01.12.333,EPIDM,2023.1.2,None,
4605.jpg,1510.jpg,4 Points,4 Points,451 Points,PS1_L8.csv,,,,,,,,,,,,,,,,,,,,,,,,,,,,,0,7,7,7,0,13,13,13,,,,,,,,,,,,,,,,,,,3050.1186645829584,p,2.42688637599349,3052.619981791009,4,1.3677919170586392,,,,271222,A,2024-07-11_11h01.12.333,EPIDM,2023.1.2,None,
2240.jpg,5010.jpg,5 Points,5 Points,456 Points,PS1_L8.csv,,,,,,,,,,,,,,,,,,,,,,,,,,,,,0,7,7,7,0,14,14,14,,,,,,,,,,,,,,,,,,,3058.3058236660436,q,1.5782154999906197,3059.9697287910385,,,,,,271222,A,2024-07-11_11h01.12.333,EPIDM,2023.1.2,None,
3102.jpg,F032.jpg,1 Point,1 Point,457 Points,PS1_L8.csv,,,,,,,,,,,,,,,,,,,,,,,,,,,,,0,7,7,7,0,15,15,15,,,,,,,,,,,,,,,,,,,3064.2098062910372,q,1.1268487919587642,3065.452008166001,,,,,,271222,A,2024-07-11_11h01.12.333,EPIDM,2023.1.2,None,
4100.jpg,6570.2.jpg,3 Points,3 Points,460 Points,PS1_L8.csv,,,,,,,,,,,,,,,,,,,,,,,,,,,,,0,7,7,7,0,16,16,16,,,,,,,,,,,,,,,,,,,3069.668409249047,p,2.1321964589878917,3071.879871874,,,,,,271222,A,2024-07-11_11h01.12.333,EPIDM,2023.1.2,None,
2650.jpg,4531.jpg,5 Points,5 Points,465 Points,PS1_L8.csv,,,,,,,,,,,,,,,,,,,,,,,,,,,,,0,7,7,7,0,17,17,17,,,,,,,,,,,,,,,,,,,3076.1326136660064,q,2.0686233759624884,3078.275360416039,,,,,,271222,A,2024-07-11_11h01.12.333,EPIDM,2023.1.2,None,
9320.jpg,9007.jpg,0 Points,0 Points,465 Points,PS1_L8.csv,,,,,,,,,,,,,,,,,,,,,,,,,,,,,0,7,7,7,0,18,18,18,,,,,,,,,,,,,,,,,,,3082.5182034990285,p,2.1214549590367824,3084.720851999009,,,,,,271222,A,2024-07-11_11h01.12.333,EPIDM,2023.1.2,None,
8460.jpg,8330.jpg,0 Points,0 Points,465 Points,PS1_L8.csv,,,,,,,,,,,,,,,,,,,,,,,,,,,,,0,7,7,7,0,19,19,19,,,,,,,,,,,,,,,,,,,3088.967970208032,q,2.1044771671295166,3091.138074083021,,,,,,271222,A,2024-07-11_11h01.12.333,EPIDM,2023.1.2,None,
2570.jpg,5500.jpg,3 Points,3 Points,468 Points,PS1_L8.csv,,,,,,,,,,,,,,,,,,,,,,,,,,,,,0,7,7,7,0,20,20,20,,,,,,,,,,,,,,,,,,,3095.393966707983,p,0.5021885420428589,3095.9634317909367,,,,,,271222,A,2024-07-11_11h01.12.333,EPIDM,2023.1.2,None,
6190.jpg,3120.jpg,5 Points,5 Points,473 Points,PS1_L8.csv,,,,,,,,,,,,,,,,,,,,,,,,,,,,,0,7,7,7,0,21,21,21,,,,,,,,,,,,,,,,,,,3100.2079728739336,p,1.408051543054171,3101.6901354580186,,,,,,271222,A,2024-07-11_11h01.12.333,EPIDM,2023.1.2,None,
2200.jpg,4598.jpg,1 Point,1 Point,474 Points,PS1_L8.csv,,,,,,,,,,,,,,,,,,,,,,,,,,,,,0,7,7,7,0,22,22,22,,,,,,,,,,,,,,,,,,,3105.933960999013,q,1.427035125088878,3107.432132332935,,,,,,271222,A,2024-07-11_11h01.12.333,EPIDM,2023.1.2,None,
1303.jpg,2000.jpg,0 Points,0 Points,474 Points,PS1_L8.csv,,,,,,,,,,,,,,,,,,,,,,,,,,,,,0,7,7,7,0,23,23,23,,,,,,,,,,,,,,,,,,,3111.679205833003,p,2.168163209105842,3113.9190388739808,,,3124.377135874005,space,2.2711169590475038,271222,A,2024-07-11_11h01.12.333,EPIDM,2023.1.2,None,
9010.jpg,9253.jpg,0 Points,0 Points,474 Points,PS1_L9.csv,,,,,,,,,,,,,,,,,,,,,,,,,,,,,0,8,8,8,0,0,0,0,,,,,,,,,,,,,,,,,,,3129.973883248982,p,0.9374841679818928,3130.975805373979,,,,,,271222,A,2024-07-11_11h01.12.333,EPIDM,2023.1.2,None,
1302.jpg,2700.jpg,3 Points,3 Points,477 Points,PS1_L9.csv,,,,,,,,,,,,,,,,,,,,,,,,,,,,,0,8,8,8,0,1,1,1,,,,,,,,,,,,,,,,,,,3135.230544373975,q,1.1925951250595972,3136.4941764579853,3,1.1842723760055378,,,,271222,A,2024-07-11_11h01.12.333,EPIDM,2023.1.2,None,
2030.jpg,2495.jpg,0 Points,0 Points,477 Points,PS1_L9.csv,,,,,,,,,,,,,,,,,,,,,,,,,,,,,0,8,8,8,0,2,2,2,,,,,,,,,,,,,,,,,,,3141.9929737489438,q,1.4053208749974146,3143.4713518739445,,,,,,271222,A,2024-07-11_11h01.12.333,EPIDM,2023.1.2,None,
2110.jpg,7260.jpg,5 Points,5 Points,482 Points,PS1_L9.csv,,,,,,,,,,,,,,,,,,,,,,,,,,,,,0,8,8,8,0,3,3,3,,,,,,,,,,,,,,,,,,,3147.707482708036,q,1.60350224992726,3149.374668998993,,,,,,271222,A,2024-07-11_11h01.12.333,EPIDM,2023.1.2,None,
2053.jpg,9415.jpg,4 Points,4 Points,486 Points,PS1_L9.csv,,,,,,,,,,,,,,,,,,,,,,,,,,,,,0,8,8,8,0,4,4,4,,,,,,,,,,,,,,,,,,,3153.6236781659536,q,1.3356850430136546,3155.0266721240478,,,,,,271222,A,2024-07-11_11h01.12.333,EPIDM,2023.1.2,None,
6211.jpg,9611.jpg,3 Points,3 Points,489 Points,PS1_L9.csv,,,,,,,,,,,,,,,,,,,,,,,,,,,,,0,8,8,8,0,5,5,5,,,,,,,,,,,,,,,,,,,3159.2828585410025,p,1.1155471670208499,3160.4602395410184,,,,,,271222,A,2024-07-11_11h01.12.333,EPIDM,2023.1.2,None,
8350.jpg,7190.jpg,5 Points,5 Points,494 Points,PS1_L9.csv,,,,,,,,,,,,,,,,,,,,,,,,,,,,,0,8,8,8,0,6,6,6,,,,,,,,,,,,,,,,,,,3164.7159203329356,p,1.6675055010709912,3166.461918790941,,,,,,271222,A,2024-07-11_11h01.12.333,EPIDM,2023.1.2,None,
9340.jpg,6910.jpg,0 Points,0 Points,494 Points,PS1_L9.csv,,,,,,,,,,,,,,,,,,,,,,,,,,,,,0,8,8,8,0,7,7,7,,,,,,,,,,,,,,,,,,,3170.7097125409637,p,1.4552953341044486,3172.2368651659926,,,,,,271222,A,2024-07-11_11h01.12.333,EPIDM,2023.1.2,None,
4533.jpg,2385.jpg,3 Points,3 Points,497 Points,PS1_L9.csv,,,,,,,,,,,,,,,,,,,,,,,,,,,,,0,8,8,8,0,8,8,8,,,,,,,,,,,,,,,,,,,3176.4760232080007,p,1.4899212500313297,3178.037885708036,,,,,,271222,A,2024-07-11_11h01.12.333,EPIDM,2023.1.2,None,
5940.jpg,9411.jpg,0 Points,0 Points,497 Points,PS1_L9.csv,,,,,,,,,,,,,,,,,,,,,,,,,,,,,0,8,8,8,0,9,9,9,,,,,,,,,,,,,,,,,,,3182.27686908294,p,1.3614393339958042,3183.718280207948,,,,,,271222,A,2024-07-11_11h01.12.333,EPIDM,2023.1.2,None,
2220.jpg,2010.jpg,5 Points,5 Points,502 Points,PS1_L9.csv,,,,,,,,,,,,,,,,,,,,,,,,,,,,,0,8,8,8,0,10,10,10,,,,,,,,,,,,,,,,,,,3187.966176833026,q,1.2804655419895425,3189.318397499039,,,,,,271222,A,2024-07-11_11h01.12.333,EPIDM,2023.1.2,None,
9500.jpg,6360.jpg,1 Point,1 Point,503 Points,PS1_L9.csv,,,,,,,,,,,,,,,,,,,,,,,,,,,,,0,8,8,8,0,11,11,11,,,,,,,,,,,,,,,,,,,3193.555594583042,None,,,,,,,,271222,A,2024-07-11_11h01.12.333,EPIDM,2023.1.2,None,
2092.jpg,2210.jpg,0 Points,0 Points,503 Points,PS1_L9.csv,,,,,,,,,,,,,,,,,,,,,,,,,,,,,0,8,8,8,0,12,12,12,,,,,,,,,,,,,,,,,,,3201.0557101659942,p,0.6775393340503797,3201.809371958021,,,,,,271222,A,2024-07-11_11h01.12.333,EPIDM,2023.1.2,None,
9530.jpg,9220.jpg,1 Point,1 Point,504 Points,PS1_L9.csv,,,,,,,,,,,,,,,,,,,,,,,,,,,,,0,8,8,8,0,13,13,13,,,,,,,,,,,,,,,,,,,3206.055317958002,q,0.7731222090078518,3206.89839429094,1,1.3952519170707092,,,,271222,A,2024-07-11_11h01.12.333,EPIDM,2023.1.2,None,
9254.jpg,9290.jpg,2 Points,2 Points,506 Points,PS1_L9.csv,,,,,,,,,,,,,,,,,,,,,,,,,,,,,0,8,8,8,0,14,14,14,,,,,,,,,,,,,,,,,,,3212.5998504989548,p,0.7979261260479689,3213.4607506659813,,,,,,271222,A,2024-07-11_11h01.12.333,EPIDM,2023.1.2,None,
4608.jpg,8320.jpg,1 Point,1 Point,507 Points,PS1_L9.csv,,,,,,,,,,,,,,,,,,,,,,,,,,,,,0,8,8,8,0,15,15,15,,,,,,,,,,,,,,,,,,,3217.722043790971,q,0.8438747089821845,3218.626887582941,,,,,,271222,A,2024-07-11_11h01.12.333,EPIDM,2023.1.2,None,
7237.jpg,8510.jpg,4 Points,4 Points,511 Points,PS1_L9.csv,,,,,,,,,,,,,,,,,,,,,,,,,,,,,0,8,8,8,0,16,16,16,,,,,,,,,,,,,,,,,,,3222.885811166023,p,0.7259487920673564,3223.6867294160184,,,,,,271222,A,2024-07-11_11h01.12.333,EPIDM,2023.1.2,None,
9417.jpg,6530.jpg,1 Point,1 Point,512 Points,PS1_L9.csv,,,,,,,,,,,,,,,,,,,,,,,,,,,,,0,8,8,8,0,17,17,17,,,,,,,,,,,,,,,,,,,3227.931425248971,q,1.122415708960034,3229.131933458033,,,,,,271222,A,2024-07-11_11h01.12.333,EPIDM,2023.1.2,None,
6831.jpg,2141.jpg,5 Points,5 Points,517 Points,PS1_L9.csv,,,,,,,,,,,,,,,,,,,,,,,,,,,,,0,8,8,8,0,18,18,18,,,,,,,,,,,,,,,,,,,3233.384364373982,q,1.3717602510005236,3234.8295079990057,,,,,,271222,A,2024-07-11_11h01.12.333,EPIDM,2023.1.2,None,
4689.jpg,7009.jpg,5 Points,5 Points,522 Points,PS1_L9.csv,,,,,,,,,,,,,,,,,,,,,,,,,,,,,0,8,8,8,0,19,19,19,,,,,,,,,,,,,,,,,,,3239.081078207935,p,0.8350047919666395,3239.993014791049,,,,,,271222,A,2024-07-11_11h01.12.333,EPIDM,2023.1.2,None,
2751.jpg,6313.jpg,3 Points,3 Points,525 Points,PS1_L9.csv,,,,,,,,,,,,,,,,,,,,,,,,,,,,,0,8,8,8,0,20,20,20,,,,,,,,,,,,,,,,,,,3244.2334931660444,q,1.0114260429982096,3245.3178181659896,,,,,,271222,A,2024-07-11_11h01.12.333,EPIDM,2023.1.2,None,
4621.jpg,3550.jpg,2 Points,2 Points,527 Points,PS1_L9.csv,,,,,,,,,,,,,,,,,,,,,,,,,,,,,0,8,8,8,0,21,21,21,,,,,,,,,,,,,,,,,,,3249.5706425410463,p,0.9078723340062425,3250.5439961239463,,,,,,271222,A,2024-07-11_11h01.12.333,EPIDM,2023.1.2,None,
8220.jpg,2410.jpg,4 Points,4 Points,531 Points,PS1_L9.csv,,,,,,,,,,,,,,,,,,,,,,,,,,,,,0,8,8,8,0,22,22,22,,,,,,,,,,,,,,,,,,,3254.793693915941,p,0.9943797920132056,3255.8605116240215,,,,,,271222,A,2024-07-11_11h01.12.333,EPIDM,2023.1.2,None,
1113.jpg,1240.jpg,3 Points,3 Points,534 Points,PS1_L9.csv,,,,,,,,,,,,,,,,,,,,,,,,,,,,,0,8,8,8,0,23,23,23,,,,,,,,,,,,,,,,,,,3260.113609166001,q,1.4830165840685368,3261.6753464159556,,,3272.149068373954,space,2.607100583962165,271222,A,2024-07-11_11h01.12.333,EPIDM,2023.1.2,None,
2750.jpg,9050.jpg,4 Points,4 Points,538 Points,PS1_L10.csv,,,,,,,,,,,,,,,,,,,,,,,,,,,,,0,9,9,9,0,0,0,0,,,,,,,,,,,,,,,,,,,3278.075975873973,p,0.919353042030707,3279.0623707909836,,,,,,271222,A,2024-07-11_11h01.12.333,EPIDM,2023.1.2,None,
2312.jpg,2722.jpg,1 Points,1 Points,539 Points,PS1_L10.csv,,,,,,,,,,,,,,,,,,,,,,,,,,,,,0,9,9,9,0,1,1,1,,,,,,,,,,,,,,,,,,,3283.3118300830247,q,1.2669605840928853,3284.6489923739573,1,1.0298825840000063,,,,271222,A,2024-07-11_11h01.12.333,EPIDM,2023.1.2,None,
8232.jpg,4279.jpg,5 Points,5 Points,544 Points,PS1_L10.csv,,,,,,,,,,,,,,,,,,,,,,,,,,,,,0,9,9,9,0,2,2,2,,,,,,,,,,,,,,,,,,,3290.005969041027,q,1.2135191259440035,3291.2943842910463,,,,,,271222,A,2024-07-11_11h01.12.333,EPIDM,2023.1.2,None,
6000.jpg,6836.jpg,4 Points,4 Points,548 Points,PS1_L10.csv,,,,,,,,,,,,,,,,,,,,,,,,,,,,,0,9,9,9,0,3,3,3,,,,,,,,,,,,,,,,,,,3295.5463274989743,p,1.088984667090699,3296.7130506660324,,,,,,271222,A,2024-07-11_11h01.12.333,EPIDM,2023.1.2,None,
4536.jpg,2280.jpg,4 Points,4 Points,552 Points,PS1_L10.csv,,,,,,,,,,,,,,,,,,,,,,,,,,,,,0,9,9,9,0,4,4,4,,,,,,,,,,,,,,,,,,,3300.958866165951,p,0.8767412090674043,3301.910097957938,,,,,,271222,A,2024-07-11_11h01.12.333,EPIDM,2023.1.2,None,
6241.jpg,9561.jpg,3 Points,3 Points,555 Points,PS1_L10.csv,,,,,,,,,,,,,,,,,,,,,,,,,,,,,0,9,9,9,0,5,5,5,,,,,,,,,,,,,,,,,,,3306.1551637490047,p,1.0391822510864586,3307.264606624027,,,,,,271222,A,2024-07-11_11h01.12.333,EPIDM,2023.1.2,None,
1942.jpg,2890.jpg,1 Points,1 Points,556 Points,PS1_L10.csv,,,,,,,,,,,,,,,,,,,,,,,,,,,,,0,9,9,9,0,6,6,6,,,,,,,,,,,,,,,,,,,3311.5117692910135,q,1.027690334012732,3312.6057762489654,,,,,,271222,A,2024-07-11_11h01.12.333,EPIDM,2023.1.2,None,
6020.jpg,6300.jpg,2 Points,2 Points,558 Points,PS1_L10.csv,,,,,,,,,,,,,,,,,,,,,,,,,,,,,0,9,9,9,0,7,7,7,,,,,,,,,,,,,,,,,,,3316.874042958021,q,1.593356708995998,3318.5275920409476,,,,,,271222,A,2024-07-11_11h01.12.333,EPIDM,2023.1.2,None,
7170.jpg,2170.jpg,2 Points,2 Points,560 Points,PS1_L10.csv,,,,,,,,,,,,,,,,,,,,,,,,,,,,,0,9,9,9,0,8,8,8,,,,,,,,,,,,,,,,,,,3322.775085916044,q,1.122869792045094,3323.9733845830197,,,,,,271222,A,2024-07-11_11h01.12.333,EPIDM,2023.1.2,None,
5510.jpg,2514.jpg,5 Points,5 Points,565 Points,PS1_L10.csv,,,,,,,,,,,,,,,,,,,,,,,,,,,,,0,9,9,9,0,9,9,9,,,,,,,,,,,,,,,,,,,3328.223937832983,q,0.690440334030427,3328.9939072489506,,,,,,271222,A,2024-07-11_11h01.12.333,EPIDM,2023.1.2,None,
6840.jpg,3080.jpg,1 Points,1 Points,566 Points,PS1_L10.csv,,,,,,,,,,,,,,,,,,,,,,,,,,,,,0,9,9,9,0,10,10,10,,,,,,,,,,,,,,,,,,,3333.247105165967,p,1.1620983339380473,3334.4742835829966,,,,,,271222,A,2024-07-11_11h01.12.333,EPIDM,2023.1.2,None,
7195.jpg,2487.jpg,2 Points,2 Points,568 Points,PS1_L10.csv,,,,,,,,,,,,,,,,,,,,,,,,,,,,,0,9,9,9,0,11,11,11,,,,,,,,,,,,,,,,,,,3338.727267790935,q,1.1630406260956079,3339.9615972490283,,,,,,271222,A,2024-07-11_11h01.12.333,EPIDM,2023.1.2,None,
5971.jpg,9912.jpg,5 Points,5 Points,573 Points,PS1_L10.csv,,,,,,,,,,,,,,,,,,,,,,,,,,,,,0,9,9,9,0,12,12,12,,,,,,,,,,,,,,,,,,,3344.220507582999,q,0.5024609180400148,3344.776230248972,,,,,,271222,A,2024-07-11_11h01.12.333,EPIDM,2023.1.2,None,
2520.jpg,8503.jpg,2 Points,2 Points,575 Points,PS1_L10.csv,,,,,,,,,,,,,,,,,,,,,,,,,,,,,0,9,9,9,0,13,13,13,,,,,,,,,,,,,,,,,,,3349.031830749009,q,0.9868872510269284,3350.099623207934,2,1.0563290010904893,,,,271222,A,2024-07-11_11h01.12.333,EPIDM,2023.1.2,None,
5480.jpg,8200.jpg,4 Points,4 Points,579 Points,PS1_L10.csv,,,,,,,,,,,,,,,,,,,,,,,,,,,,,0,9,9,9,0,14,14,14,,,,,,,,,,,,,,,,,,,3355.4787674989784,p,0.8183080430608243,3356.379543957999,,,,,,271222,A,2024-07-11_11h01.12.333,EPIDM,2023.1.2,None,
6370.jpg,1270.jpg,4 Points,4 Points,583 Points,PS1_L10.csv,,,,,,,,,,,,,,,,,,,,,,,,,,,,,0,9,9,9,0,15,15,15,,,,,,,,,,,,,,,,,,,3360.6118197080214,p,1.0451724590966478,3361.7116230409592,,,,,,271222,A,2024-07-11_11h01.12.333,EPIDM,2023.1.2,None,
5130.jpg,1810.jpg,3 Points,3 Points,586 Points,PS1_L10.csv,,,,,,,,,,,,,,,,,,,,,,,,,,,,,0,9,9,9,0,16,16,16,,,,,,,,,,,,,,,,,,,3365.974242624012,p,1.219817875069566,3367.2796329159755,,,,,,271222,A,2024-07-11_11h01.12.333,EPIDM,2023.1.2,None,
4250.jpg,7060.jpg,5 Points,5 Points,591 Points,PS1_L10.csv,,,,,,,,,,,,,,,,,,,,,,,,,,,,,0,9,9,9,0,17,17,17,,,,,,,,,,,,,,,,,,,3371.51092916599,q,0.8105209181085229,3372.394284665934,,,,,,271222,A,2024-07-11_11h01.12.333,EPIDM,2023.1.2,None,
9373.jpg,9410.jpg,0 Points,0 Points,591 Points,PS1_L10.csv,,,,,,,,,,,,,,,,,,,,,,,,,,,,,0,9,9,9,0,18,18,18,,,,,,,,,,,,,,,,,,,3376.6350190830417,p,1.046758667100221,3377.7538882909575,,,,,,271222,A,2024-07-11_11h01.12.333,EPIDM,2023.1.2,None,
2221.jpg,2270.jpg,2 Points,2 Points,593 Points,PS1_L10.csv,,,,,,,,,,,,,,,,,,,,,,,,,,,,,0,9,9,9,0,19,19,19,,,,,,,,,,,,,,,,,,,3381.9929334160406,p,1.112813042011112,3383.173370082979,,,,,,271222,A,2024-07-11_11h01.12.333,EPIDM,2023.1.2,None,
1650.jpg,2130.jpg,1 Points,1 Points,594 Points,PS1_L10.csv,,,,,,,,,,,,,,,,,,,,,,,,,,,,,0,9,9,9,0,20,20,20,,,,,,,,,,,,,,,,,,,3387.421628874028,q,0.763362001045607,3388.258508416009,,,,,,271222,A,2024-07-11_11h01.12.333,EPIDM,2023.1.2,None,
1280.jpg,9402.jpg,2 Points,2 Points,596 Points,PS1_L10.csv,,,,,,,,,,,,,,,,,,,,,,,,,,,,,0,9,9,9,0,21,21,21,,,,,,,,,,,,,,,,,,,3392.5112429580186,p,1.377687458996661,3393.9758222079836,,,,,,271222,A,2024-07-11_11h01.12.333,EPIDM,2023.1.2,None,
2214.jpg,4500.jpg,3 Points,3 Points,599 Points,PS1_L10.csv,,,,,,,,,,,,,,,,,,,,,,,,,,,,,0,9,9,9,0,22,22,22,,,,,,,,,,,,,,,,,,,3398.219888833002,q,2.357112208963372,3400.646608748939,,,,,,271222,A,2024-07-11_11h01.12.333,EPIDM,2023.1.2,None,
7284.jpg,8021.jpg,4 Points,4 Points,603 Points,PS1_L10.csv,,,,,,,,,,,,,,,,,,,,,,,,,,,,,0,9,9,9,0,23,23,23,,,,,,,,,,,,,,,,,,,3404.8845656239428,p,1.0123666670406237,3405.9787580410484,,,3416.475114124012,space,2.25311229203362,271222,A,2024-07-11_11h01.12.333,EPIDM,2023.1.2,None,
