L_Scene,R_Scene,Points_L,Points_R,PtTotal,blockFile,Instructions_Loop.thisRepN,Instructions_Loop.thisTrialN,Instructions_Loop.thisN,Instructions_Loop.thisIndex,Redo_Instructions_Loop.thisRepN,Redo_Instructions_Loop.thisTrialN,Redo_Instructions_Loop.thisN,Redo_Instructions_Loop.thisIndex,Practice_Encoding_Loop.thisRepN,Practice_Encoding_Loop.thisTrialN,Practice_Encoding_Loop.thisN,Practice_Encoding_Loop.thisIndex,Practice_Response_Fail_Loop.thisRepN,Practice_Response_Fail_Loop.thisTrialN,Practice_Response_Fail_Loop.thisN,Practice_Response_Fail_Loop.thisIndex,Practice_FB_Loop.thisRepN,Practice_FB_Loop.thisTrialN,Practice_FB_Loop.thisN,Practice_FB_Loop.thisIndex,Practice_Attention_Loop.thisRepN,Practice_Attention_Loop.thisTrialN,Practice_Attention_Loop.thisN,Practice_Attention_Loop.thisIndex,Practice_EncBrk_Loop.thisRepN,Practice_EncBrk_Loop.thisTrialN,Practice_EncBrk_Loop.thisN,Practice_EncBrk_Loop.thisIndex,Encoding_Loop.thisRepN,Encoding_Loop.thisTrialN,Encoding_Loop.thisN,Encoding_Loop.thisIndex,EncStim_Loop.thisRepN,EncStim_Loop.thisTrialN,EncStim_Loop.thisN,EncStim_Loop.thisIndex,Response_Fail_Loop.thisRepN,Response_Fail_Loop.thisTrialN,Response_Fail_Loop.thisN,Response_Fail_Loop.thisIndex,FB_Loop.thisRepN,FB_Loop.thisTrialN,FB_Loop.thisN,FB_Loop.thisIndex,Attention_Loop.thisRepN,Attention_Loop.thisTrialN,Attention_Loop.thisN,Attention_Loop.thisIndex,EncBrk_Loop.thisRepN,EncBrk_Loop.thisTrialN,EncBrk_Loop.thisN,EncBrk_Loop.thisIndex,Transition_Enc.keys,Transition_Enc.rt,Encoding_Resp.started,Encoding_Resp.keys,Encoding_Resp.rt,R_Point_FB_Stim.started,Attn_resp.keys,Attn_resp.rt,Progress_Tracker.started,EncBrk_Resp.keys,EncBrk_Resp.rt,participant,Group,date,expName,psychopyVersion,frameRate,
,,,,,,,,,,,,,,,,,,,,,,,,,,,,,,,,,,,,,,,,,,,,,,,,,,,,,,,,,,space,2.796609916998932,,,,,,,,,,63,A,2025-02-08_17h18.45.899,EPIDM,2023.1.2,None,
A060.jpg,F041.jpg,5 Points,5 Points,5 Points,,,,,,,,,,0,0,0,0,,,,,,,,,,,,,,,,,,,,,,,,,,,,,,,,,,,,,,,,,,,849.7446735840003,q,1.8404584579984657,851.729835791999,,,,,,63,A,2025-02-08_17h18.45.899,EPIDM,2023.1.2,None,
O161.jpg,1812.jpg,2 Points,2 Points,7 Points,,,,,,,,,,0,1,1,1,,,,,,,,,,,,,,,,,,,,,,,,,,,,,,,,,,,,,,,,,,,855.898140792,p,1.751110790999519,857.7896092089995,,,,,,63,A,2025-02-08_17h18.45.899,EPIDM,2023.1.2,None,
O013.jpg,A001.jpg,3 Points,3 Points,10 Points,,,,,,,,,,0,2,2,2,,,,,,,,,,,,,,,,,,,,,,,,,,,,,,,,,,,,,,,,,,,861.9700236259996,q,1.7279497079998691,863.8432765420002,,,,,,63,A,2025-02-08_17h18.45.899,EPIDM,2023.1.2,None,
P036.jpg,F273.jpg,5 Points,5 Points,15 Points,,,,,,,,,,0,3,3,3,,,,,,,,,,,,,,,,,,,,,,,,,,,,,,,,,,,,,,,,,,,868.0143066259989,q,3.115215249998073,871.2881732919996,,,,,,63,A,2025-02-08_17h18.45.899,EPIDM,2023.1.2,None,
L130.jpg,2393.jpg,0 Points,0 Points,15 Points,,,,,,,,,,0,4,4,4,,,,,,,,,,,,,,,,,,,,,,,,,,,,,,,,,,,,,,,,,,,875.4459132510001,p,2.1556924159995106,877.7502100839993,0,1.9843059169998014,,,,63,A,2025-02-08_17h18.45.899,EPIDM,2023.1.2,None,
F279.jpg,P033.jpg,3 Points,3 Points,18 Points,,,,,,,,,,0,5,5,5,,,,,,,,,,,,,,,,,,,,,,,,,,,,,,,,,,,,,,,,,,,884.0141203759995,q,1.8420827080008166,885.9985055839988,,,,,,63,A,2025-02-08_17h18.45.899,EPIDM,2023.1.2,None,
A104.jpg,2593.jpg,2 Points,2 Points,20 Points,,,,,,,,,,0,6,6,6,,,,,,,,,,,,,,,,,,,,,,,,,,,,,,,,,,,,,,,,,,,890.1992715420001,p,0.9857148329992924,891.3130451670004,,,,,,63,A,2025-02-08_17h18.45.899,EPIDM,2023.1.2,None,
2598.jpg,2605.jpg,0 Points,0 Points,20 Points,,,,,,,,,,0,7,7,7,,,,,,,,,,,,,,,,,,,,,,,,,,,,,,,,,,,,,,,,,,,895.5048967509993,q,1.5120920419994945,897.087762916999,,,,,,63,A,2025-02-08_17h18.45.899,EPIDM,2023.1.2,None,
L005.jpg,O011.jpg,1 Points,1 Points,21 Points,,,,,,,,,,0,8,8,8,,,,,,,,,,,,,,,,,,,,,,,,,,,,,,,,,,,,,,,,,,,901.341258376,p,1.7477375419985037,903.223533417,,,,,,63,A,2025-02-08_17h18.45.899,EPIDM,2023.1.2,None,
8186.jpg,F078.jpg,2 Points,2 Points,23 Points,,,,,,,,,,0,9,9,9,,,,,,,,,,,,,,,,,,,,,,,,,,,,,,,,,,,,,,,,,,,907.4064592510003,q,2.0901353739991464,909.6274150419995,2,2.324750457999471,922.1786757509999,space,4.702021374998367,63,A,2025-02-08_17h18.45.899,EPIDM,2023.1.2,None,
,,,,,,,,,,,,,,,,,,,,,,,,,,,,,,,,,,,,,,,,,,,,,,,,,,,,,,,,,,space,1.5665054990004137,,,,,,,,,,63,A,2025-02-08_17h18.45.899,EPIDM,2023.1.2,None,
1019.jpg,2120.jpg,0 Points,0 Points,0 Points,PS1_L1.csv,,,,,,,,,,,,,,,,,,,,,,,,,,,,,0,0,0,0,0,0,0,0,,,,,,,,,,,,,,,,,,,939.1596617510004,q,2.256983791998209,941.5281235839993,,,,,,63,A,2025-02-08_17h18.45.899,EPIDM,2023.1.2,None,
6900.jpg,8531.jpg,4 Points,4 Points,4 Points,PS1_L1.csv,,,,,,,,,,,,,,,,,,,,,,,,,,,,,0,0,0,0,0,1,1,1,,,,,,,,,,,,,,,,,,,945.7345093339991,q,1.2505055829988123,947.053778001,4,1.794231874999241,,,,63,A,2025-02-08_17h18.45.899,EPIDM,2023.1.2,None,
5594.jpg,5750.jpg,5 Points,5 Points,9 Points,PS1_L1.csv,,,,,,,,,,,,,,,,,,,,,,,,,,,,,0,0,0,0,0,2,2,2,,,,,,,,,,,,,,,,,,,953.1679899589999,p,1.2236942920008005,954.4680372919993,,,,,,63,A,2025-02-08_17h18.45.899,EPIDM,2023.1.2,None,
2205.jpg,3053.jpg,4 Points,4 Points,13 Points,PS1_L1.csv,,,,,,,,,,,,,,,,,,,,,,,,,,,,,0,0,0,0,0,3,3,3,,,,,,,,,,,,,,,,,,,958.718368333999,q,2.81063499999982,961.6004173759993,,,,,,63,A,2025-02-08_17h18.45.899,EPIDM,2023.1.2,None,
3250.jpg,A053.jpg,3 Points,3 Points,16 Points,PS1_L1.csv,,,,,,,,,,,,,,,,,,,,,,,,,,,,,0,0,0,0,0,4,4,4,,,,,,,,,,,,,,,,,,,965.8514522509995,p,1.9570098749991303,967.9110687510001,,,,,,63,A,2025-02-08_17h18.45.899,EPIDM,2023.1.2,None,
7950.jpg,7187.jpg,1 Point,1 Point,17 Points,PS1_L1.csv,,,,,,,,,,,,,,,,,,,,,,,,,,,,,0,0,0,0,0,5,5,5,,,,,,,,,,,,,,,,,,,972.127206666999,p,1.4490793329987355,973.643990958999,,,,,,63,A,2025-02-08_17h18.45.899,EPIDM,2023.1.2,None,
5535.jpg,8210.jpg,3 Points,3 Points,20 Points,PS1_L1.csv,,,,,,,,,,,,,,,,,,,,,,,,,,,,,0,0,0,0,0,6,6,6,,,,,,,,,,,,,,,,,,,977.9016067089997,q,2.9624123749999853,980.9425514590002,,,,,,63,A,2025-02-08_17h18.45.899,EPIDM,2023.1.2,None,
9001.jpg,9620.jpg,1 Point,1 Point,21 Points,PS1_L1.csv,,,,,,,,,,,,,,,,,,,,,,,,,,,,,0,0,0,0,0,7,7,7,,,,,,,,,,,,,,,,,,,985.1903051259997,p,1.4814162919992668,986.7414088759997,,,,,,63,A,2025-02-08_17h18.45.899,EPIDM,2023.1.2,None,
1110.jpg,9331.jpg,2 Points,2 Points,23 Points,PS1_L1.csv,,,,,,,,,,,,,,,,,,,,,,,,,,,,,0,0,0,0,0,8,8,8,,,,,,,,,,,,,,,,,,,990.9843793340006,q,2.1434234579992335,993.2021489589988,,,,,,63,A,2025-02-08_17h18.45.899,EPIDM,2023.1.2,None,
7820.jpg,1121.jpg,0 Points,0 Points,23 Points,PS1_L1.csv,,,,,,,,,,,,,,,,,,,,,,,,,,,,,0,0,0,0,0,9,9,9,,,,,,,,,,,,,,,,,,,997.4442341670001,p,1.1471037920000526,998.6841354169992,,,,,,63,A,2025-02-08_17h18.45.899,EPIDM,2023.1.2,None,
7186.jpg,9182.jpg,2 Points,2 Points,25 Points,PS1_L1.csv,,,,,,,,,,,,,,,,,,,,,,,,,,,,,0,0,0,0,0,10,10,10,,,,,,,,,,,,,,,,,,,1002.9230165839999,q,2.147687582999424,1005.1477567919992,,,,,,63,A,2025-02-08_17h18.45.899,EPIDM,2023.1.2,None,
9280.jpg,9390.jpg,1 Point,1 Point,26 Points,PS1_L1.csv,,,,,,,,,,,,,,,,,,,,,,,,,,,,,0,0,0,0,0,11,11,11,,,,,,,,,,,,,,,,,,,1009.3970115009997,q,1.2266302919997543,1010.6955124590004,,,,,,63,A,2025-02-08_17h18.45.899,EPIDM,2023.1.2,None,
2440.jpg,7351.jpg,4 Points,4 Points,30 Points,PS1_L1.csv,,,,,,,,,,,,,,,,,,,,,,,,,,,,,0,0,0,0,0,12,12,12,,,,,,,,,,,,,,,,,,,1014.9398675419998,p,1.4363139159995626,1016.4473882090006,,,,,,63,A,2025-02-08_17h18.45.899,EPIDM,2023.1.2,None,
6834.jpg,9120.jpg,5 Points,5 Points,35 Points,PS1_L1.csv,,,,,,,,,,,,,,,,,,,,,,,,,,,,,0,0,0,0,0,13,13,13,,,,,,,,,,,,,,,,,,,1020.698006958999,p,1.1093812919989432,1021.875166333999,5,1.4211429159986437,,,,63,A,2025-02-08_17h18.45.899,EPIDM,2023.1.2,None,
9230.jpg,9181.jpg,0 Points,0 Points,35 Points,PS1_L1.csv,,,,,,,,,,,,,,,,,,,,,,,,,,,,,0,0,0,0,0,14,14,14,,,,,,,,,,,,,,,,,,,1027.626592834,q,2.133281291999083,1029.8144247090004,,,,,,63,A,2025-02-08_17h18.45.899,EPIDM,2023.1.2,None,
8260.jpg,8280.jpg,3 Points,3 Points,38 Points,PS1_L1.csv,,,,,,,,,,,,,,,,,,,,,,,,,,,,,0,0,0,0,0,15,15,15,,,,,,,,,,,,,,,,,,,1034.0771551670005,p,1.6731349159999809,1035.817072209,,,,,,63,A,2025-02-08_17h18.45.899,EPIDM,2023.1.2,None,
9470.jpg,9400.jpg,3 Points,3 Points,41 Points,PS1_L1.csv,,,,,,,,,,,,,,,,,,,,,,,,,,,,,0,0,0,0,0,16,16,16,,,,,,,,,,,,,,,,,,,1040.064943542,p,2.782192082999245,1042.9147684170002,,,,,,63,A,2025-02-08_17h18.45.899,EPIDM,2023.1.2,None,
2616.jpg,7238.jpg,4 Points,4 Points,45 Points,PS1_L1.csv,,,,,,,,,,,,,,,,,,,,,,,,,,,,,0,0,0,0,0,17,17,17,,,,,,,,,,,,,,,,,,,1047.1705201259992,q,2.1328673329990124,1049.368811626,,,,,,63,A,2025-02-08_17h18.45.899,EPIDM,2023.1.2,None,
9430.jpg,3010.jpg,5 Points,5 Points,50 Points,PS1_L1.csv,,,,,,,,,,,,,,,,,,,,,,,,,,,,,0,0,0,0,0,18,18,18,,,,,,,,,,,,,,,,,,,1053.6263422920001,p,2.9730301659983525,1056.6657216669992,,,,,,63,A,2025-02-08_17h18.45.899,EPIDM,2023.1.2,None,
1661.jpg,1321.jpg,3 Points,3 Points,53 Points,PS1_L1.csv,,,,,,,,,,,,,,,,,,,,,,,,,,,,,0,0,0,0,0,19,19,19,,,,,,,,,,,,,,,,,,,1060.9326900840006,p,1.1065021659997,1062.0951179589993,,,,,,63,A,2025-02-08_17h18.45.899,EPIDM,2023.1.2,None,
8041.jpg,2271.jpg,2 Points,2 Points,55 Points,PS1_L1.csv,,,,,,,,,,,,,,,,,,,,,,,,,,,,,0,0,0,0,0,20,20,20,,,,,,,,,,,,,,,,,,,1066.358796126,p,1.2553551249984594,1067.6823631259995,,,,,,63,A,2025-02-08_17h18.45.899,EPIDM,2023.1.2,None,
9180.jpg,9046.jpg,3 Points,3 Points,58 Points,PS1_L1.csv,,,,,,,,,,,,,,,,,,,,,,,,,,,,,0,0,0,0,0,21,21,21,,,,,,,,,,,,,,,,,,,1071.9333912919992,p,2.5047404580000148,1074.502702333999,,,,,,63,A,2025-02-08_17h18.45.899,EPIDM,2023.1.2,None,
2691.jpg,7640.jpg,0 Points,0 Points,58 Points,PS1_L1.csv,,,,,,,,,,,,,,,,,,,,,,,,,,,,,0,0,0,0,0,22,22,22,,,,,,,,,,,,,,,,,,,1078.759103626,q,1.135859874999369,1079.969765333999,,,,,,63,A,2025-02-08_17h18.45.899,EPIDM,2023.1.2,None,
1660.jpg,2840.jpg,2 Points,2 Points,60 Points,PS1_L1.csv,,,,,,,,,,,,,,,,,,,,,,,,,,,,,0,0,0,0,0,23,23,23,,,,,,,,,,,,,,,,,,,1084.229129542,q,0.9764806669991231,1085.2520330009993,,,1095.741742626,space,2.808416332998604,63,A,2025-02-08_17h18.45.899,EPIDM,2023.1.2,None,
9480.jpg,9250.jpg,0 Points,0 Points,60 Points,PS1_L2.csv,,,,,,,,,,,,,,,,,,,,,,,,,,,,,0,1,1,1,0,0,0,0,,,,,,,,,,,,,,,,,,,1101.8672891669994,p,1.994654415999321,1103.927343416999,,,,,,63,A,2025-02-08_17h18.45.899,EPIDM,2023.1.2,None,
9910.jpg,6940.jpg,2 Points,2 Points,62 Points,PS1_L2.csv,,,,,,,,,,,,,,,,,,,,,,,,,,,,,0,1,1,1,0,1,1,1,,,,,,,,,,,,,,,,,,,1108.1786995009988,p,1.1878062910000153,1109.4322949590005,2,1.165497874999346,,,,63,A,2025-02-08_17h18.45.899,EPIDM,2023.1.2,None,
4535.jpg,1811.jpg,1 Point,1 Point,63 Points,PS1_L2.csv,,,,,,,,,,,,,,,,,,,,,,,,,,,,,0,1,1,1,0,2,2,2,,,,,,,,,,,,,,,,,,,1114.9287928760004,q,1.636805166999693,1116.644923709,,,,,,63,A,2025-02-08_17h18.45.899,EPIDM,2023.1.2,None,
2020.jpg,1947.jpg,5 Points,5 Points,68 Points,PS1_L2.csv,,,,,,,,,,,,,,,,,,,,,,,,,,,,,0,1,1,1,0,3,3,3,,,,,,,,,,,,,,,,,,,1120.900032292,p,1.0580356249993201,1122.0303280839998,,,,,,63,A,2025-02-08_17h18.45.899,EPIDM,2023.1.2,None,
9160.jpg,1200.jpg,4 Points,4 Points,72 Points,PS1_L2.csv,,,,,,,,,,,,,,,,,,,,,,,,,,,,,0,1,1,1,0,4,4,4,,,,,,,,,,,,,,,,,,,1126.2792388340004,p,1.3586114159988938,1127.7238802089996,,,,,,63,A,2025-02-08_17h18.45.899,EPIDM,2023.1.2,None,
9520.jpg,1931.jpg,3 Points,3 Points,75 Points,PS1_L2.csv,,,,,,,,,,,,,,,,,,,,,,,,,,,,,0,1,1,1,0,5,5,5,,,,,,,,,,,,,,,,,,,1131.971177125999,q,2.8827955829983694,1134.9305874170004,,,,,,63,A,2025-02-08_17h18.45.899,EPIDM,2023.1.2,None,
7830.jpg,2499.jpg,3 Points,3 Points,78 Points,PS1_L2.csv,,,,,,,,,,,,,,,,,,,,,,,,,,,,,0,1,1,1,0,6,6,6,,,,,,,,,,,,,,,,,,,1139.1855970010001,q,1.868174082999758,1141.111061042,,,,,,63,A,2025-02-08_17h18.45.899,EPIDM,2023.1.2,None,
6830.jpg,6212.jpg,4 Points,4 Points,82 Points,PS1_L2.csv,,,,,,,,,,,,,,,,,,,,,,,,,,,,,0,1,1,1,0,7,7,7,,,,,,,,,,,,,,,,,,,1145.3624344170003,p,1.9621319159996347,1147.3924485419993,,,,,,63,A,2025-02-08_17h18.45.899,EPIDM,2023.1.2,None,
7285.jpg,4233.jpg,5 Points,5 Points,87 Points,PS1_L2.csv,,,,,,,,,,,,,,,,,,,,,,,,,,,,,0,1,1,1,0,8,8,8,,,,,,,,,,,,,,,,,,,1151.6622164170003,q,1.4474726669996016,1153.1960477089997,,,,,,63,A,2025-02-08_17h18.45.899,EPIDM,2023.1.2,None,
1740.jpg,7480.jpg,0 Points,0 Points,87 Points,PS1_L2.csv,,,,,,,,,,,,,,,,,,,,,,,,,,,,,0,1,1,1,0,9,9,9,,,,,,,,,,,,,,,,,,,1157.4378859169992,p,1.1429288329982228,1158.6591361259998,,,,,,63,A,2025-02-08_17h18.45.899,EPIDM,2023.1.2,None,
7380.jpg,1220.jpg,1 Point,1 Point,88 Points,PS1_L2.csv,,,,,,,,,,,,,,,,,,,,,,,,,,,,,0,1,1,1,0,10,10,10,,,,,,,,,,,,,,,,,,,1162.9034711259992,p,1.9567274159999215,1164.9218741259992,,,,,,63,A,2025-02-08_17h18.45.899,EPIDM,2023.1.2,None,
3061.jpg,2717.jpg,4 Points,4 Points,92 Points,PS1_L2.csv,,,,,,,,,,,,,,,,,,,,,,,,,,,,,0,1,1,1,0,11,11,11,,,,,,,,,,,,,,,,,,,1169.177844083999,p,1.851337957999931,1171.0933850419988,,,,,,63,A,2025-02-08_17h18.45.899,EPIDM,2023.1.2,None,
5460.jpg,5800.jpg,0 Points,0 Points,92 Points,PS1_L2.csv,,,,,,,,,,,,,,,,,,,,,,,,,,,,,0,1,1,1,0,12,12,12,,,,,,,,,,,,,,,,,,,1175.351566125999,q,1.5740262500003155,1176.9957233759997,,,,,,63,A,2025-02-08_17h18.45.899,EPIDM,2023.1.2,None,
2215.jpg,2512.jpg,1 Point,1 Point,93 Points,PS1_L2.csv,,,,,,,,,,,,,,,,,,,,,,,,,,,,,0,1,1,1,0,13,13,13,,,,,,,,,,,,,,,,,,,1181.2380117510002,q,2.694625291000193,1184.0132520009993,1,1.5517931239992322,,,,63,A,2025-02-08_17h18.45.899,EPIDM,2023.1.2,None,
3000.jpg,6200.jpg,5 Points,5 Points,98 Points,PS1_L2.csv,,,,,,,,,,,,,,,,,,,,,,,,,,,,,0,1,1,1,0,14,14,14,,,,,,,,,,,,,,,,,,,1189.8718892920006,p,0.5415086659995723,1190.4916055009999,,,,,,63,A,2025-02-08_17h18.45.899,EPIDM,2023.1.2,None,
1945.jpg,2800.jpg,4 Points,4 Points,102 Points,PS1_L2.csv,,,,,,,,,,,,,,,,,,,,,,,,,,,,,0,1,1,1,0,15,15,15,,,,,,,,,,,,,,,,,,,1194.7373562510002,q,1.0041967079996539,1195.8147696260003,,,,,,63,A,2025-02-08_17h18.45.899,EPIDM,2023.1.2,None,
5660.jpg,5201.jpg,0 Points,0 Points,102 Points,PS1_L2.csv,,,,,,,,,,,,,,,,,,,,,,,,,,,,,0,1,1,1,0,16,16,16,,,,,,,,,,,,,,,,,,,1200.053683917,q,1.5262281249997613,1201.6515960420002,,,,,,63,A,2025-02-08_17h18.45.899,EPIDM,2023.1.2,None,
3266.jpg,7360.jpg,1 Point,1 Point,103 Points,PS1_L2.csv,,,,,,,,,,,,,,,,,,,,,,,,,,,,,0,1,1,1,0,17,17,17,,,,,,,,,,,,,,,,,,,1205.903747376,p,2.6838488329995016,1208.6695330419989,,,,,,63,A,2025-02-08_17h18.45.899,EPIDM,2023.1.2,None,
F149.jpg,3030.jpg,0 Points,0 Points,103 Points,PS1_L2.csv,,,,,,,,,,,,,,,,,,,,,,,,,,,,,0,1,1,1,0,18,18,18,,,,,,,,,,,,,,,,,,,1212.9095483759993,q,1.071098874999734,1214.0894557089996,,,,,,63,A,2025-02-08_17h18.45.899,EPIDM,2023.1.2,None,
5410.jpg,1450.jpg,5 Points,5 Points,108 Points,PS1_L2.csv,,,,,,,,,,,,,,,,,,,,,,,,,,,,,0,1,1,1,0,19,19,19,,,,,,,,,,,,,,,,,,,1218.2972892919988,q,0.6667908740000712,1219.022479375999,,,,,,63,A,2025-02-08_17h18.45.899,EPIDM,2023.1.2,None,
9101.jpg,9571.jpg,2 Points,2 Points,110 Points,PS1_L2.csv,,,,,,,,,,,,,,,,,,,,,,,,,,,,,0,1,1,1,0,20,20,20,,,,,,,,,,,,,,,,,,,1223.276398083999,q,1.6402842499992403,1224.9904468339992,,,,,,63,A,2025-02-08_17h18.45.899,EPIDM,2023.1.2,None,
9110.jpg,3051.jpg,1 Point,1 Point,111 Points,PS1_L2.csv,,,,,,,,,,,,,,,,,,,,,,,,,,,,,0,1,1,1,0,21,21,21,,,,,,,,,,,,,,,,,,,1229.2401326670006,q,1.2598264579992247,1230.5817300010003,,,,,,63,A,2025-02-08_17h18.45.899,EPIDM,2023.1.2,None,
2100.jpg,7205.jpg,5 Points,5 Points,116 Points,PS1_L2.csv,,,,,,,,,,,,,,,,,,,,,,,,,,,,,0,1,1,1,0,22,22,22,,,,,,,,,,,,,,,,,,,1234.8302784589996,p,1.6933761660002347,1236.6023339170006,,,,,,63,A,2025-02-08_17h18.45.899,EPIDM,2023.1.2,None,
3160.jpg,6210.jpg,1 Point,1 Point,117 Points,PS1_L2.csv,,,,,,,,,,,,,,,,,,,,,,,,,,,,,0,1,1,1,0,23,23,23,,,,,,,,,,,,,,,,,,,1240.851682000999,p,0.9202367500001856,1241.8464772919997,,,1252.298284417,space,3.9372475420004776,63,A,2025-02-08_17h18.45.899,EPIDM,2023.1.2,None,
7283.jpg,1720.jpg,4 Points,4 Points,121 Points,PS1_L3.csv,,,,,,,,,,,,,,,,,,,,,,,,,,,,,0,2,2,2,0,0,0,0,,,,,,,,,,,,,,,,,,,1259.5431601259988,p,1.2844586659994093,1260.8955362510005,,,,,,63,A,2025-02-08_17h18.45.899,EPIDM,2023.1.2,None,
6571.jpg,P237.jpg,2 Points,2 Points,123 Points,PS1_L3.csv,,,,,,,,,,,,,,,,,,,,,,,,,,,,,0,2,2,2,0,1,1,1,,,,,,,,,,,,,,,,,,,1265.1360142510002,q,1.9153663739998592,1267.1618010009988,2,1.0466616239991708,,,,63,A,2025-02-08_17h18.45.899,EPIDM,2023.1.2,None,
6260.jpg,3062.jpg,3 Points,3 Points,126 Points,PS1_L3.csv,,,,,,,,,,,,,,,,,,,,,,,,,,,,,0,2,2,2,0,2,2,2,,,,,,,,,,,,,,,,,,,1272.5163252090006,q,0.5821992499986663,1273.2169002089995,,,,,,63,A,2025-02-08_17h18.45.899,EPIDM,2023.1.2,None,
6150.jpg,2206.jpg,0 Points,0 Points,126 Points,PS1_L3.csv,,,,,,,,,,,,,,,,,,,,,,,,,,,,,0,2,2,2,0,3,3,3,,,,,,,,,,,,,,,,,,,1277.4192927509994,p,0.8717647920002491,1278.3643392920003,,,,,,63,A,2025-02-08_17h18.45.899,EPIDM,2023.1.2,None,
9300.jpg,1050.jpg,4 Points,4 Points,130 Points,PS1_L3.csv,,,,,,,,,,,,,,,,,,,,,,,,,,,,,0,2,2,2,0,4,4,4,,,,,,,,,,,,,,,,,,,1282.607267416999,p,0.5635020829995483,1283.234839208999,,,,,,63,A,2025-02-08_17h18.45.899,EPIDM,2023.1.2,None,
F365.jpg,3180.jpg,5 Points,5 Points,135 Points,PS1_L3.csv,,,,,,,,,,,,,,,,,,,,,,,,,,,,,0,2,2,2,0,5,5,5,,,,,,,,,,,,,,,,,,,1287.4806329170005,p,1.1541019159994903,1288.7309470010005,,,,,,63,A,2025-02-08_17h18.45.899,EPIDM,2023.1.2,None,
2320.jpg,2791.jpg,4 Points,4 Points,139 Points,PS1_L3.csv,,,,,,,,,,,,,,,,,,,,,,,,,,,,,0,2,2,2,0,6,6,6,,,,,,,,,,,,,,,,,,,1292.945610834,q,2.505527915998755,1295.521700751,,,,,,63,A,2025-02-08_17h18.45.899,EPIDM,2023.1.2,None,
8311.jpg,4609.jpg,2 Points,2 Points,141 Points,PS1_L3.csv,,,,,,,,,,,,,,,,,,,,,,,,,,,,,0,2,2,2,0,7,7,7,,,,,,,,,,,,,,,,,,,1299.772821126,p,1.5585355829989567,1301.3924465420005,,,,,,63,A,2025-02-08_17h18.45.899,EPIDM,2023.1.2,None,
9042.jpg,2753.jpg,0 Points,0 Points,141 Points,PS1_L3.csv,,,,,,,,,,,,,,,,,,,,,,,,,,,,,0,2,2,2,0,8,8,8,,,,,,,,,,,,,,,,,,,1305.6407397509993,p,1.3302444579985604,1307.0381856669992,,,,,,63,A,2025-02-08_17h18.45.899,EPIDM,2023.1.2,None,
5471.jpg,7352.jpg,2 Points,2 Points,143 Points,PS1_L3.csv,,,,,,,,,,,,,,,,,,,,,,,,,,,,,0,2,2,2,0,9,9,9,,,,,,,,,,,,,,,,,,,1311.2958727919995,q,1.0900911249991623,1312.4505161260004,,,,,,63,A,2025-02-08_17h18.45.899,EPIDM,2023.1.2,None,
P222.jpg,9401.jpg,2 Points,2 Points,145 Points,PS1_L3.csv,,,,,,,,,,,,,,,,,,,,,,,,,,,,,0,2,2,2,0,10,10,10,,,,,,,,,,,,,,,,,,,1316.7094522919997,p,1.1655952080000134,1317.9802105010003,,,,,,63,A,2025-02-08_17h18.45.899,EPIDM,2023.1.2,None,
1610.jpg,F203.jpg,0 Points,0 Points,145 Points,PS1_L3.csv,,,,,,,,,,,,,,,,,,,,,,,,,,,,,0,2,2,2,0,11,11,11,,,,,,,,,,,,,,,,,,,1322.198661376,q,0.8187351670003409,1323.135971959,,,,,,63,A,2025-02-08_17h18.45.899,EPIDM,2023.1.2,None,
9405.jpg,6250.2.jpg,3 Points,3 Points,148 Points,PS1_L3.csv,,,,,,,,,,,,,,,,,,,,,,,,,,,,,0,2,2,2,0,12,12,12,,,,,,,,,,,,,,,,,,,1327.3450880420005,p,1.2257348750008532,1328.648242166999,,,,,,63,A,2025-02-08_17h18.45.899,EPIDM,2023.1.2,None,
1090.jpg,P217.jpg,5 Points,5 Points,153 Points,PS1_L3.csv,,,,,,,,,,,,,,,,,,,,,,,,,,,,,0,2,2,2,0,13,13,13,,,,,,,,,,,,,,,,,,,1332.8914963759998,q,1.2478080829987448,1334.243196042,5,1.25018020799871,,,,63,A,2025-02-08_17h18.45.899,EPIDM,2023.1.2,None,
P233.jpg,3060.jpg,1 Point,1 Point,154 Points,PS1_L3.csv,,,,,,,,,,,,,,,,,,,,,,,,,,,,,0,2,2,2,0,14,14,14,,,,,,,,,,,,,,,,,,,1339.798275792,q,1.1794443329981732,1341.118592584,,,,,,63,A,2025-02-08_17h18.45.899,EPIDM,2023.1.2,None,
8040.jpg,7185.jpg,1 Point,1 Point,155 Points,PS1_L3.csv,,,,,,,,,,,,,,,,,,,,,,,,,,,,,0,2,2,2,0,15,15,15,,,,,,,,,,,,,,,,,,,1345.291524917,p,1.3982087910007976,1346.800322666999,,,,,,63,A,2025-02-08_17h18.45.899,EPIDM,2023.1.2,None,
6550.jpg,9582.jpg,5 Points,5 Points,160 Points,PS1_L3.csv,,,,,,,,,,,,,,,,,,,,,,,,,,,,,0,2,2,2,0,16,16,16,,,,,,,,,,,,,,,,,,,1351.0150975420001,p,1.3389919159999408,1352.4211812089998,,,,,,63,A,2025-02-08_17h18.45.899,EPIDM,2023.1.2,None,
P077.jpg,A041.jpg,1 Point,1 Point,161 Points,PS1_L3.csv,,,,,,,,,,,,,,,,,,,,,,,,,,,,,0,2,2,2,0,17,17,17,,,,,,,,,,,,,,,,,,,1356.6649441259997,q,1.3213902909992612,1358.129173416999,,,,,,63,A,2025-02-08_17h18.45.899,EPIDM,2023.1.2,None,
4770.jpg,4275.jpg,3 Points,3 Points,164 Points,PS1_L3.csv,,,,,,,,,,,,,,,,,,,,,,,,,,,,,0,2,2,2,0,18,18,18,,,,,,,,,,,,,,,,,,,1362.318382001,q,2.0501036240002577,1364.4849175420004,,,,,,63,A,2025-02-08_17h18.45.899,EPIDM,2023.1.2,None,
9594.jpg,1080.jpg,4 Points,4 Points,168 Points,PS1_L3.csv,,,,,,,,,,,,,,,,,,,,,,,,,,,,,0,2,2,2,0,19,19,19,,,,,,,,,,,,,,,,,,,1368.6843437509997,p,1.1568776249987422,1369.9243545419995,,,,,,63,A,2025-02-08_17h18.45.899,EPIDM,2023.1.2,None,
2606.jpg,2480.jpg,1 Point,1 Point,169 Points,PS1_L3.csv,,,,,,,,,,,,,,,,,,,,,,,,,,,,,0,2,2,2,0,20,20,20,,,,,,,,,,,,,,,,,,,1374.157540541999,q,1.78139012399879,1376.013481083999,,,,,,63,A,2025-02-08_17h18.45.899,EPIDM,2023.1.2,None,
1052.jpg,1201.jpg,3 Points,3 Points,172 Points,PS1_L3.csv,,,,,,,,,,,,,,,,,,,,,,,,,,,,,0,2,2,2,0,21,21,21,,,,,,,,,,,,,,,,,,,1380.2685125839998,p,0.9248245409999072,1381.2659033340005,,,,,,63,A,2025-02-08_17h18.45.899,EPIDM,2023.1.2,None,
F369.jpg,3100.jpg,2 Points,2 Points,174 Points,PS1_L3.csv,,,,,,,,,,,,,,,,,,,,,,,,,,,,,0,2,2,2,0,22,22,22,,,,,,,,,,,,,,,,,,,1385.5197654169988,q,1.3290209999995568,1386.9458047089993,,,,,,63,A,2025-02-08_17h18.45.899,EPIDM,2023.1.2,None,
2620.jpg,2594.jpg,0 Points,0 Points,174 Points,PS1_L3.csv,,,,,,,,,,,,,,,,,,,,,,,,,,,,,0,2,2,2,0,23,23,23,,,,,,,,,,,,,,,,,,,1391.1744546669997,q,0.739238165999268,1391.9767150419993,,,1402.457676791999,space,10.05538812499799,63,A,2025-02-08_17h18.45.899,EPIDM,2023.1.2,None,
P019.jpg,F158.jpg,3 Points,3 Points,177 Points,PS1_L4.csv,,,,,,,,,,,,,,,,,,,,,,,,,,,,,0,3,3,3,0,0,0,0,,,,,,,,,,,,,,,,,,,1415.8243253339988,p,1.15233624999928,1417.120171000999,,,,,,63,A,2025-02-08_17h18.45.899,EPIDM,2023.1.2,None,
7620.jpg,5395.jpg,1 Point,1 Point,178 Points,PS1_L4.csv,,,,,,,,,,,,,,,,,,,,,,,,,,,,,0,3,3,3,0,1,1,1,,,,,,,,,,,,,,,,,,,1421.3100749589994,p,1.9378077920009673,1423.3507637089988,1,1.075235457998133,,,,63,A,2025-02-08_17h18.45.899,EPIDM,2023.1.2,None,
5970.jpg,3300.jpg,0 Points,0 Points,178 Points,PS1_L4.csv,,,,,,,,,,,,,,,,,,,,,,,,,,,,,0,3,3,3,0,2,2,2,,,,,,,,,,,,,,,,,,,1428.698843876,q,0.5083968329981872,1429.2757169590004,,,,,,63,A,2025-02-08_17h18.45.899,EPIDM,2023.1.2,None,
5120.jpg,5520.jpg,2 Points,2 Points,180 Points,PS1_L4.csv,,,,,,,,,,,,,,,,,,,,,,,,,,,,,0,3,3,3,0,3,3,3,,,,,,,,,,,,,,,,,,,1433.521641251,p,1.0697943749983096,1434.670436250999,,,,,,63,A,2025-02-08_17h18.45.899,EPIDM,2023.1.2,None,
9452.jpg,7184.jpg,4 Points,4 Points,184 Points,PS1_L4.csv,,,,,,,,,,,,,,,,,,,,,,,,,,,,,0,3,3,3,0,4,4,4,,,,,,,,,,,,,,,,,,,1438.912844000999,q,1.8154844999990019,1440.8027633339989,,,,,,63,A,2025-02-08_17h18.45.899,EPIDM,2023.1.2,None,
6570.1.jpg,9432.jpg,5 Points,5 Points,189 Points,PS1_L4.csv,,,,,,,,,,,,,,,,,,,,,,,,,,,,,0,3,3,3,0,5,5,5,,,,,,,,,,,,,,,,,,,1445.051949834,p,1.2852593329989759,1446.3983552089994,,,,,,63,A,2025-02-08_17h18.45.899,EPIDM,2023.1.2,None,
2389.jpg,7320.jpg,0 Points,0 Points,189 Points,PS1_L4.csv,,,,,,,,,,,,,,,,,,,,,,,,,,,,,0,3,3,3,0,6,6,6,,,,,,,,,,,,,,,,,,,1450.6565507510004,q,1.375658791997921,1452.1092989589997,,,,,,63,A,2025-02-08_17h18.45.899,EPIDM,2023.1.2,None,
9330.jpg,3015.jpg,5 Points,5 Points,194 Points,PS1_L4.csv,,,,,,,,,,,,,,,,,,,,,,,,,,,,,0,3,3,3,0,7,7,7,,,,,,,,,,,,,,,,,,,1456.3595677510002,q,2.4564324999992095,1458.8915176259998,,,,,,63,A,2025-02-08_17h18.45.899,EPIDM,2023.1.2,None,
9560.jpg,3071.jpg,1 Point,1 Point,195 Points,PS1_L4.csv,,,,,,,,,,,,,,,,,,,,,,,,,,,,,0,3,3,3,0,8,8,8,,,,,,,,,,,,,,,,,,,1463.142392583999,q,0.8963907489996927,1464.1075334590005,,,,,,63,A,2025-02-08_17h18.45.899,EPIDM,2023.1.2,None,
5994.jpg,5390.jpg,0 Points,0 Points,195 Points,PS1_L4.csv,,,,,,,,,,,,,,,,,,,,,,,,,,,,,0,3,3,3,0,9,9,9,,,,,,,,,,,,,,,,,,,1468.3722790009997,p,1.027143833000082,1469.4602281669995,,,,,,63,A,2025-02-08_17h18.45.899,EPIDM,2023.1.2,None,
2692.jpg,8231.jpg,4 Points,4 Points,199 Points,PS1_L4.csv,,,,,,,,,,,,,,,,,,,,,,,,,,,,,0,3,3,3,0,10,10,10,,,,,,,,,,,,,,,,,,,1473.7131802509994,q,1.2064840410002944,1474.9856249589993,,,,,,63,A,2025-02-08_17h18.45.899,EPIDM,2023.1.2,None,
F174.jpg,9404.jpg,5 Points,5 Points,204 Points,PS1_L4.csv,,,,,,,,,,,,,,,,,,,,,,,,,,,,,0,3,3,3,0,11,11,11,,,,,,,,,,,,,,,,,,,1479.2475132090003,p,1.2892114999995101,1480.6461874590004,,,,,,63,A,2025-02-08_17h18.45.899,EPIDM,2023.1.2,None,
8010.jpg,2630.jpg,0 Points,0 Points,204 Points,PS1_L4.csv,,,,,,,,,,,,,,,,,,,,,,,,,,,,,0,3,3,3,0,12,12,12,,,,,,,,,,,,,,,,,,,1484.8628643760003,q,1.0797394170003827,1486.018115584,,,,,,63,A,2025-02-08_17h18.45.899,EPIDM,2023.1.2,None,
7175.jpg,7490.jpg,2 Points,2 Points,206 Points,PS1_L4.csv,,,,,,,,,,,,,,,,,,,,,,,,,,,,,0,3,3,3,0,13,13,13,,,,,,,,,,,,,,,,,,,1490.2716514169988,p,0.903522749998956,1491.2557260419999,2,0.9089212499984569,,,,63,A,2025-02-08_17h18.45.899,EPIDM,2023.1.2,None,
6561.jpg,1525.jpg,2 Points,2 Points,208 Points,PS1_L4.csv,,,,,,,,,,,,,,,,,,,,,,,,,,,,,0,3,3,3,0,14,14,14,,,,,,,,,,,,,,,,,,,1496.488333625999,p,1.6537758750000648,1498.2148001259993,,,,,,63,A,2025-02-08_17h18.45.899,EPIDM,2023.1.2,None,
9070.jpg,9420.jpg,2 Points,2 Points,210 Points,PS1_L4.csv,,,,,,,,,,,,,,,,,,,,,,,,,,,,,0,3,3,3,0,15,15,15,,,,,,,,,,,,,,,,,,,1502.4628872089997,p,1.2476189579992933,1503.7835129169998,,,,,,63,A,2025-02-08_17h18.45.899,EPIDM,2023.1.2,None,
2516.jpg,8500.jpg,4 Points,4 Points,214 Points,PS1_L4.csv,,,,,,,,,,,,,,,,,,,,,,,,,,,,,0,3,3,3,0,16,16,16,,,,,,,,,,,,,,,,,,,1508.045381459,p,0.8653464989984059,1508.9840262090001,,,,,,63,A,2025-02-08_17h18.45.899,EPIDM,2023.1.2,None,
9140.jpg,2810.jpg,3 Points,3 Points,217 Points,PS1_L4.csv,,,,,,,,,,,,,,,,,,,,,,,,,,,,,0,3,3,3,0,17,17,17,,,,,,,,,,,,,,,,,,,1513.2285646259988,q,2.2572573329998704,1515.5527872089988,,,,,,63,A,2025-02-08_17h18.45.899,EPIDM,2023.1.2,None,
7220.jpg,8090.jpg,2 Points,2 Points,219 Points,PS1_L4.csv,,,,,,,,,,,,,,,,,,,,,,,,,,,,,0,3,3,3,0,18,18,18,,,,,,,,,,,,,,,,,,,1519.8080633339996,q,1.2943516249979439,1521.172867542,,,,,,63,A,2025-02-08_17h18.45.899,EPIDM,2023.1.2,None,
2661.jpg,2870.jpg,5 Points,5 Points,224 Points,PS1_L4.csv,,,,,,,,,,,,,,,,,,,,,,,,,,,,,0,3,3,3,0,19,19,19,,,,,,,,,,,,,,,,,,,1525.4249966259995,p,1.9415340409996134,1527.4357474169992,,,,,,63,A,2025-02-08_17h18.45.899,EPIDM,2023.1.2,None,
6010.jpg,7361.jpg,2 Points,2 Points,226 Points,PS1_L4.csv,,,,,,,,,,,,,,,,,,,,,,,,,,,,,0,3,3,3,0,20,20,20,,,,,,,,,,,,,,,,,,,1531.6972971670002,p,1.3565316240001266,1533.128523501,,,,,,63,A,2025-02-08_17h18.45.899,EPIDM,2023.1.2,None,
7289.jpg,4534.jpg,0 Points,0 Points,226 Points,PS1_L4.csv,,,,,,,,,,,,,,,,,,,,,,,,,,,,,0,3,3,3,0,21,21,21,,,,,,,,,,,,,,,,,,,1537.3805950839997,p,0.8896431659995869,1538.3540700419999,,,,,,63,A,2025-02-08_17h18.45.899,EPIDM,2023.1.2,None,
1310.jpg,3181.jpg,4 Points,4 Points,230 Points,PS1_L4.csv,,,,,,,,,,,,,,,,,,,,,,,,,,,,,0,3,3,3,0,22,22,22,,,,,,,,,,,,,,,,,,,1542.5946059590005,q,0.9636036659994716,1543.6246029590002,,,,,,63,A,2025-02-08_17h18.45.899,EPIDM,2023.1.2,None,
2383.jpg,1616.jpg,2 Points,2 Points,232 Points,PS1_L4.csv,,,,,,,,,,,,,,,,,,,,,,,,,,,,,0,3,3,3,0,23,23,23,,,,,,,,,,,,,,,,,,,1547.8742892089995,p,1.4355272499997227,1549.3776412089992,,,1559.8493624170005,space,3.707052248999389,63,A,2025-02-08_17h18.45.899,EPIDM,2023.1.2,None,
4510.jpg,2230.jpg,5 Points,5 Points,237 Points,PS1_L5.csv,,,,,,,,,,,,,,,,,,,,,,,,,,,,,0,4,4,4,0,0,0,0,,,,,,,,,,,,,,,,,,,1566.8799261669992,q,1.4930305420002696,1568.452530000999,,,,,,63,A,2025-02-08_17h18.45.899,EPIDM,2023.1.2,None,
A025.jpg,1051.jpg,0 Points,0 Points,237 Points,PS1_L5.csv,,,,,,,,,,,,,,,,,,,,,,,,,,,,,0,4,4,4,0,1,1,1,,,,,,,,,,,,,,,,,,,1572.6965526669992,p,1.972295582998413,1574.7909599590002,0,1.1101973749991885,,,,63,A,2025-02-08_17h18.45.899,EPIDM,2023.1.2,None,
7002.jpg,4660.jpg,4 Points,4 Points,241 Points,PS1_L5.csv,,,,,,,,,,,,,,,,,,,,,,,,,,,,,0,4,4,4,0,2,2,2,,,,,,,,,,,,,,,,,,,1580.2101505419996,p,0.5457700829992973,1580.8794026260002,,,,,,63,A,2025-02-08_17h18.45.899,EPIDM,2023.1.2,None,
2900.jpg,1101.jpg,3 Points,3 Points,244 Points,PS1_L5.csv,,,,,,,,,,,,,,,,,,,,,,,,,,,,,0,4,4,4,0,3,3,3,,,,,,,,,,,,,,,,,,,1585.0737475839996,p,1.7945966240004054,1586.9507815839988,,,,,,63,A,2025-02-08_17h18.45.899,EPIDM,2023.1.2,None,
2485.jpg,7350.jpg,0 Points,0 Points,244 Points,PS1_L5.csv,,,,,,,,,,,,,,,,,,,,,,,,,,,,,0,4,4,4,0,4,4,4,,,,,,,,,,,,,,,,,,,1591.2033127920004,p,1.665313123998203,1592.9476593759991,,,,,,63,A,2025-02-08_17h18.45.899,EPIDM,2023.1.2,None,
6242.jpg,F034.jpg,4 Points,4 Points,248 Points,PS1_L5.csv,,,,,,,,,,,,,,,,,,,,,,,,,,,,,0,4,4,4,0,5,5,5,,,,,,,,,,,,,,,,,,,1597.195992084,p,1.3285799169989332,1598.640261958999,,,,,,63,A,2025-02-08_17h18.45.899,EPIDM,2023.1.2,None,
3170.jpg,6560.jpg,2 Points,2 Points,250 Points,PS1_L5.csv,,,,,,,,,,,,,,,,,,,,,,,,,,,,,0,4,4,4,0,6,6,6,,,,,,,,,,,,,,,,,,,1602.8533272919994,q,1.7501099999990402,1604.709439667,,,,,,63,A,2025-02-08_17h18.45.899,EPIDM,2023.1.2,None,
8033.jpg,7270.jpg,3 Points,3 Points,253 Points,PS1_L5.csv,,,,,,,,,,,,,,,,,,,,,,,,,,,,,0,4,4,4,0,7,7,7,,,,,,,,,,,,,,,,,,,1608.9191957919993,p,1.26895308299936,1610.252261001,,,,,,63,A,2025-02-08_17h18.45.899,EPIDM,2023.1.2,None,
2597.jpg,5870.jpg,5 Points,5 Points,258 Points,PS1_L5.csv,,,,,,,,,,,,,,,,,,,,,,,,,,,,,0,4,4,4,0,8,8,8,,,,,,,,,,,,,,,,,,,1614.5061456669991,q,1.257289832999959,1615.8369892089995,,,,,,63,A,2025-02-08_17h18.45.899,EPIDM,2023.1.2,None,
6312.jpg,3230.jpg,2 Points,2 Points,260 Points,PS1_L5.csv,,,,,,,,,,,,,,,,,,,,,,,,,,,,,0,4,4,4,0,9,9,9,,,,,,,,,,,,,,,,,,,1620.0894779169994,q,1.0444346249987575,1621.204253083999,,,,,,63,A,2025-02-08_17h18.45.899,EPIDM,2023.1.2,None,
3130.jpg,3500.jpg,4 Points,4 Points,264 Points,PS1_L5.csv,,,,,,,,,,,,,,,,,,,,,,,,,,,,,0,4,4,4,0,10,10,10,,,,,,,,,,,,,,,,,,,1625.448885333999,p,1.4507637080005225,1626.9766557089988,,,,,,63,A,2025-02-08_17h18.45.899,EPIDM,2023.1.2,None,
2749.jpg,7282.jpg,3 Points,3 Points,267 Points,PS1_L5.csv,,,,,,,,,,,,,,,,,,,,,,,,,,,,,0,4,4,4,0,11,11,11,,,,,,,,,,,,,,,,,,,1631.2151501669996,p,1.3176463750005496,1632.6137884170003,,,,,,63,A,2025-02-08_17h18.45.899,EPIDM,2023.1.2,None,
5300.jpg,2372.jpg,1 Point,1 Point,268 Points,PS1_L5.csv,,,,,,,,,,,,,,,,,,,,,,,,,,,,,0,4,4,4,0,12,12,12,,,,,,,,,,,,,,,,,,,1636.8592000419994,q,0.536199582998961,1637.4645430420005,,,,,,63,A,2025-02-08_17h18.45.899,EPIDM,2023.1.2,None,
6510.jpg,A074.jpg,2 Points,2 Points,270 Points,PS1_L5.csv,,,,,,,,,,,,,,,,,,,,,,,,,,,,,0,4,4,4,0,13,13,13,,,,,,,,,,,,,,,,,,,1641.7182882920006,p,1.405231291999371,1643.2381194169993,2,1.305788957999539,,,,63,A,2025-02-08_17h18.45.899,EPIDM,2023.1.2,None,
2260.jpg,2830.jpg,5 Points,5 Points,275 Points,PS1_L5.csv,,,,,,,,,,,,,,,,,,,,,,,,,,,,,0,4,4,4,0,14,14,14,,,,,,,,,,,,,,,,,,,1648.8613657509995,p,0.4554365409985621,1649.3871325010005,,,,,,63,A,2025-02-08_17h18.45.899,EPIDM,2023.1.2,None,
2710.jpg,9252.jpg,1 Point,1 Point,276 Points,PS1_L5.csv,,,,,,,,,,,,,,,,,,,,,,,,,,,,,0,4,4,4,0,15,15,15,,,,,,,,,,,,,,,,,,,1653.6319451669988,p,2.8747183329996915,1656.5770262919996,,,,,,63,A,2025-02-08_17h18.45.899,EPIDM,2023.1.2,None,
3064.jpg,3168.jpg,4 Points,4 Points,280 Points,PS1_L5.csv,,,,,,,,,,,,,,,,,,,,,,,,,,,,,0,4,4,4,0,16,16,16,,,,,,,,,,,,,,,,,,,1660.8252607089998,p,0.8907997080004861,1661.7777665009999,,,,,,63,A,2025-02-08_17h18.45.899,EPIDM,2023.1.2,None,
1640.jpg,5531.jpg,3 Points,3 Points,283 Points,PS1_L5.csv,,,,,,,,,,,,,,,,,,,,,,,,,,,,,0,4,4,4,0,17,17,17,,,,,,,,,,,,,,,,,,,1666.0343020420005,q,0.8650101249986619,1666.9810267920002,,,,,,63,A,2025-02-08_17h18.45.899,EPIDM,2023.1.2,None,
3530.jpg,6213.jpg,1 Point,1 Point,284 Points,PS1_L5.csv,,,,,,,,,,,,,,,,,,,,,,,,,,,,,0,4,4,4,0,18,18,18,,,,,,,,,,,,,,,,,,,1671.2216322509994,p,1.1811296670002775,1672.482914291999,,,,,,63,A,2025-02-08_17h18.45.899,EPIDM,2023.1.2,None,
9090.jpg,7580.jpg,3 Points,3 Points,287 Points,PS1_L5.csv,,,,,,,,,,,,,,,,,,,,,,,,,,,,,0,4,4,4,0,19,19,19,,,,,,,,,,,,,,,,,,,1676.7346554169999,p,1.212004707998858,1678.0249240419998,,,,,,63,A,2025-02-08_17h18.45.899,EPIDM,2023.1.2,None,
8230.jpg,2682.jpg,5 Points,5 Points,292 Points,PS1_L5.csv,,,,,,,,,,,,,,,,,,,,,,,,,,,,,0,4,4,4,0,20,20,20,,,,,,,,,,,,,,,,,,,1682.276523167,p,1.0467662079990987,1683.4001389589994,,,,,,63,A,2025-02-08_17h18.45.899,EPIDM,2023.1.2,None,
9592.jpg,1300.jpg,2 Points,2 Points,294 Points,PS1_L5.csv,,,,,,,,,,,,,,,,,,,,,,,,,,,,,0,4,4,4,0,21,21,21,,,,,,,,,,,,,,,,,,,1687.6549956260005,q,0.8105584579989227,1688.5310855839998,,,,,,63,A,2025-02-08_17h18.45.899,EPIDM,2023.1.2,None,
2490.jpg,2590.jpg,4 Points,4 Points,298 Points,PS1_L5.csv,,,,,,,,,,,,,,,,,,,,,,,,,,,,,0,4,4,4,0,22,22,22,,,,,,,,,,,,,,,,,,,1692.7770838340002,p,1.7602697499987698,1694.611377375999,,,,,,63,A,2025-02-08_17h18.45.899,EPIDM,2023.1.2,None,
2190.jpg,7503.jpg,2 Points,2 Points,300 Points,PS1_L5.csv,,,,,,,,,,,,,,,,,,,,,,,,,,,,,0,4,4,4,0,23,23,23,,,,,,,,,,,,,,,,,,,1698.8634762509992,q,0.9145464579978579,1699.8553428760006,,,1710.347423666999,space,2.90261158300018,63,A,2025-02-08_17h18.45.899,EPIDM,2023.1.2,None,
1930.jpg,9008.jpg,1 Point,1 Point,301 Points,PS1_L6.csv,,,,,,,,,,,,,,,,,,,,,,,,,,,,,0,5,5,5,0,0,0,0,,,,,,,,,,,,,,,,,,,1716.567028292,q,1.3537801659986144,1717.9986007919997,,,,,,63,A,2025-02-08_17h18.45.899,EPIDM,2023.1.2,None,
4613.jpg,2720.jpg,4 Points,4 Points,305 Points,PS1_L6.csv,,,,,,,,,,,,,,,,,,,,,,,,,,,,,0,5,5,5,0,1,1,1,,,,,,,,,,,,,,,,,,,1722.2405110010004,q,1.0254952079994837,1723.3399811260006,4,1.6840703329980897,,,,63,A,2025-02-08_17h18.45.899,EPIDM,2023.1.2,None,
3280.jpg,9270.jpg,0 Points,0 Points,305 Points,PS1_L6.csv,,,,,,,,,,,,,,,,,,,,,,,,,,,,,0,5,5,5,0,2,2,2,,,,,,,,,,,,,,,,,,,1729.349781584,p,3.195749998998508,1732.6090353340005,,,,,,63,A,2025-02-08_17h18.45.899,EPIDM,2023.1.2,None,
6800.jpg,9190.jpg,0 Points,0 Points,305 Points,PS1_L6.csv,,,,,,,,,,,,,,,,,,,,,,,,,,,,,0,5,5,5,0,3,3,3,,,,,,,,,,,,,,,,,,,1736.858544708999,q,0.91855566599952,1737.842197209,,,,,,63,A,2025-02-08_17h18.45.899,EPIDM,2023.1.2,None,
5600.jpg,9080.jpg,5 Points,5 Points,310 Points,PS1_L6.csv,,,,,,,,,,,,,,,,,,,,,,,,,,,,,0,5,5,5,0,4,4,4,,,,,,,,,,,,,,,,,,,1742.0931892089993,q,0.38791495799887343,1742.5585262509994,,,,,,63,A,2025-02-08_17h18.45.899,EPIDM,2023.1.2,None,
P211.jpg,9041.jpg,4 Points,4 Points,314 Points,PS1_L6.csv,,,,,,,,,,,,,,,,,,,,,,,,,,,,,0,5,5,5,0,5,5,5,,,,,,,,,,,,,,,,,,,1746.8021719169992,p,0.4710592079991329,1747.3775622510002,,,,,,63,A,2025-02-08_17h18.45.899,EPIDM,2023.1.2,None,
5200.jpg,5020.jpg,0 Points,0 Points,314 Points,PS1_L6.csv,,,,,,,,,,,,,,,,,,,,,,,,,,,,,0,5,5,5,0,6,6,6,,,,,,,,,,,,,,,,,,,1751.583387834,p,1.2974046249983076,1752.9854527509997,,,,,,63,A,2025-02-08_17h18.45.899,EPIDM,2023.1.2,None,
1850.jpg,5623.jpg,5 Points,5 Points,319 Points,PS1_L6.csv,,,,,,,,,,,,,,,,,,,,,,,,,,,,,0,5,5,5,0,7,7,7,,,,,,,,,,,,,,,,,,,1757.1965965420004,q,0.3638715829983994,1757.6346655420002,,,,,,63,A,2025-02-08_17h18.45.899,EPIDM,2023.1.2,None,
9440.jpg,6350.jpg,4 Points,4 Points,323 Points,PS1_L6.csv,,,,,,,,,,,,,,,,,,,,,,,,,,,,,0,5,5,5,0,8,8,8,,,,,,,,,,,,,,,,,,,1761.8903198339995,p,0.7422876239998004,1762.690303251,,,,,,63,A,2025-02-08_17h18.45.899,EPIDM,2023.1.2,None,
5990.jpg,5780.jpg,3 Points,3 Points,326 Points,PS1_L6.csv,,,,,,,,,,,,,,,,,,,,,,,,,,,,,0,5,5,5,0,9,9,9,,,,,,,,,,,,,,,,,,,1766.952763625999,q,0.5514249579991883,1767.5793741260004,,,,,,63,A,2025-02-08_17h18.45.899,EPIDM,2023.1.2,None,
6244.jpg,9265.jpg,0 Points,0 Points,326 Points,PS1_L6.csv,,,,,,,,,,,,,,,,,,,,,,,,,,,,,0,5,5,5,0,10,10,10,,,,,,,,,,,,,,,,,,,1771.8254223759996,q,1.0548244999990857,1772.940308416999,,,,,,63,A,2025-02-08_17h18.45.899,EPIDM,2023.1.2,None,
5000.jpg,8180.jpg,4 Points,4 Points,330 Points,PS1_L6.csv,,,,,,,,,,,,,,,,,,,,,,,,,,,,,0,5,5,5,0,11,11,11,,,,,,,,,,,,,,,,,,,1777.1957604589988,p,0.6609608329981711,1777.9306778339997,,,,,,63,A,2025-02-08_17h18.45.899,EPIDM,2023.1.2,None,
5982.jpg,5260.jpg,5 Points,5 Points,335 Points,PS1_L6.csv,,,,,,,,,,,,,,,,,,,,,,,,,,,,,0,5,5,5,0,12,12,12,,,,,,,,,,,,,,,,,,,1782.1748497089993,p,0.39241683299951546,1782.6505004589999,,,,,,63,A,2025-02-08_17h18.45.899,EPIDM,2023.1.2,None,
1301.jpg,1070.jpg,2 Points,2 Points,337 Points,PS1_L6.csv,,,,,,,,,,,,,,,,,,,,,,,,,,,,,0,5,5,5,0,13,13,13,,,,,,,,,,,,,,,,,,,1786.8921911260004,p,0.6685307909992844,1787.6386182509996,2,1.0786000409989356,,,,63,A,2025-02-08_17h18.45.899,EPIDM,2023.1.2,None,
7920.jpg,9102.jpg,3 Points,3 Points,340 Points,PS1_L6.csv,,,,,,,,,,,,,,,,,,,,,,,,,,,,,0,5,5,5,0,14,14,14,,,,,,,,,,,,,,,,,,,1793.0283436669997,p,1.6600658330007718,1794.7617984169992,,,,,,63,A,2025-02-08_17h18.45.899,EPIDM,2023.1.2,None,
5455.jpg,5220.jpg,0 Points,0 Points,340 Points,PS1_L6.csv,,,,,,,,,,,,,,,,,,,,,,,,,,,,,0,5,5,5,0,15,15,15,,,,,,,,,,,,,,,,,,,1799.001606583999,q,0.5902227919996221,1799.6575660010003,,,,,,63,A,2025-02-08_17h18.45.899,EPIDM,2023.1.2,None,
3350.jpg,3210.jpg,1 Point,1 Point,341 Points,PS1_L6.csv,,,,,,,,,,,,,,,,,,,,,,,,,,,,,0,5,5,5,0,16,16,16,,,,,,,,,,,,,,,,,,,1803.908780709,p,0.4202727499996399,1804.3922477920005,,,,,,63,A,2025-02-08_17h18.45.899,EPIDM,2023.1.2,None,
2560.jpg,5270.jpg,4 Points,4 Points,345 Points,PS1_L6.csv,,,,,,,,,,,,,,,,,,,,,,,,,,,,,0,5,5,5,0,17,17,17,,,,,,,,,,,,,,,,,,,1808.6571467089998,q,0.4785900409988244,1809.202503041999,,,,,,63,A,2025-02-08_17h18.45.899,EPIDM,2023.1.2,None,
9584.jpg,3400.jpg,2 Points,2 Points,347 Points,PS1_L6.csv,,,,,,,,,,,,,,,,,,,,,,,,,,,,,0,5,5,5,0,18,18,18,,,,,,,,,,,,,,,,,,,1813.4550139589992,q,0.8005181659991649,1814.3281300010003,,,,,,63,A,2025-02-08_17h18.45.899,EPIDM,2023.1.2,None,
5760.jpg,1602.jpg,1 Point,1 Point,348 Points,PS1_L6.csv,,,,,,,,,,,,,,,,,,,,,,,,,,,,,0,5,5,5,0,19,19,19,,,,,,,,,,,,,,,,,,,1818.577712541999,q,0.9102015829994343,1819.5478645839994,,,,,,63,A,2025-02-08_17h18.45.899,EPIDM,2023.1.2,None,
7230.jpg,7570.jpg,5 Points,5 Points,353 Points,PS1_L6.csv,,,,,,,,,,,,,,,,,,,,,,,,,,,,,0,5,5,5,0,20,20,20,,,,,,,,,,,,,,,,,,,1823.804785626,p,1.1705648329989344,1825.0460736259993,,,,,,63,A,2025-02-08_17h18.45.899,EPIDM,2023.1.2,None,
1022.jpg,6930.jpg,1 Point,1 Point,354 Points,PS1_L6.csv,,,,,,,,,,,,,,,,,,,,,,,,,,,,,0,5,5,5,0,21,21,21,,,,,,,,,,,,,,,,,,,1829.294047501,p,0.6355287919996044,1829.9993756669992,,,,,,63,A,2025-02-08_17h18.45.899,EPIDM,2023.1.2,None,
8340.jpg,7546.jpg,2 Points,2 Points,356 Points,PS1_L6.csv,,,,,,,,,,,,,,,,,,,,,,,,,,,,,0,5,5,5,0,22,22,22,,,,,,,,,,,,,,,,,,,1834.237685876,q,1.025467583000136,1835.328102125999,,,,,,63,A,2025-02-08_17h18.45.899,EPIDM,2023.1.2,None,
6243.jpg,2752.jpg,2 Points,2 Points,358 Points,PS1_L6.csv,,,,,,,,,,,,,,,,,,,,,,,,,,,,,0,5,5,5,0,23,23,23,,,,,,,,,,,,,,,,,,,1839.5741572919997,q,0.5285724160003156,1840.169489333999,,,1850.657968125999,space,3.699541498999679,63,A,2025-02-08_17h18.45.899,EPIDM,2023.1.2,None,
7280.jpg,7160.jpg,0 Points,0 Points,358 Points,PS1_L7.csv,,,,,,,,,,,,,,,,,,,,,,,,,,,,,0,6,6,6,0,0,0,0,,,,,,,,,,,,,,,,,,,1857.6774606670006,q,1.1208144169995649,1858.8764705419999,,,,,,63,A,2025-02-08_17h18.45.899,EPIDM,2023.1.2,None,
2580.jpg,8300.jpg,3 Points,3 Points,361 Points,PS1_L7.csv,,,,,,,,,,,,,,,,,,,,,,,,,,,,,0,6,6,6,0,1,1,1,,,,,,,,,,,,,,,,,,,1863.1084920419999,p,1.0188027499989403,1864.1988756259998,3,0.8842654170002788,,,,63,A,2025-02-08_17h18.45.899,EPIDM,2023.1.2,None,
5972.jpg,6838.jpg,5 Points,5 Points,366 Points,PS1_L7.csv,,,,,,,,,,,,,,,,,,,,,,,,,,,,,0,6,6,6,0,2,2,2,,,,,,,,,,,,,,,,,,,1869.4002927509991,p,0.5179834999980812,1869.985978958999,,,,,,63,A,2025-02-08_17h18.45.899,EPIDM,2023.1.2,None,
5621.jpg,5534.jpg,3 Points,3 Points,369 Points,PS1_L7.csv,,,,,,,,,,,,,,,,,,,,,,,,,,,,,0,6,6,6,0,3,3,3,,,,,,,,,,,,,,,,,,,1874.2426556259998,q,1.7402907499981666,1876.0592432510002,,,,,,63,A,2025-02-08_17h18.45.899,EPIDM,2023.1.2,None,
8480.jpg,6410.jpg,1 Point,1 Point,370 Points,PS1_L7.csv,,,,,,,,,,,,,,,,,,,,,,,,,,,,,0,6,6,6,0,4,4,4,,,,,,,,,,,,,,,,,,,1880.3168952510005,q,0.6406062919995748,1881.0345508339997,,,,,,63,A,2025-02-08_17h18.45.899,EPIDM,2023.1.2,None,
2702.jpg,1590.jpg,5 Points,5 Points,375 Points,PS1_L7.csv,,,,,,,,,,,,,,,,,,,,,,,,,,,,,0,6,6,6,0,5,5,5,,,,,,,,,,,,,,,,,,,1885.2736349589995,p,1.2126873329998489,1886.5631435840005,,,,,,63,A,2025-02-08_17h18.45.899,EPIDM,2023.1.2,None,
1275.jpg,3150.jpg,1 Point,1 Point,376 Points,PS1_L7.csv,,,,,,,,,,,,,,,,,,,,,,,,,,,,,0,6,6,6,0,6,6,6,,,,,,,,,,,,,,,,,,,1890.8089970839992,p,0.8363716249987192,1891.722672209,,,,,,63,A,2025-02-08_17h18.45.899,EPIDM,2023.1.2,None,
1910.jpg,2575.jpg,2 Points,2 Points,378 Points,PS1_L7.csv,,,,,,,,,,,,,,,,,,,,,,,,,,,,,0,6,6,6,0,7,7,7,,,,,,,,,,,,,,,,,,,1895.9632675419998,q,1.3466990829983843,1897.364541208999,,,,,,63,A,2025-02-08_17h18.45.899,EPIDM,2023.1.2,None,
2518.jpg,2381.jpg,1 Point,1 Point,382 Points,PS1_L7.csv,,,,,,,,,,,,,,,,,,,,,,,,,,,,,0,6,6,6,0,8,8,8,,,,,,,,,,,,,,,,,,,1901.6258762090001,p,1.0755278329997964,1902.7624458339997,,,,,,63,A,2025-02-08_17h18.45.899,EPIDM,2023.1.2,None,
6250.1.jpg,3301.jpg,0 Points,0 Points,382 Points,PS1_L7.csv,,,,,,,,,,,,,,,,,,,,,,,,,,,,,0,6,6,6,0,9,9,9,,,,,,,,,,,,,,,,,,,1907.028864083999,q,0.7759394579989021,1907.8783437509992,,,,,,63,A,2025-02-08_17h18.45.899,EPIDM,2023.1.2,None,
7234.jpg,5533.jpg,3 Points,3 Points,385 Points,PS1_L7.csv,,,,,,,,,,,,,,,,,,,,,,,,,,,,,0,6,6,6,0,10,10,10,,,,,,,,,,,,,,,,,,,1912.132201167,p,0.5690292910003336,1912.782427876,,,,,,63,A,2025-02-08_17h18.45.899,EPIDM,2023.1.2,None,
9920.jpg,3068.jpg,5 Points,5 Points,390 Points,PS1_L7.csv,,,,,,,,,,,,,,,,,,,,,,,,,,,,,0,6,6,6,0,11,11,11,,,,,,,,,,,,,,,,,,,1917.022897584,q,1.1182119580007566,1918.2048020839993,,,,,,63,A,2025-02-08_17h18.45.899,EPIDM,2023.1.2,None,
3022.jpg,2352.2.jpg,0 Points,0 Points,390 Points,PS1_L7.csv,,,,,,,,,,,,,,,,,,,,,,,,,,,,,0,6,6,6,0,12,12,12,,,,,,,,,,,,,,,,,,,1922.4522942919994,p,1.9769694579990755,1924.495772917,,,,,,63,A,2025-02-08_17h18.45.899,EPIDM,2023.1.2,None,
8250.jpg,1313.jpg,4 Points,4 Points,394 Points,PS1_L7.csv,,,,,,,,,,,,,,,,,,,,,,,,,,,,,0,6,6,6,0,13,13,13,,,,,,,,,,,,,,,,,,,1928.7488910009997,p,1.4073697490002814,1930.2306035419988,4,1.1171675829991727,,,,63,A,2025-02-08_17h18.45.899,EPIDM,2023.1.2,None,
2690.jpg,9360.jpg,1 Point,1 Point,395 Points,PS1_L7.csv,,,,,,,,,,,,,,,,,,,,,,,,,,,,,0,6,6,6,0,14,14,14,,,,,,,,,,,,,,,,,,,1935.668411958999,p,1.127029623999988,1936.8739571669994,,,,,,63,A,2025-02-08_17h18.45.899,EPIDM,2023.1.2,None,
9570.jpg,6610.jpg,0 Points,0 Points,395 Points,PS1_L7.csv,,,,,,,,,,,,,,,,,,,,,,,,,,,,,0,6,6,6,0,15,15,15,,,,,,,,,,,,,,,,,,,1941.1209751669994,p,0.6830809579987545,1941.866987125999,,,,,,63,A,2025-02-08_17h18.45.899,EPIDM,2023.1.2,None,
3110.jpg,9000.jpg,4 Points,4 Points,399 Points,PS1_L7.csv,,,,,,,,,,,,,,,,,,,,,,,,,,,,,0,6,6,6,0,16,16,16,,,,,,,,,,,,,,,,,,,1946.1147993760005,p,0.7440284169988445,1946.9206581260005,,,,,,63,A,2025-02-08_17h18.45.899,EPIDM,2023.1.2,None,
8465.jpg,8400.jpg,1 Point,1 Point,400 Points,PS1_L7.csv,,,,,,,,,,,,,,,,,,,,,,,,,,,,,0,6,6,6,0,17,17,17,,,,,,,,,,,,,,,,,,,1951.1742705420002,q,0.7094657079996978,1951.9559418339995,,,,,,63,A,2025-02-08_17h18.45.899,EPIDM,2023.1.2,None,
1540.jpg,2600.jpg,1 Point,1 Point,401 Points,PS1_L7.csv,,,,,,,,,,,,,,,,,,,,,,,,,,,,,0,6,6,6,0,18,18,18,,,,,,,,,,,,,,,,,,,1956.2108277919997,q,0.6974968329996045,1956.9779979169998,,,,,,63,A,2025-02-08_17h18.45.899,EPIDM,2023.1.2,None,
2276.jpg,6540.jpg,3 Points,3 Points,404 Points,PS1_L7.csv,,,,,,,,,,,,,,,,,,,,,,,,,,,,,0,6,6,6,0,19,19,19,,,,,,,,,,,,,,,,,,,1961.2343503760003,p,1.281682249998994,1962.5765957919994,,,,,,63,A,2025-02-08_17h18.45.899,EPIDM,2023.1.2,None,
5030.jpg,1670.jpg,3 Points,3 Points,407 Points,PS1_L7.csv,,,,,,,,,,,,,,,,,,,,,,,,,,,,,0,6,6,6,0,20,20,20,,,,,,,,,,,,,,,,,,,1966.8341667919995,p,0.9616810829993483,1967.8571653340005,,,,,,63,A,2025-02-08_17h18.45.899,EPIDM,2023.1.2,None,
9040.jpg,1120.jpg,3 Points,3 Points,410 Points,PS1_L7.csv,,,,,,,,,,,,,,,,,,,,,,,,,,,,,0,6,6,6,0,21,21,21,,,,,,,,,,,,,,,,,,,1972.1177611669991,p,0.9333400830000755,1973.1253545010004,,,,,,63,A,2025-02-08_17h18.45.899,EPIDM,2023.1.2,None,
3220.jpg,3063.jpg,5 Points,5 Points,415 Points,PS1_L7.csv,,,,,,,,,,,,,,,,,,,,,,,,,,,,,0,6,6,6,0,22,22,22,,,,,,,,,,,,,,,,,,,1977.370280916999,q,1.5050228749987582,1978.9476370009997,,,,,,63,A,2025-02-08_17h18.45.899,EPIDM,2023.1.2,None,
8117.jpg,2880.jpg,5 Points,5 Points,420 Points,PS1_L7.csv,,,,,,,,,,,,,,,,,,,,,,,,,,,,,0,6,6,6,0,23,23,23,,,,,,,,,,,,,,,,,,,1983.1974058759988,p,0.517928249999386,1983.7866914589995,,,1994.2922271669995,space,8.878133083000648,63,A,2025-02-08_17h18.45.899,EPIDM,2023.1.2,None,
4274.jpg,8160.jpg,2 Points,2 Points,422 Points,PS1_L8.csv,,,,,,,,,,,,,,,,,,,,,,,,,,,,,0,7,7,7,0,0,0,0,,,,,,,,,,,,,,,,,,,2006.4856327509988,q,1.1329119990004983,2007.6941242510002,,,,,,63,A,2025-02-08_17h18.45.899,EPIDM,2023.1.2,None,
6314.jpg,O022.jpg,2 Points,2 Points,424 Points,PS1_L8.csv,,,,,,,,,,,,,,,,,,,,,,,,,,,,,0,7,7,7,0,1,1,1,,,,,,,,,,,,,,,,,,,2011.940228166999,q,0.984316874999422,2013.0314837919996,2,0.7796772919991781,,,,63,A,2025-02-08_17h18.45.899,EPIDM,2023.1.2,None,
1560.jpg,8185.jpg,0 Points,0 Points,424 Points,PS1_L8.csv,,,,,,,,,,,,,,,,,,,,,,,,,,,,,0,7,7,7,0,2,2,2,,,,,,,,,,,,,,,,,,,2018.138059084,p,1.1351480419998552,2019.3401530009996,,,,,,63,A,2025-02-08_17h18.45.899,EPIDM,2023.1.2,None,
2850.jpg,4532.jpg,3 Points,3 Points,427 Points,PS1_L8.csv,,,,,,,,,,,,,,,,,,,,,,,,,,,,,0,7,7,7,0,3,3,3,,,,,,,,,,,,,,,,,,,2023.585732042,p,0.8172852489988145,2024.468526834,,,,,,63,A,2025-02-08_17h18.45.899,EPIDM,2023.1.2,None,
1390.jpg,9421.jpg,2 Points,2 Points,429 Points,PS1_L8.csv,,,,,,,,,,,,,,,,,,,,,,,,,,,,,0,7,7,7,0,4,4,4,,,,,,,,,,,,,,,,,,,2028.7291988340003,p,0.9374558330000582,2029.7312264169996,,,,,,63,A,2025-02-08_17h18.45.899,EPIDM,2023.1.2,None,
9800.jpg,9433.jpg,1 Point,1 Point,430 Points,PS1_L8.csv,,,,,,,,,,,,,,,,,,,,,,,,,,,,,0,7,7,7,0,5,5,5,,,,,,,,,,,,,,,,,,,2033.9923026670003,p,0.650282040998718,2034.7095250009988,,,,,,63,A,2025-02-08_17h18.45.899,EPIDM,2023.1.2,None,
8161.jpg,1900.jpg,4 Points,4 Points,434 Points,PS1_L8.csv,,,,,,,,,,,,,,,,,,,,,,,,,,,,,0,7,7,7,0,6,6,6,,,,,,,,,,,,,,,,,,,2038.9495748339996,p,0.8436928329992952,2039.867814416999,,,,,,63,A,2025-02-08_17h18.45.899,EPIDM,2023.1.2,None,
1112.jpg,6230.jpg,3 Points,3 Points,437 Points,PS1_L8.csv,,,,,,,,,,,,,,,,,,,,,,,,,,,,,0,7,7,7,0,7,7,7,,,,,,,,,,,,,,,,,,,2044.115986834,q,0.9821851659999083,2045.1689303759995,,,,,,63,A,2025-02-08_17h18.45.899,EPIDM,2023.1.2,None,
1111.jpg,1040.jpg,0 Points,0 Points,437 Points,PS1_L8.csv,,,,,,,,,,,,,,,,,,,,,,,,,,,,,0,7,7,7,0,8,8,8,,,,,,,,,,,,,,,,,,,2049.425296292,p,0.8397803329989983,2050.347060667,,,,,,63,A,2025-02-08_17h18.45.899,EPIDM,2023.1.2,None,
5622.jpg,9156.jpg,4 Points,4 Points,441 Points,PS1_L8.csv,,,,,,,,,,,,,,,,,,,,,,,,,,,,,0,7,7,7,0,9,9,9,,,,,,,,,,,,,,,,,,,2054.592389292,q,1.1777347500010364,2055.844701083999,,,,,,63,A,2025-02-08_17h18.45.899,EPIDM,2023.1.2,None,
2681.jpg,7100.jpg,3 Points,3 Points,444 Points,PS1_L8.csv,,,,,,,,,,,,,,,,,,,,,,,,,,,,,0,7,7,7,0,10,10,10,,,,,,,,,,,,,,,,,,,2060.0787646259996,p,0.9546037489981245,2061.1003918339993,,,,,,63,A,2025-02-08_17h18.45.899,EPIDM,2023.1.2,None,
6821.jpg,9622.jpg,2 Points,2 Points,446 Points,PS1_L8.csv,,,,,,,,,,,,,,,,,,,,,,,,,,,,,0,7,7,7,0,11,11,11,,,,,,,,,,,,,,,,,,,2065.3484532509992,p,0.4598588329990889,2065.8788299589996,,,,,,63,A,2025-02-08_17h18.45.899,EPIDM,2023.1.2,None,
9490.jpg,9210.jpg,1 Point,1 Point,447 Points,PS1_L8.csv,,,,,,,,,,,,,,,,,,,,,,,,,,,,,0,7,7,7,0,12,12,12,,,,,,,,,,,,,,,,,,,2070.136432125999,q,0.8248657909989561,2071.0149972090003,,,,,,63,A,2025-02-08_17h18.45.899,EPIDM,2023.1.2,None,
4605.jpg,1510.jpg,4 Points,4 Points,451 Points,PS1_L8.csv,,,,,,,,,,,,,,,,,,,,,,,,,,,,,0,7,7,7,0,13,13,13,,,,,,,,,,,,,,,,,,,2075.274470958999,p,0.45529529099803767,2075.794063166999,4,1.2267437080008676,,,,63,A,2025-02-08_17h18.45.899,EPIDM,2023.1.2,None,
2240.jpg,5010.jpg,5 Points,5 Points,456 Points,PS1_L8.csv,,,,,,,,,,,,,,,,,,,,,,,,,,,,,0,7,7,7,0,14,14,14,,,,,,,,,,,,,,,,,,,2081.344858250999,q,0.9768348739999055,2082.397393666999,,,,,,63,A,2025-02-08_17h18.45.899,EPIDM,2023.1.2,None,
3102.jpg,F032.jpg,1 Point,1 Point,457 Points,PS1_L8.csv,,,,,,,,,,,,,,,,,,,,,,,,,,,,,0,7,7,7,0,15,15,15,,,,,,,,,,,,,,,,,,,2086.6435082089993,p,0.9573418330001005,2087.7110357090005,,,,,,63,A,2025-02-08_17h18.45.899,EPIDM,2023.1.2,None,
4100.jpg,6570.2.jpg,3 Points,3 Points,460 Points,PS1_L8.csv,,,,,,,,,,,,,,,,,,,,,,,,,,,,,0,7,7,7,0,16,16,16,,,,,,,,,,,,,,,,,,,2091.923686917,p,1.3406459159996302,2093.3450095009994,,,,,,63,A,2025-02-08_17h18.45.899,EPIDM,2023.1.2,None,
2650.jpg,4531.jpg,5 Points,5 Points,465 Points,PS1_L8.csv,,,,,,,,,,,,,,,,,,,,,,,,,,,,,0,7,7,7,0,17,17,17,,,,,,,,,,,,,,,,,,,2097.585377833999,q,0.5825151669996558,2098.2449651669995,,,,,,63,A,2025-02-08_17h18.45.899,EPIDM,2023.1.2,None,
9320.jpg,9007.jpg,0 Points,0 Points,465 Points,PS1_L8.csv,,,,,,,,,,,,,,,,,,,,,,,,,,,,,0,7,7,7,0,18,18,18,,,,,,,,,,,,,,,,,,,2102.488576001,p,0.6238701660004153,2103.1911666260003,,,,,,63,A,2025-02-08_17h18.45.899,EPIDM,2023.1.2,None,
8460.jpg,8330.jpg,0 Points,0 Points,465 Points,PS1_L8.csv,,,,,,,,,,,,,,,,,,,,,,,,,,,,,0,7,7,7,0,19,19,19,,,,,,,,,,,,,,,,,,,2107.4306023339996,q,1.6008942079988628,2109.0957706259996,,,,,,63,A,2025-02-08_17h18.45.899,EPIDM,2023.1.2,None,
2570.jpg,5500.jpg,3 Points,3 Points,468 Points,PS1_L8.csv,,,,,,,,,,,,,,,,,,,,,,,,,,,,,0,7,7,7,0,20,20,20,,,,,,,,,,,,,,,,,,,2113.353439000999,p,0.4620335409999825,2113.8865300420002,,,,,,63,A,2025-02-08_17h18.45.899,EPIDM,2023.1.2,None,
6190.jpg,3120.jpg,5 Points,5 Points,473 Points,PS1_L8.csv,,,,,,,,,,,,,,,,,,,,,,,,,,,,,0,7,7,7,0,21,21,21,,,,,,,,,,,,,,,,,,,2118.1328985420005,q,0.49053174999971816,2118.7043577509994,,,,,,63,A,2025-02-08_17h18.45.899,EPIDM,2023.1.2,None,
2200.jpg,4598.jpg,1 Point,1 Point,474 Points,PS1_L8.csv,,,,,,,,,,,,,,,,,,,,,,,,,,,,,0,7,7,7,0,22,22,22,,,,,,,,,,,,,,,,,,,2122.940990542,p,1.1076074989996414,2124.131321458999,,,,,,63,A,2025-02-08_17h18.45.899,EPIDM,2023.1.2,None,
1303.jpg,2000.jpg,0 Points,0 Points,474 Points,PS1_L8.csv,,,,,,,,,,,,,,,,,,,,,,,,,,,,,0,7,7,7,0,23,23,23,,,,,,,,,,,,,,,,,,,2128.3830373759993,p,1.2006409999994503,2129.653763667,,,2140.123773001,space,3.282892666000407,63,A,2025-02-08_17h18.45.899,EPIDM,2023.1.2,None,
9010.jpg,9253.jpg,0 Points,0 Points,474 Points,PS1_L9.csv,,,,,,,,,,,,,,,,,,,,,,,,,,,,,0,8,8,8,0,0,0,0,,,,,,,,,,,,,,,,,,,2146.732304542,q,0.8268252909983858,2147.6279287510006,,,,,,63,A,2025-02-08_17h18.45.899,EPIDM,2023.1.2,None,
1302.jpg,2700.jpg,3 Points,3 Points,477 Points,PS1_L9.csv,,,,,,,,,,,,,,,,,,,,,,,,,,,,,0,8,8,8,0,1,1,1,,,,,,,,,,,,,,,,,,,2151.8695553340003,q,0.8735146239996538,2152.818339542,3,0.8765509160002694,,,,63,A,2025-02-08_17h18.45.899,EPIDM,2023.1.2,None,
2030.jpg,2495.jpg,0 Points,0 Points,477 Points,PS1_L9.csv,,,,,,,,,,,,,,,,,,,,,,,,,,,,,0,8,8,8,0,2,2,2,,,,,,,,,,,,,,,,,,,2157.999197166999,q,0.7997335000000021,2158.877747250999,,,,,,63,A,2025-02-08_17h18.45.899,EPIDM,2023.1.2,None,
2110.jpg,7260.jpg,5 Points,5 Points,482 Points,PS1_L9.csv,,,,,,,,,,,,,,,,,,,,,,,,,,,,,0,8,8,8,0,3,3,3,,,,,,,,,,,,,,,,,,,2163.1188216259998,p,0.808665958000347,2164.010850708999,,,,,,63,A,2025-02-08_17h18.45.899,EPIDM,2023.1.2,None,
2053.jpg,9415.jpg,4 Points,4 Points,486 Points,PS1_L9.csv,,,,,,,,,,,,,,,,,,,,,,,,,,,,,0,8,8,8,0,4,4,4,,,,,,,,,,,,,,,,,,,2168.2570973759994,p,1.204889082999216,2169.525427000999,,,,,,63,A,2025-02-08_17h18.45.899,EPIDM,2023.1.2,None,
6211.jpg,9611.jpg,3 Points,3 Points,489 Points,PS1_L9.csv,,,,,,,,,,,,,,,,,,,,,,,,,,,,,0,8,8,8,0,5,5,5,,,,,,,,,,,,,,,,,,,2173.7793806259997,p,0.5571254170008615,2174.4005113759995,,,,,,63,A,2025-02-08_17h18.45.899,EPIDM,2023.1.2,None,
8350.jpg,7190.jpg,5 Points,5 Points,494 Points,PS1_L9.csv,,,,,,,,,,,,,,,,,,,,,,,,,,,,,0,8,8,8,0,6,6,6,,,,,,,,,,,,,,,,,,,2178.6690383759997,p,0.7141013750006096,2179.4595257090004,,,,,,63,A,2025-02-08_17h18.45.899,EPIDM,2023.1.2,None,
9340.jpg,6910.jpg,0 Points,0 Points,494 Points,PS1_L9.csv,,,,,,,,,,,,,,,,,,,,,,,,,,,,,0,8,8,8,0,7,7,7,,,,,,,,,,,,,,,,,,,2183.7014883760003,p,1.3208264990007592,2185.0976618759996,,,,,,63,A,2025-02-08_17h18.45.899,EPIDM,2023.1.2,None,
4533.jpg,2385.jpg,3 Points,3 Points,497 Points,PS1_L9.csv,,,,,,,,,,,,,,,,,,,,,,,,,,,,,0,8,8,8,0,8,8,8,,,,,,,,,,,,,,,,,,,2189.345404833999,q,0.4685760829997889,2189.8858718339998,,,,,,63,A,2025-02-08_17h18.45.899,EPIDM,2023.1.2,None,
5940.jpg,9411.jpg,0 Points,0 Points,497 Points,PS1_L9.csv,,,,,,,,,,,,,,,,,,,,,,,,,,,,,0,8,8,8,0,9,9,9,,,,,,,,,,,,,,,,,,,2194.125426000999,p,0.6566038749988365,2194.857203542,,,,,,63,A,2025-02-08_17h18.45.899,EPIDM,2023.1.2,None,
2220.jpg,2010.jpg,5 Points,5 Points,502 Points,PS1_L9.csv,,,,,,,,,,,,,,,,,,,,,,,,,,,,,0,8,8,8,0,10,10,10,,,,,,,,,,,,,,,,,,,2199.098170751,q,1.0527159579996805,2200.223766501,,,,,,63,A,2025-02-08_17h18.45.899,EPIDM,2023.1.2,None,
9500.jpg,6360.jpg,1 Point,1 Point,503 Points,PS1_L9.csv,,,,,,,,,,,,,,,,,,,,,,,,,,,,,0,8,8,8,0,11,11,11,,,,,,,,,,,,,,,,,,,2204.4579989169997,q,0.8925609159996384,2205.427880375999,,,,,,63,A,2025-02-08_17h18.45.899,EPIDM,2023.1.2,None,
2092.jpg,2210.jpg,0 Points,0 Points,503 Points,PS1_L9.csv,,,,,,,,,,,,,,,,,,,,,,,,,,,,,0,8,8,8,0,12,12,12,,,,,,,,,,,,,,,,,,,2209.6822957509994,q,0.6029009579997364,2210.353500166999,,,,,,63,A,2025-02-08_17h18.45.899,EPIDM,2023.1.2,None,
9530.jpg,9220.jpg,1 Point,1 Point,504 Points,PS1_L9.csv,,,,,,,,,,,,,,,,,,,,,,,,,,,,,0,8,8,8,0,13,13,13,,,,,,,,,,,,,,,,,,,2214.604578626,p,1.1150002489994222,2215.773762458999,1,0.9910102499998175,,,,63,A,2025-02-08_17h18.45.899,EPIDM,2023.1.2,None,
9254.jpg,9290.jpg,2 Points,2 Points,506 Points,PS1_L9.csv,,,,,,,,,,,,,,,,,,,,,,,,,,,,,0,8,8,8,0,14,14,14,,,,,,,,,,,,,,,,,,,2221.077812959,q,0.5032096659997478,2221.635703791999,,,,,,63,A,2025-02-08_17h18.45.899,EPIDM,2023.1.2,None,
4608.jpg,8320.jpg,1 Point,1 Point,507 Points,PS1_L9.csv,,,,,,,,,,,,,,,,,,,,,,,,,,,,,0,8,8,8,0,15,15,15,,,,,,,,,,,,,,,,,,,2225.8970783759996,q,1.1480709579991526,2227.107102459,,,,,,63,A,2025-02-08_17h18.45.899,EPIDM,2023.1.2,None,
7237.jpg,8510.jpg,4 Points,4 Points,511 Points,PS1_L9.csv,,,,,,,,,,,,,,,,,,,,,,,,,,,,,0,8,8,8,0,16,16,16,,,,,,,,,,,,,,,,,,,2231.3614594169994,q,0.7874521249996178,2232.213490083999,,,,,,63,A,2025-02-08_17h18.45.899,EPIDM,2023.1.2,None,
9417.jpg,6530.jpg,1 Point,1 Point,512 Points,PS1_L9.csv,,,,,,,,,,,,,,,,,,,,,,,,,,,,,0,8,8,8,0,17,17,17,,,,,,,,,,,,,,,,,,,2236.463506083999,q,0.685195374999239,2237.217593666999,,,,,,63,A,2025-02-08_17h18.45.899,EPIDM,2023.1.2,None,
6831.jpg,2141.jpg,5 Points,5 Points,517 Points,PS1_L9.csv,,,,,,,,,,,,,,,,,,,,,,,,,,,,,0,8,8,8,0,18,18,18,,,,,,,,,,,,,,,,,,,2241.464351417,p,1.2924237079987506,2242.822034584,,,,,,63,A,2025-02-08_17h18.45.899,EPIDM,2023.1.2,None,
4689.jpg,7009.jpg,5 Points,5 Points,522 Points,PS1_L9.csv,,,,,,,,,,,,,,,,,,,,,,,,,,,,,0,8,8,8,0,19,19,19,,,,,,,,,,,,,,,,,,,2247.074329792,q,0.497387624998737,2247.648941292,,,,,,63,A,2025-02-08_17h18.45.899,EPIDM,2023.1.2,None,
2751.jpg,6313.jpg,3 Points,3 Points,525 Points,PS1_L9.csv,,,,,,,,,,,,,,,,,,,,,,,,,,,,,0,8,8,8,0,20,20,20,,,,,,,,,,,,,,,,,,,2251.9070019169994,q,0.889914207999027,2252.8727754169995,,,,,,63,A,2025-02-08_17h18.45.899,EPIDM,2023.1.2,None,
4621.jpg,3550.jpg,2 Points,2 Points,527 Points,PS1_L9.csv,,,,,,,,,,,,,,,,,,,,,,,,,,,,,0,8,8,8,0,21,21,21,,,,,,,,,,,,,,,,,,,2257.1156530009994,q,0.8810222079991945,2258.0655943759994,,,,,,63,A,2025-02-08_17h18.45.899,EPIDM,2023.1.2,None,
8220.jpg,2410.jpg,4 Points,4 Points,531 Points,PS1_L9.csv,,,,,,,,,,,,,,,,,,,,,,,,,,,,,0,8,8,8,0,22,22,22,,,,,,,,,,,,,,,,,,,2262.320386125999,p,0.4518315409986826,2262.842652042,,,,,,63,A,2025-02-08_17h18.45.899,EPIDM,2023.1.2,None,
1113.jpg,1240.jpg,3 Points,3 Points,534 Points,PS1_L9.csv,,,,,,,,,,,,,,,,,,,,,,,,,,,,,0,8,8,8,0,23,23,23,,,,,,,,,,,,,,,,,,,2267.087601751,p,0.8690640829991025,2268.026909209,,,2278.5119219589997,space,4.219744333000563,63,A,2025-02-08_17h18.45.899,EPIDM,2023.1.2,None,
2750.jpg,9050.jpg,4 Points,4 Points,538 Points,PS1_L10.csv,,,,,,,,,,,,,,,,,,,,,,,,,,,,,0,9,9,9,0,0,0,0,,,,,,,,,,,,,,,,,,,2286.053752209,p,1.0866579989997263,2287.2044011670005,,,,,,63,A,2025-02-08_17h18.45.899,EPIDM,2023.1.2,None,
2312.jpg,2722.jpg,1 Points,1 Points,539 Points,PS1_L10.csv,,,,,,,,,,,,,,,,,,,,,,,,,,,,,0,9,9,9,0,1,1,1,,,,,,,,,,,,,,,,,,,2291.4526982509997,q,1.0477045409988932,2292.5703396259996,1,0.4643729159997747,,,,63,A,2025-02-08_17h18.45.899,EPIDM,2023.1.2,None,
8232.jpg,4279.jpg,5 Points,5 Points,544 Points,PS1_L10.csv,,,,,,,,,,,,,,,,,,,,,,,,,,,,,0,9,9,9,0,2,2,2,,,,,,,,,,,,,,,,,,,2297.352294417,p,0.5554668749991833,2297.980934084,,,,,,63,A,2025-02-08_17h18.45.899,EPIDM,2023.1.2,None,
6000.jpg,6836.jpg,4 Points,4 Points,548 Points,PS1_L10.csv,,,,,,,,,,,,,,,,,,,,,,,,,,,,,0,9,9,9,0,3,3,3,,,,,,,,,,,,,,,,,,,2302.226252708999,q,0.8418389580001531,2303.1399440839996,,,,,,63,A,2025-02-08_17h18.45.899,EPIDM,2023.1.2,None,
4536.jpg,2280.jpg,4 Points,4 Points,552 Points,PS1_L10.csv,,,,,,,,,,,,,,,,,,,,,,,,,,,,,0,9,9,9,0,4,4,4,,,,,,,,,,,,,,,,,,,2307.389293167,p,0.44589987399922393,2307.914946084,,,,,,63,A,2025-02-08_17h18.45.899,EPIDM,2023.1.2,None,
6241.jpg,9561.jpg,3 Points,3 Points,555 Points,PS1_L10.csv,,,,,,,,,,,,,,,,,,,,,,,,,,,,,0,9,9,9,0,5,5,5,,,,,,,,,,,,,,,,,,,2312.1588900419993,q,0.9407295410001097,2313.1784937089997,,,,,,63,A,2025-02-08_17h18.45.899,EPIDM,2023.1.2,None,
1942.jpg,2890.jpg,1 Points,1 Points,556 Points,PS1_L10.csv,,,,,,,,,,,,,,,,,,,,,,,,,,,,,0,9,9,9,0,6,6,6,,,,,,,,,,,,,,,,,,,2317.4309768759995,p,0.45902129100068123,2317.9613536260003,,,,,,63,A,2025-02-08_17h18.45.899,EPIDM,2023.1.2,None,
6020.jpg,6300.jpg,2 Points,2 Points,558 Points,PS1_L10.csv,,,,,,,,,,,,,,,,,,,,,,,,,,,,,0,9,9,9,0,7,7,7,,,,,,,,,,,,,,,,,,,2322.2096476669994,p,0.9697039989987388,2323.241726000999,,,,,,63,A,2025-02-08_17h18.45.899,EPIDM,2023.1.2,None,
7170.jpg,2170.jpg,2 Points,2 Points,560 Points,PS1_L10.csv,,,,,,,,,,,,,,,,,,,,,,,,,,,,,0,9,9,9,0,8,8,8,,,,,,,,,,,,,,,,,,,2327.4989062509994,p,0.7363922909989924,2328.2973665419995,,,,,,63,A,2025-02-08_17h18.45.899,EPIDM,2023.1.2,None,
5510.jpg,2514.jpg,5 Points,5 Points,565 Points,PS1_L10.csv,,,,,,,,,,,,,,,,,,,,,,,,,,,,,0,9,9,9,0,9,9,9,,,,,,,,,,,,,,,,,,,2332.5553584589998,p,0.8952482080003392,2333.5242533759993,,,,,,63,A,2025-02-08_17h18.45.899,EPIDM,2023.1.2,None,
6840.jpg,3080.jpg,1 Points,1 Points,566 Points,PS1_L10.csv,,,,,,,,,,,,,,,,,,,,,,,,,,,,,0,9,9,9,0,10,10,10,,,,,,,,,,,,,,,,,,,2337.7777462920003,q,1.33813949999967,2339.1710888340003,,,,,,63,A,2025-02-08_17h18.45.899,EPIDM,2023.1.2,None,
7195.jpg,2487.jpg,2 Points,2 Points,568 Points,PS1_L10.csv,,,,,,,,,,,,,,,,,,,,,,,,,,,,,0,9,9,9,0,11,11,11,,,,,,,,,,,,,,,,,,,2343.4323869170003,q,1.169861457998195,2344.6682632089996,,,,,,63,A,2025-02-08_17h18.45.899,EPIDM,2023.1.2,None,
5971.jpg,9912.jpg,5 Points,5 Points,573 Points,PS1_L10.csv,,,,,,,,,,,,,,,,,,,,,,,,,,,,,0,9,9,9,0,12,12,12,,,,,,,,,,,,,,,,,,,2348.9217402510003,q,0.6894396660009079,2349.672811417,,,,,,63,A,2025-02-08_17h18.45.899,EPIDM,2023.1.2,None,
2520.jpg,8503.jpg,2 Points,2 Points,575 Points,PS1_L10.csv,,,,,,,,,,,,,,,,,,,,,,,,,,,,,0,9,9,9,0,13,13,13,,,,,,,,,,,,,,,,,,,2353.9247412509994,p,0.516459874001157,2354.5189845839996,2,1.1337735830002202,,,,63,A,2025-02-08_17h18.45.899,EPIDM,2023.1.2,None,
5480.jpg,8200.jpg,4 Points,4 Points,579 Points,PS1_L10.csv,,,,,,,,,,,,,,,,,,,,,,,,,,,,,0,9,9,9,0,14,14,14,,,,,,,,,,,,,,,,,,,2359.976842541999,p,0.43287737499849754,2360.4924833759997,,,,,,63,A,2025-02-08_17h18.45.899,EPIDM,2023.1.2,None,
6370.jpg,1270.jpg,4 Points,4 Points,583 Points,PS1_L10.csv,,,,,,,,,,,,,,,,,,,,,,,,,,,,,0,9,9,9,0,15,15,15,,,,,,,,,,,,,,,,,,,2364.7267229589997,q,0.33159737499954645,2365.129978916999,,,,,,63,A,2025-02-08_17h18.45.899,EPIDM,2023.1.2,None,
5130.jpg,1810.jpg,3 Points,3 Points,586 Points,PS1_L10.csv,,,,,,,,,,,,,,,,,,,,,,,,,,,,,0,9,9,9,0,16,16,16,,,,,,,,,,,,,,,,,,,2369.374419583999,p,0.9317054579987598,2370.389218417,,,,,,63,A,2025-02-08_17h18.45.899,EPIDM,2023.1.2,None,
4250.jpg,7060.jpg,5 Points,5 Points,591 Points,PS1_L10.csv,,,,,,,,,,,,,,,,,,,,,,,,,,,,,0,9,9,9,0,17,17,17,,,,,,,,,,,,,,,,,,,2374.630573126,q,0.46765337500073656,2375.180086750999,,,,,,63,A,2025-02-08_17h18.45.899,EPIDM,2023.1.2,None,
9373.jpg,9410.jpg,0 Points,0 Points,591 Points,PS1_L10.csv,,,,,,,,,,,,,,,,,,,,,,,,,,,,,0,9,9,9,0,18,18,18,,,,,,,,,,,,,,,,,,,2379.430141208999,p,0.7066010830003506,2380.216433292,,,,,,63,A,2025-02-08_17h18.45.899,EPIDM,2023.1.2,None,
2221.jpg,2270.jpg,2 Points,2 Points,593 Points,PS1_L10.csv,,,,,,,,,,,,,,,,,,,,,,,,,,,,,0,9,9,9,0,19,19,19,,,,,,,,,,,,,,,,,,,2384.453306251,p,0.8116925829999673,2385.333223251,,,,,,63,A,2025-02-08_17h18.45.899,EPIDM,2023.1.2,None,
1650.jpg,2130.jpg,1 Points,1 Points,594 Points,PS1_L10.csv,,,,,,,,,,,,,,,,,,,,,,,,,,,,,0,9,9,9,0,20,20,20,,,,,,,,,,,,,,,,,,,2389.600052833999,q,0.7766277490009088,2390.448218251,,,,,,63,A,2025-02-08_17h18.45.899,EPIDM,2023.1.2,None,
1280.jpg,9402.jpg,2 Points,2 Points,596 Points,PS1_L10.csv,,,,,,,,,,,,,,,,,,,,,,,,,,,,,0,9,9,9,0,21,21,21,,,,,,,,,,,,,,,,,,,2394.7046205419992,p,1.3764467910004896,2396.146858291999,,,,,,63,A,2025-02-08_17h18.45.899,EPIDM,2023.1.2,None,
2214.jpg,4500.jpg,3 Points,3 Points,599 Points,PS1_L10.csv,,,,,,,,,,,,,,,,,,,,,,,,,,,,,0,9,9,9,0,22,22,22,,,,,,,,,,,,,,,,,,,2400.393837125999,p,0.6548924169983366,2401.121377542,,,,,,63,A,2025-02-08_17h18.45.899,EPIDM,2023.1.2,None,
7284.jpg,8021.jpg,4 Points,4 Points,603 Points,PS1_L10.csv,,,,,,,,,,,,,,,,,,,,,,,,,,,,,0,9,9,9,0,23,23,23,,,,,,,,,,,,,,,,,,,2405.362726292,q,1.0134794159985177,2406.449973084,,,2416.987243709,space,2.2378021250005986,63,A,2025-02-08_17h18.45.899,EPIDM,2023.1.2,None,
