L_Scene,R_Scene,Points_L,Points_R,PtTotal,blockFile,Instructions_Loop.thisRepN,Instructions_Loop.thisTrialN,Instructions_Loop.thisN,Instructions_Loop.thisIndex,Redo_Instructions_Loop.thisRepN,Redo_Instructions_Loop.thisTrialN,Redo_Instructions_Loop.thisN,Redo_Instructions_Loop.thisIndex,Practice_Encoding_Loop.thisRepN,Practice_Encoding_Loop.thisTrialN,Practice_Encoding_Loop.thisN,Practice_Encoding_Loop.thisIndex,Practice_Response_Fail_Loop.thisRepN,Practice_Response_Fail_Loop.thisTrialN,Practice_Response_Fail_Loop.thisN,Practice_Response_Fail_Loop.thisIndex,Practice_FB_Loop.thisRepN,Practice_FB_Loop.thisTrialN,Practice_FB_Loop.thisN,Practice_FB_Loop.thisIndex,Practice_Attention_Loop.thisRepN,Practice_Attention_Loop.thisTrialN,Practice_Attention_Loop.thisN,Practice_Attention_Loop.thisIndex,Practice_EncBrk_Loop.thisRepN,Practice_EncBrk_Loop.thisTrialN,Practice_EncBrk_Loop.thisN,Practice_EncBrk_Loop.thisIndex,Encoding_Loop.thisRepN,Encoding_Loop.thisTrialN,Encoding_Loop.thisN,Encoding_Loop.thisIndex,EncStim_Loop.thisRepN,EncStim_Loop.thisTrialN,EncStim_Loop.thisN,EncStim_Loop.thisIndex,Response_Fail_Loop.thisRepN,Response_Fail_Loop.thisTrialN,Response_Fail_Loop.thisN,Response_Fail_Loop.thisIndex,FB_Loop.thisRepN,FB_Loop.thisTrialN,FB_Loop.thisN,FB_Loop.thisIndex,Attention_Loop.thisRepN,Attention_Loop.thisTrialN,Attention_Loop.thisN,Attention_Loop.thisIndex,EncBrk_Loop.thisRepN,EncBrk_Loop.thisTrialN,EncBrk_Loop.thisN,EncBrk_Loop.thisIndex,Transition_Enc.keys,Transition_Enc.rt,Encoding_Resp.started,Encoding_Resp.keys,Encoding_Resp.rt,R_Point_FB_Stim.started,Attn_resp.keys,Attn_resp.rt,Progress_Tracker.started,EncBrk_Resp.keys,EncBrk_Resp.rt,participant,Group,date,expName,psychopyVersion,frameRate,
,,,,,,,,,,,,,,,,,,,,,,,,,,,,,,,,,,,,,,,,,,,,,,,,,,,,,,,,,,space,5.392160583000077,,,,,,,,,,64,B,2025-02-10_08h27.01.543,EPIDM,2023.1.2,59.98465880364132,
A060.jpg,F041.jpg,5 Points,5 Points,5 Points,,,,,,,,,,0,0,0,0,,,,,,,,,,,,,,,,,,,,,,,,,,,,,,,,,,,,,,,,,,,530.9395550420013,p,2.554711040997063,533.6414996250023,,,,,,64,B,2025-02-10_08h27.01.543,EPIDM,2023.1.2,59.98465880364132,
O161.jpg,1812.jpg,2 Points,2 Points,7 Points,,,,,,,,,,0,1,1,1,,,,,,,,,,,,,,,,,,,,,,,,,,,,,,,,,,,,,,,,,,,537.7997476670025,q,0.5361789579983451,538.472965625002,,,,,,64,B,2025-02-10_08h27.01.543,EPIDM,2023.1.2,59.98465880364132,
O013.jpg,A001.jpg,3 Points,3 Points,10 Points,,,,,,,,,,0,2,2,2,,,,,,,,,,,,,,,,,,,,,,,,,,,,,,,,,,,,,,,,,,,542.6512388750016,p,0.9235134999980801,543.7448657500026,,,,,,64,B,2025-02-10_08h27.01.543,EPIDM,2023.1.2,59.98465880364132,
P036.jpg,F273.jpg,5 Points,5 Points,15 Points,,,,,,,,,,0,3,3,3,,,,,,,,,,,,,,,,,,,,,,,,,,,,,,,,,,,,,,,,,,,547.8850128750018,q,1.3610965000007127,549.4131830830011,,,,,,64,B,2025-02-10_08h27.01.543,EPIDM,2023.1.2,59.98465880364132,
L130.jpg,2393.jpg,0 Points,0 Points,15 Points,,,,,,,,,,0,4,4,4,,,,,,,,,,,,,,,,,,,,,,,,,,,,,,,,,,,,,,,,,,,553.563681458003,q,0.7940567490004469,554.4998103329999,0,3.8542713329989056,,,,64,B,2025-02-10_08h27.01.543,EPIDM,2023.1.2,59.98465880364132,
F279.jpg,P033.jpg,3 Points,3 Points,18 Points,,,,,,,,,,0,5,5,5,,,,,,,,,,,,,,,,,,,,,,,,,,,,,,,,,,,,,,,,,,,562.6387100000029,q,2.5192173329996876,565.2991270830025,,,,,,64,B,2025-02-10_08h27.01.543,EPIDM,2023.1.2,59.98465880364132,
A104.jpg,2593.jpg,2 Points,2 Points,20 Points,,,,,,,,,,0,6,6,6,,,,,,,,,,,,,,,,,,,,,,,,,,,,,,,,,,,,,,,,,,,569.4793618750009,q,0.7593235000022105,570.3748854580008,,,,,,64,B,2025-02-10_08h27.01.543,EPIDM,2023.1.2,59.98465880364132,
2598.jpg,2605.jpg,0 Points,0 Points,20 Points,,,,,,,,,,0,7,7,7,,,,,,,,,,,,,,,,,,,,,,,,,,,,,,,,,,,,,,,,,,,574.5481875000005,q,1.0502288749994477,575.6545194999999,,,,,,64,B,2025-02-10_08h27.01.543,EPIDM,2023.1.2,59.98465880364132,
L005.jpg,O011.jpg,1 Points,1 Points,21 Points,,,,,,,,,,0,8,8,8,,,,,,,,,,,,,,,,,,,,,,,,,,,,,,,,,,,,,,,,,,,579.8958325000021,q,1.4625725409969164,581.4949707080013,,,,,,64,B,2025-02-10_08h27.01.543,EPIDM,2023.1.2,59.98465880364132,
8186.jpg,F078.jpg,2 Points,2 Points,23 Points,,,,,,,,,,0,9,9,9,,,,,,,,,,,,,,,,,,,,,,,,,,,,,,,,,,,,,,,,,,,585.6696107080024,p,0.91212404199905,586.7122849170009,2,1.8691324999999779,598.7862275420011,space,40.002778833000775,64,B,2025-02-10_08h27.01.543,EPIDM,2023.1.2,59.98465880364132,
,,,,,,,,,,,,,,,,,,,,,,,,,,,,,,,,,,,,,,,,,,,,,,,,,,,,,,,,,,space,3.785950542001956,,,,,,,,,,64,B,2025-02-10_08h27.01.543,EPIDM,2023.1.2,59.98465880364132,
7284.jpg,8021.jpg,4 Points,4 Points,4 Points,PS2_L1.csv,,,,,,,,,,,,,,,,,,,,,,,,,,,,,0,0,0,0,0,0,0,0,,,,,,,,,,,,,,,,,,,653.7101721250001,p,1.6220436240000708,655.435088708,,,,,,64,B,2025-02-10_08h27.01.543,EPIDM,2023.1.2,59.98465880364132,
2214.jpg,4500.jpg,3 Points,3 Points,7 points,PS2_L1.csv,,,,,,,,,,,,,,,,,,,,,,,,,,,,,0,0,0,0,0,1,1,1,,,,,,,,,,,,,,,,,,,659.6627256250031,q,0.605718082999374,660.3405954170012,3,1.869370249001804,,,,64,B,2025-02-10_08h27.01.543,EPIDM,2023.1.2,59.98465880364132,
1280.jpg,9402.jpg,2 Points,2 Points,9 points,PS2_L1.csv,,,,,,,,,,,,,,,,,,,,,,,,,,,,,0,0,0,0,0,2,2,2,,,,,,,,,,,,,,,,,,,666.523445083003,p,1.9129494579974562,668.5113105000019,,,,,,64,B,2025-02-10_08h27.01.543,EPIDM,2023.1.2,59.98465880364132,
1650.jpg,2130.jpg,1 Points,1 Points,10 points,PS2_L1.csv,,,,,,,,,,,,,,,,,,,,,,,,,,,,,0,0,0,0,0,3,3,3,,,,,,,,,,,,,,,,,,,672.7459424580011,q,0.626054958000168,673.4435794170022,,,,,,64,B,2025-02-10_08h27.01.543,EPIDM,2023.1.2,59.98465880364132,
2221.jpg,2270.jpg,2 Points,2 Points,12 points,PS2_L1.csv,,,,,,,,,,,,,,,,,,,,,,,,,,,,,0,0,0,0,0,4,4,4,,,,,,,,,,,,,,,,,,,677.6867278330028,p,1.037420500000735,678.7964768750026,,,,,,64,B,2025-02-10_08h27.01.543,EPIDM,2023.1.2,59.98465880364132,
9373.jpg,9410.jpg,0 Points,0 Points,12 points,PS2_L1.csv,,,,,,,,,,,,,,,,,,,,,,,,,,,,,0,0,0,0,0,5,5,5,,,,,,,,,,,,,,,,,,,683.0395398330002,q,1.6526604159989802,684.7638749580001,,,,,,64,B,2025-02-10_08h27.01.543,EPIDM,2023.1.2,59.98465880364132,
4250.jpg,7060.jpg,5 Points,5 Points,17 points,PS2_L1.csv,,,,,,,,,,,,,,,,,,,,,,,,,,,,,0,0,0,0,0,6,6,6,,,,,,,,,,,,,,,,,,,689.0109138330008,q,0.9298399159997643,690.008447958,,,,,,64,B,2025-02-10_08h27.01.543,EPIDM,2023.1.2,59.98465880364132,
5130.jpg,1810.jpg,3 Points,3 Points,20 points,PS2_L1.csv,,,,,,,,,,,,,,,,,,,,,,,,,,,,,0,0,0,0,0,7,7,7,,,,,,,,,,,,,,,,,,,694.2485083749998,p,0.9396827080017829,695.2632689580023,,,,,,64,B,2025-02-10_08h27.01.543,EPIDM,2023.1.2,59.98465880364132,
6370.jpg,1270.jpg,4 Points,4 Points,24 points,PS2_L1.csv,,,,,,,,,,,,,,,,,,,,,,,,,,,,,0,0,0,0,0,8,8,8,,,,,,,,,,,,,,,,,,,699.4928360830017,p,0.9347517080022953,700.5131301250003,,,,,,64,B,2025-02-10_08h27.01.543,EPIDM,2023.1.2,59.98465880364132,
5480.jpg,8200.jpg,4 Points,4 Points,28 points,PS2_L1.csv,,,,,,,,,,,,,,,,,,,,,,,,,,,,,0,0,0,0,0,9,9,9,,,,,,,,,,,,,,,,,,,704.7454324999999,q,0.7151040829994599,705.5396197920018,,,,,,64,B,2025-02-10_08h27.01.543,EPIDM,2023.1.2,59.98465880364132,
2520.jpg,8503.jpg,2 Points,2 Points,30 points,PS2_L1.csv,,,,,,,,,,,,,,,,,,,,,,,,,,,,,0,0,0,0,0,10,10,10,,,,,,,,,,,,,,,,,,,709.775956417001,q,0.8441359169992211,710.690094708003,,,,,,64,B,2025-02-10_08h27.01.543,EPIDM,2023.1.2,59.98465880364132,
5971.jpg,9912.jpg,5 Points,5 Points,35 points,PS2_L1.csv,,,,,,,,,,,,,,,,,,,,,,,,,,,,,0,0,0,0,0,11,11,11,,,,,,,,,,,,,,,,,,,714.9293293330011,q,1.7548233740017167,716.7469880830031,,,,,,64,B,2025-02-10_08h27.01.543,EPIDM,2023.1.2,59.98465880364132,
7195.jpg,2487.jpg,2 Points,2 Points,37 points,PS2_L1.csv,,,,,,,,,,,,,,,,,,,,,,,,,,,,,0,0,0,0,0,12,12,12,,,,,,,,,,,,,,,,,,,720.9843677919998,p,1.4040805420008837,722.4562862500024,,,,,,64,B,2025-02-10_08h27.01.543,EPIDM,2023.1.2,59.98465880364132,
6840.jpg,3080.jpg,1 Points,1 Points,38 points,PS2_L1.csv,,,,,,,,,,,,,,,,,,,,,,,,,,,,,0,0,0,0,0,13,13,13,,,,,,,,,,,,,,,,,,,726.6981824169998,q,1.6418592919981165,728.3974999580023,2,2.1067932499972812,,,,64,B,2025-02-10_08h27.01.543,EPIDM,2023.1.2,59.98465880364132,
5510.jpg,2514.jpg,5 Points,5 Points,43 points,PS2_L1.csv,,,,,,,,,,,,,,,,,,,,,,,,,,,,,0,0,0,0,0,14,14,14,,,,,,,,,,,,,,,,,,,734.8269194580025,p,1.5205379579965665,736.415845167001,,,,,,64,B,2025-02-10_08h27.01.543,EPIDM,2023.1.2,59.98465880364132,
7170.jpg,2170.jpg,2 Points,2 Points,45 points,PS2_L1.csv,,,,,,,,,,,,,,,,,,,,,,,,,,,,,0,0,0,0,0,15,15,15,,,,,,,,,,,,,,,,,,,740.6654122500004,q,1.2736805409986118,742.0145183750028,,,,,,64,B,2025-02-10_08h27.01.543,EPIDM,2023.1.2,59.98465880364132,
6020.jpg,6300.jpg,2 Points,2 Points,47 points,PS2_L1.csv,,,,,,,,,,,,,,,,,,,,,,,,,,,,,0,0,0,0,0,16,16,16,,,,,,,,,,,,,,,,,,,746.2481837080013,q,2.0112998750009865,748.3199527920005,,,,,,64,B,2025-02-10_08h27.01.543,EPIDM,2023.1.2,59.98465880364132,
1942.jpg,2890.jpg,1 Points,1 Points,48 points,PS2_L1.csv,,,,,,,,,,,,,,,,,,,,,,,,,,,,,0,0,0,0,0,17,17,17,,,,,,,,,,,,,,,,,,,752.5588515830023,q,1.2837164999982633,753.9066624170009,,,,,,64,B,2025-02-10_08h27.01.543,EPIDM,2023.1.2,59.98465880364132,
6241.jpg,9561.jpg,3 Points,3 Points,51 points,PS2_L1.csv,,,,,,,,,,,,,,,,,,,,,,,,,,,,,0,0,0,0,0,18,18,18,,,,,,,,,,,,,,,,,,,758.1477469580022,p,1.095511291998264,759.3166827080022,,,,,,64,B,2025-02-10_08h27.01.543,EPIDM,2023.1.2,59.98465880364132,
4536.jpg,2280.jpg,4 Points,4 Points,55 points,PS2_L1.csv,,,,,,,,,,,,,,,,,,,,,,,,,,,,,0,0,0,0,0,19,19,19,,,,,,,,,,,,,,,,,,,763.5561227920007,q,1.463482249997469,765.100863458003,,,,,,64,B,2025-02-10_08h27.01.543,EPIDM,2023.1.2,59.98465880364132,
6000.jpg,6836.jpg,4 Points,4 Points,59 points,PS2_L1.csv,,,,,,,,,,,,,,,,,,,,,,,,,,,,,0,0,0,0,0,20,20,20,,,,,,,,,,,,,,,,,,,769.3444496250013,q,2.3863483749992156,771.796578583002,,,,,,64,B,2025-02-10_08h27.01.543,EPIDM,2023.1.2,59.98465880364132,
8232.jpg,4279.jpg,5 Points,5 Points,64 points,PS2_L1.csv,,,,,,,,,,,,,,,,,,,,,,,,,,,,,0,0,0,0,0,21,21,21,,,,,,,,,,,,,,,,,,,776.0356047920031,p,1.4384248329988623,777.5561321670029,,,,,,64,B,2025-02-10_08h27.01.543,EPIDM,2023.1.2,59.98465880364132,
2312.jpg,2722.jpg,1 Points,1 Points,65 points,PS2_L1.csv,,,,,,,,,,,,,,,,,,,,,,,,,,,,,0,0,0,0,0,22,22,22,,,,,,,,,,,,,,,,,,,781.7809825420009,q,1.494031291000283,783.3410892920001,,,,,,64,B,2025-02-10_08h27.01.543,EPIDM,2023.1.2,59.98465880364132,
2750.jpg,9050.jpg,4 Points,4 Points,69 points,PS2_L1.csv,,,,,,,,,,,,,,,,,,,,,,,,,,,,,0,0,0,0,0,23,23,23,,,,,,,,,,,,,,,,,,,787.5747394999999,q,1.4352042080026877,789.0677632920015,,,799.5391170000003,space,7.877800540998578,64,B,2025-02-10_08h27.01.543,EPIDM,2023.1.2,59.98465880364132,
1113.jpg,1240.jpg,3 Points,3 Points,72 points,PS2_L2.csv,,,,,,,,,,,,,,,,,,,,,,,,,,,,,0,1,1,1,0,0,0,0,,,,,,,,,,,,,,,,,,,810.7309952080032,p,1.1745842909986095,811.9742657080023,,,,,,64,B,2025-02-10_08h27.01.543,EPIDM,2023.1.2,59.98465880364132,
8220.jpg,2410.jpg,4 Points,4 Points,76 points,PS2_L2.csv,,,,,,,,,,,,,,,,,,,,,,,,,,,,,0,1,1,1,0,1,1,1,,,,,,,,,,,,,,,,,,,816.2125040000028,q,0.5816122079995694,816.872477375,4,2.1153795829995943,,,,64,B,2025-02-10_08h27.01.543,EPIDM,2023.1.2,59.98465880364132,
4621.jpg,3550.jpg,2 Points,2 Points,78 points,PS2_L2.csv,,,,,,,,,,,,,,,,,,,,,,,,,,,,,0,1,1,1,0,2,2,2,,,,,,,,,,,,,,,,,,,823.297916208001,q,1.479165123997518,824.8449052080032,,,,,,64,B,2025-02-10_08h27.01.543,EPIDM,2023.1.2,59.98465880364132,
2751.jpg,6313.jpg,3 Points,3 Points,81 points,PS2_L2.csv,,,,,,,,,,,,,,,,,,,,,,,,,,,,,0,1,1,1,0,3,3,3,,,,,,,,,,,,,,,,,,,829.0968921250023,q,1.4405039160010347,830.6037297080002,,,,,,64,B,2025-02-10_08h27.01.543,EPIDM,2023.1.2,59.98465880364132,
4689.jpg,7009.jpg,5 Points,5 Points,86 points,PS2_L2.csv,,,,,,,,,,,,,,,,,,,,,,,,,,,,,0,1,1,1,0,4,4,4,,,,,,,,,,,,,,,,,,,834.8503511670024,p,1.1191521669970825,836.0481026250018,,,,,,64,B,2025-02-10_08h27.01.543,EPIDM,2023.1.2,59.98465880364132,
6831.jpg,2141.jpg,5 Points,5 Points,91 points,PS2_L2.csv,,,,,,,,,,,,,,,,,,,,,,,,,,,,,0,1,1,1,0,5,5,5,,,,,,,,,,,,,,,,,,,840.2802511250011,p,1.6734226659973501,842.0160560000004,,,,,,64,B,2025-02-10_08h27.01.543,EPIDM,2023.1.2,59.98465880364132,
9417.jpg,6530.jpg,1 Point,1 Point,92 points,PS2_L2.csv,,,,,,,,,,,,,,,,,,,,,,,,,,,,,0,1,1,1,0,6,6,6,,,,,,,,,,,,,,,,,,,846.2570953750001,p,1.6077025829981721,847.9574899580002,,,,,,64,B,2025-02-10_08h27.01.543,EPIDM,2023.1.2,59.98465880364132,
7237.jpg,8510.jpg,4 Points,4 Points,96 points,PS2_L2.csv,,,,,,,,,,,,,,,,,,,,,,,,,,,,,0,1,1,1,0,7,7,7,,,,,,,,,,,,,,,,,,,852.1908141250024,q,0.8905511660013872,853.1599376670019,,,,,,64,B,2025-02-10_08h27.01.543,EPIDM,2023.1.2,59.98465880364132,
4608.jpg,8320.jpg,1 Point,1 Point,97 points,PS2_L2.csv,,,,,,,,,,,,,,,,,,,,,,,,,,,,,0,1,1,1,0,8,8,8,,,,,,,,,,,,,,,,,,,857.3961624170006,q,1.8608704159996705,859.3213495000018,,,,,,64,B,2025-02-10_08h27.01.543,EPIDM,2023.1.2,59.98465880364132,
9254.jpg,9290.jpg,2 Points,2 Points,99 points,PS2_L2.csv,,,,,,,,,,,,,,,,,,,,,,,,,,,,,0,1,1,1,0,9,9,9,,,,,,,,,,,,,,,,,,,863.5706700830015,p,1.3655599580015405,865.006540792001,,,,,,64,B,2025-02-10_08h27.01.543,EPIDM,2023.1.2,59.98465880364132,
9530.jpg,9220.jpg,1 Point,1 Point,100 points,PS2_L2.csv,,,,,,,,,,,,,,,,,,,,,,,,,,,,,0,1,1,1,0,10,10,10,,,,,,,,,,,,,,,,,,,869.2539545,p,1.3056985410003108,870.6229061670019,,,,,,64,B,2025-02-10_08h27.01.543,EPIDM,2023.1.2,59.98465880364132,
2092.jpg,2210.jpg,0 Points,0 Points,100 points,PS2_L2.csv,,,,,,,,,,,,,,,,,,,,,,,,,,,,,0,1,1,1,0,11,11,11,,,,,,,,,,,,,,,,,,,874.8731067920016,p,0.9522601240023505,875.897579833003,,,,,,64,B,2025-02-10_08h27.01.543,EPIDM,2023.1.2,59.98465880364132,
9500.jpg,6360.jpg,1 Point,1 Point,101 points,PS2_L2.csv,,,,,,,,,,,,,,,,,,,,,,,,,,,,,0,1,1,1,0,12,12,12,,,,,,,,,,,,,,,,,,,880.1468886250004,p,1.646009457999753,881.8556321249998,,,,,,64,B,2025-02-10_08h27.01.543,EPIDM,2023.1.2,59.98465880364132,
2220.jpg,2010.jpg,5 Points,5 Points,106 points,PS2_L2.csv,,,,,,,,,,,,,,,,,,,,,,,,,,,,,0,1,1,1,0,13,13,13,,,,,,,,,,,,,,,,,,,886.0960151250001,q,1.416808415997366,887.5938806670019,1,2.04642991700166,,,,64,B,2025-02-10_08h27.01.543,EPIDM,2023.1.2,59.98465880364132,
5940.jpg,9411.jpg,0 Points,0 Points,106 points,PS2_L2.csv,,,,,,,,,,,,,,,,,,,,,,,,,,,,,0,1,1,1,0,14,14,14,,,,,,,,,,,,,,,,,,,893.9421936670005,q,3.306477582998923,897.3169388330025,,,,,,64,B,2025-02-10_08h27.01.543,EPIDM,2023.1.2,59.98465880364132,
4533.jpg,2385.jpg,3 Points,3 Points,109 points,PS2_L2.csv,,,,,,,,,,,,,,,,,,,,,,,,,,,,,0,1,1,1,0,15,15,15,,,,,,,,,,,,,,,,,,,901.5492787920011,q,1.2028434170024411,902.838481083003,,,,,,64,B,2025-02-10_08h27.01.543,EPIDM,2023.1.2,59.98465880364132,
9340.jpg,6910.jpg,0 Points,0 Points,109 points,PS2_L2.csv,,,,,,,,,,,,,,,,,,,,,,,,,,,,,0,1,1,1,0,16,16,16,,,,,,,,,,,,,,,,,,,907.0733790000013,q,1.6864462080011435,908.8378997920008,,,,,,64,B,2025-02-10_08h27.01.543,EPIDM,2023.1.2,59.98465880364132,
8350.jpg,7190.jpg,5 Points,5 Points,114 points,PS2_L2.csv,,,,,,,,,,,,,,,,,,,,,,,,,,,,,0,1,1,1,0,17,17,17,,,,,,,,,,,,,,,,,,,913.0789910000021,q,0.7764158739992126,913.935680458002,,,,,,64,B,2025-02-10_08h27.01.543,EPIDM,2023.1.2,59.98465880364132,
6211.jpg,9611.jpg,3 Points,3 Points,117 points ,PS2_L2.csv,,,,,,,,,,,,,,,,,,,,,,,,,,,,,0,1,1,1,0,18,18,18,,,,,,,,,,,,,,,,,,,918.1686942080014,p,2.327105249001761,920.5645720419998,,,,,,64,B,2025-02-10_08h27.01.543,EPIDM,2023.1.2,59.98465880364132,
2053.jpg,9415.jpg,4 Points,4 Points,121 points,PS2_L2.csv,,,,,,,,,,,,,,,,,,,,,,,,,,,,,0,1,1,1,0,19,19,19,,,,,,,,,,,,,,,,,,,924.8065877500012,p,3.5926995409972733,928.4664152080004,,,,,,64,B,2025-02-10_08h27.01.543,EPIDM,2023.1.2,59.98465880364132,
2110.jpg,7260.jpg,5 Points,5 Points,126 points,PS2_L2.csv,,,,,,,,,,,,,,,,,,,,,,,,,,,,,0,1,1,1,0,20,20,20,,,,,,,,,,,,,,,,,,,932.724272083,p,1.0914698330016108,933.898036542003,,,,,,64,B,2025-02-10_08h27.01.543,EPIDM,2023.1.2,59.98465880364132,
2030.jpg,2495.jpg,0 Points,0 Points,126 points,PS2_L2.csv,,,,,,,,,,,,,,,,,,,,,,,,,,,,,0,1,1,1,0,21,21,21,,,,,,,,,,,,,,,,,,,938.1348194580023,q,0.7208977080008481,938.9366773330003,,,,,,64,B,2025-02-10_08h27.01.543,EPIDM,2023.1.2,59.98465880364132,
1302.jpg,2700.jpg,3 Points,3 Points,129 points,PS2_L2.csv,,,,,,,,,,,,,,,,,,,,,,,,,,,,,0,1,1,1,0,22,22,22,,,,,,,,,,,,,,,,,,,943.1749572920016,q,1.5604427500002203,944.8023376670026,,,,,,64,B,2025-02-10_08h27.01.543,EPIDM,2023.1.2,59.98465880364132,
9010.jpg,9253.jpg,0 Points,0 Points,129 points,PS2_L2.csv,,,,,,,,,,,,,,,,,,,,,,,,,,,,,0,1,1,1,0,23,23,23,,,,,,,,,,,,,,,,,,,949.0411620420018,q,1.0223243330001424,950.1346906250001,,,960.5865816250007,space,11.325732707999123,64,B,2025-02-10_08h27.01.543,EPIDM,2023.1.2,59.98465880364132,
1303.jpg,2000.jpg,0 Points,0 Points,129 points,PS2_L3.csv,,,,,,,,,,,,,,,,,,,,,,,,,,,,,0,2,2,2,0,0,0,0,,,,,,,,,,,,,,,,,,,975.223743458002,p,0.9745601239992538,976.2679628750011,,,,,,64,B,2025-02-10_08h27.01.543,EPIDM,2023.1.2,59.98465880364132,
2200.jpg,4598.jpg,1 Point,1 Point,130 points,PS2_L3.csv,,,,,,,,,,,,,,,,,,,,,,,,,,,,,0,2,2,2,0,1,1,1,,,,,,,,,,,,,,,,,,,980.5108525000032,p,1.4553171250008745,982.0412295830029,1,1.3700691250014643,,,,64,B,2025-02-10_08h27.01.543,EPIDM,2023.1.2,59.98465880364132,
6190.jpg,3120.jpg,5 Points,5 Points,135 points,PS2_L3.csv,,,,,,,,,,,,,,,,,,,,,,,,,,,,,0,2,2,2,0,2,2,2,,,,,,,,,,,,,,,,,,,987.717496917001,q,1.0165544159972342,988.8151771250014,,,,,,64,B,2025-02-10_08h27.01.543,EPIDM,2023.1.2,59.98465880364132,
2570.jpg,5500.jpg,3 Points,3 Points,138 points,PS2_L3.csv,,,,,,,,,,,,,,,,,,,,,,,,,,,,,0,2,2,2,0,3,3,3,,,,,,,,,,,,,,,,,,,993.0474087920011,p,1.1672289999987697,994.2941885830005,,,,,,64,B,2025-02-10_08h27.01.543,EPIDM,2023.1.2,59.98465880364132,
8460.jpg,8330.jpg,0 Points,0 Points,138 points,PS2_L3.csv,,,,,,,,,,,,,,,,,,,,,,,,,,,,,0,2,2,2,0,4,4,4,,,,,,,,,,,,,,,,,,,998.5301955000032,q,1.748809999000514,1000.3456537920028,,,,,,64,B,2025-02-10_08h27.01.543,EPIDM,2023.1.2,59.98465880364132,
9320.jpg,9007.jpg,0 Points,0 Points,138 points,PS2_L3.csv,,,,,,,,,,,,,,,,,,,,,,,,,,,,,0,2,2,2,0,5,5,5,,,,,,,,,,,,,,,,,,,1004.5897942920019,p,2.9278973330001463,1007.5875205830016,,,,,,64,B,2025-02-10_08h27.01.543,EPIDM,2023.1.2,59.98465880364132,
2650.jpg,4531.jpg,5 Points,5 Points,143 points,PS2_L3.csv,,,,,,,,,,,,,,,,,,,,,,,,,,,,,0,2,2,2,0,6,6,6,,,,,,,,,,,,,,,,,,,1011.8345862500028,q,0.6828716660020291,1012.5959264580015,,,,,,64,B,2025-02-10_08h27.01.543,EPIDM,2023.1.2,59.98465880364132,
4100.jpg,6570.2.jpg,3 Points,3 Points,146 points,PS2_L3.csv,,,,,,,,,,,,,,,,,,,,,,,,,,,,,0,2,2,2,0,7,7,7,,,,,,,,,,,,,,,,,,,1016.8345929580028,q,1.387340375000349,1018.2942109579999,,,,,,64,B,2025-02-10_08h27.01.543,EPIDM,2023.1.2,59.98465880364132,
3102.jpg,F032.jpg,1 Point,1 Point,147 points,PS2_L3.csv,,,,,,,,,,,,,,,,,,,,,,,,,,,,,0,2,2,2,0,8,8,8,,,,,,,,,,,,,,,,,,,1022.530569417002,p,0.9148801669980458,1023.5554155420032,,,,,,64,B,2025-02-10_08h27.01.543,EPIDM,2023.1.2,59.98465880364132,
2240.jpg,5010.jpg,5 Points,5 Points,152 points,PS2_L3.csv,,,,,,,,,,,,,,,,,,,,,,,,,,,,,0,2,2,2,0,9,9,9,,,,,,,,,,,,,,,,,,,1027.7592962920025,q,0.7349245420009538,1028.6149735830004,,,,,,64,B,2025-02-10_08h27.01.543,EPIDM,2023.1.2,59.98465880364132,
4605.jpg,1510.jpg,4 Points,4 Points,156 points,PS2_L3.csv,,,,,,,,,,,,,,,,,,,,,,,,,,,,,0,2,2,2,0,10,10,10,,,,,,,,,,,,,,,,,,,1032.8166829170004,p,1.4215372920007212,1034.311660708001,,,,,,64,B,2025-02-10_08h27.01.543,EPIDM,2023.1.2,59.98465880364132,
9490.jpg,9210.jpg,1 Point,1 Point,157 points,PS2_L3.csv,,,,,,,,,,,,,,,,,,,,,,,,,,,,,0,2,2,2,0,11,11,11,,,,,,,,,,,,,,,,,,,1038.5462837920022,p,0.9811438329998055,1039.5820917920028,,,,,,64,B,2025-02-10_08h27.01.543,EPIDM,2023.1.2,59.98465880364132,
6821.jpg,9622.jpg,2 Points,2 Points,159 points,PS2_L3.csv,,,,,,,,,,,,,,,,,,,,,,,,,,,,,0,2,2,2,0,12,12,12,,,,,,,,,,,,,,,,,,,1043.8296265830031,q,1.6158957500010729,1045.5018564580023,,,,,,64,B,2025-02-10_08h27.01.543,EPIDM,2023.1.2,59.98465880364132,
2681.jpg,7100.jpg,3 Points,3 Points,162 points,PS2_L3.csv,,,,,,,,,,,,,,,,,,,,,,,,,,,,,0,2,2,2,0,13,13,13,,,,,,,,,,,,,,,,,,,1049.7495948329997,p,1.166835041000013,1050.9862851670005,3,1.615146915999503,,,,64,B,2025-02-10_08h27.01.543,EPIDM,2023.1.2,59.98465880364132,
5622.jpg,9156.jpg,4 Points,4 Points,166 points,PS2_L3.csv,,,,,,,,,,,,,,,,,,,,,,,,,,,,,0,2,2,2,0,14,14,14,,,,,,,,,,,,,,,,,,,1056.912761167001,q,1.3316492079975433,1058.3228514580005,,,,,,64,B,2025-02-10_08h27.01.543,EPIDM,2023.1.2,59.98465880364132,
1111.jpg,1040.jpg,0 Points,0 Points,166 points,PS2_L3.csv,,,,,,,,,,,,,,,,,,,,,,,,,,,,,0,2,2,2,0,15,15,15,,,,,,,,,,,,,,,,,,,1062.5549025830005,q,2.9139250829975936,1065.5390236670028,,,,,,64,B,2025-02-10_08h27.01.543,EPIDM,2023.1.2,59.98465880364132,
1112.jpg,6230.jpg,3 Points,3 Points,169 points,PS2_L3.csv,,,,,,,,,,,,,,,,,,,,,,,,,,,,,0,2,2,2,0,16,16,16,,,,,,,,,,,,,,,,,,,1069.7712592080024,q,1.0177544170001056,1070.8642487500001,,,,,,64,B,2025-02-10_08h27.01.543,EPIDM,2023.1.2,59.98465880364132,
8161.jpg,1900.jpg,4 Points,4 Points,173 points,PS2_L3.csv,,,,,,,,,,,,,,,,,,,,,,,,,,,,,0,2,2,2,0,17,17,17,,,,,,,,,,,,,,,,,,,1075.0928265000002,p,1.975632248999318,1077.1511566670015,,,,,,64,B,2025-02-10_08h27.01.543,EPIDM,2023.1.2,59.98465880364132,
9800.jpg,9433.jpg,1 Point,1 Point,174 points,PS2_L3.csv,,,,,,,,,,,,,,,,,,,,,,,,,,,,,0,2,2,2,0,18,18,18,,,,,,,,,,,,,,,,,,,1081.3826726250009,q,2.029690915998799,1083.470212250002,,,,,,64,B,2025-02-10_08h27.01.543,EPIDM,2023.1.2,59.98465880364132,
1390.jpg,9421.jpg,2 Points,2 Points,176 points,PS2_L3.csv,,,,,,,,,,,,,,,,,,,,,,,,,,,,,0,2,2,2,0,19,19,19,,,,,,,,,,,,,,,,,,,1087.721748875003,q,1.1465553749985702,1088.935033083002,,,,,,64,B,2025-02-10_08h27.01.543,EPIDM,2023.1.2,59.98465880364132,
2850.jpg,4532.jpg,3 Points,3 Points,179 points,PS2_L3.csv,,,,,,,,,,,,,,,,,,,,,,,,,,,,,0,2,2,2,0,20,20,20,,,,,,,,,,,,,,,,,,,1093.1798339170018,q,1.5686583749993588,1094.8139463750013,,,,,,64,B,2025-02-10_08h27.01.543,EPIDM,2023.1.2,59.98465880364132,
1560.jpg,8185.jpg,0 Points,0 Points,179 points,PS2_L3.csv,,,,,,,,,,,,,,,,,,,,,,,,,,,,,0,2,2,2,0,21,21,21,,,,,,,,,,,,,,,,,,,1099.0635750420006,p,2.236645666002005,1101.365802417,,,,,,64,B,2025-02-10_08h27.01.543,EPIDM,2023.1.2,59.98465880364132,
6314.jpg,O022.jpg,2 Points,2 Points,181 points,PS2_L3.csv,,,,,,,,,,,,,,,,,,,,,,,,,,,,,0,2,2,2,0,22,22,22,,,,,,,,,,,,,,,,,,,1105.6118074580008,q,1.8320599579965346,1107.5537524170031,,,,,,64,B,2025-02-10_08h27.01.543,EPIDM,2023.1.2,59.98465880364132,
4274.jpg,8160.jpg,2 Points,2 Points,183 points,PS2_L3.csv,,,,,,,,,,,,,,,,,,,,,,,,,,,,,0,2,2,2,0,23,23,23,,,,,,,,,,,,,,,,,,,1111.7579562500032,q,1.2543742499983637,1113.1139987920033,,,1123.572733625002,space,5.087281041000097,64,B,2025-02-10_08h27.01.543,EPIDM,2023.1.2,59.98465880364132,
8117.jpg,2880.jpg,5 Points,5 Points,188 points,PS2_L4.csv,,,,,,,,,,,,,,,,,,,,,,,,,,,,,0,3,3,3,0,0,0,0,,,,,,,,,,,,,,,,,,,1131.9779765830026,q,0.9766544159974728,1133.0303094170013,,,,,,64,B,2025-02-10_08h27.01.543,EPIDM,2023.1.2,59.98465880364132,
3220.jpg,3063.jpg,5 Points,5 Points,193 points,PS2_L4.csv,,,,,,,,,,,,,,,,,,,,,,,,,,,,,0,3,3,3,0,1,1,1,,,,,,,,,,,,,,,,,,,1137.267512167,q,1.2313110409995716,1138.5625257080028,5,1.340385249000974,,,,64,B,2025-02-10_08h27.01.543,EPIDM,2023.1.2,59.98465880364132,
9040.jpg,1120.jpg,3 Points,3 Points,196 points,PS2_L4.csv,,,,,,,,,,,,,,,,,,,,,,,,,,,,,0,3,3,3,0,2,2,2,,,,,,,,,,,,,,,,,,,1144.2178872920013,p,1.4734708750002028,1145.7578954580022,,,,,,64,B,2025-02-10_08h27.01.543,EPIDM,2023.1.2,59.98465880364132,
5030.jpg,1670.jpg,3 Points,3 Points,199 points,PS2_L4.csv,,,,,,,,,,,,,,,,,,,,,,,,,,,,,0,3,3,3,0,3,3,3,,,,,,,,,,,,,,,,,,,1150.003648375001,q,0.5677243330028432,1150.6346226250025,,,,,,64,B,2025-02-10_08h27.01.543,EPIDM,2023.1.2,59.98465880364132,
2276.jpg,6540.jpg,3 Points,3 Points,202 points,PS2_L4.csv,,,,,,,,,,,,,,,,,,,,,,,,,,,,,0,3,3,3,0,4,4,4,,,,,,,,,,,,,,,,,,,1154.8808687920027,q,0.7622272080006951,1155.6929720830012,,,,,,64,B,2025-02-10_08h27.01.543,EPIDM,2023.1.2,59.98465880364132,
1540.jpg,2600.jpg,1 Point,1 Point,203 points,PS2_L4.csv,,,,,,,,,,,,,,,,,,,,,,,,,,,,,0,3,3,3,0,5,5,5,,,,,,,,,,,,,,,,,,,1159.9477807920011,p,1.3267745419980201,1161.3460488750025,,,,,,64,B,2025-02-10_08h27.01.543,EPIDM,2023.1.2,59.98465880364132,
8465.jpg,8400.jpg,1 Point,1 Point,204 points,PS2_L4.csv,,,,,,,,,,,,,,,,,,,,,,,,,,,,,0,3,3,3,0,6,6,6,,,,,,,,,,,,,,,,,,,1165.5921638750006,q,0.5858090000001539,1166.2509848750014,,,,,,64,B,2025-02-10_08h27.01.543,EPIDM,2023.1.2,59.98465880364132,
3110.jpg,9000.jpg,4 Points,4 Points,208 points,PS2_L4.csv,,,,,,,,,,,,,,,,,,,,,,,,,,,,,0,3,3,3,0,7,7,7,,,,,,,,,,,,,,,,,,,1170.4972313750004,p,0.7294459579970862,1171.2969715,,,,,,64,B,2025-02-10_08h27.01.543,EPIDM,2023.1.2,59.98465880364132,
9570.jpg,6610.jpg,0 Points,0 Points,208 points,PS2_L4.csv,,,,,,,,,,,,,,,,,,,,,,,,,,,,,0,3,3,3,0,8,8,8,,,,,,,,,,,,,,,,,,,1175.5472195000002,p,0.5518872079992434,1176.1652331670011,,,,,,64,B,2025-02-10_08h27.01.543,EPIDM,2023.1.2,59.98465880364132,
2690.jpg,9360.jpg,1 Point,1 Point,209 points,PS2_L4.csv,,,,,,,,,,,,,,,,,,,,,,,,,,,,,0,3,3,3,0,9,9,9,,,,,,,,,,,,,,,,,,,1180.4032905830027,p,0.8154841659998056,1181.2890177080008,,,,,,64,B,2025-02-10_08h27.01.543,EPIDM,2023.1.2,59.98465880364132,
8250.jpg,1313.jpg,4 Points,4 Points,213 points,PS2_L4.csv,,,,,,,,,,,,,,,,,,,,,,,,,,,,,0,3,3,3,0,10,10,10,,,,,,,,,,,,,,,,,,,1185.5436506250007,q,0.9073779999998806,1186.531409500003,,,,,,64,B,2025-02-10_08h27.01.543,EPIDM,2023.1.2,59.98465880364132,
3022.jpg,2352.2.jpg,0 Points,0 Points,213 points,PS2_L4.csv,,,,,,,,,,,,,,,,,,,,,,,,,,,,,0,3,3,3,0,11,11,11,,,,,,,,,,,,,,,,,,,1190.760473667,q,1.7214431239990517,1192.5564121250027,,,,,,64,B,2025-02-10_08h27.01.543,EPIDM,2023.1.2,59.98465880364132,
9920.jpg,3068.jpg,5 Points,5 Points,218 points,PS2_L4.csv,,,,,,,,,,,,,,,,,,,,,,,,,,,,,0,3,3,3,0,12,12,12,,,,,,,,,,,,,,,,,,,1196.7921949170013,q,0.9374692489982408,1197.795559625003,,,,,,64,B,2025-02-10_08h27.01.543,EPIDM,2023.1.2,59.98465880364132,
7234.jpg,5533.jpg,3 Points,3 Points,221 points,PS2_L4.csv,,,,,,,,,,,,,,,,,,,,,,,,,,,,,0,3,3,3,0,13,13,13,,,,,,,,,,,,,,,,,,,1202.0401552080002,q,1.77040204199875,1203.8872947080017,3,1.4777182910002011,,,,64,B,2025-02-10_08h27.01.543,EPIDM,2023.1.2,59.98465880364132,
6250.1.jpg,3301.jpg,0 Points,0 Points,221 points,PS2_L4.csv,,,,,,,,,,,,,,,,,,,,,,,,,,,,,0,3,3,3,0,14,14,14,,,,,,,,,,,,,,,,,,,1209.6835302920008,q,0.9022028330000467,1210.6544862920018,,,,,,64,B,2025-02-10_08h27.01.543,EPIDM,2023.1.2,59.98465880364132,
2518.jpg,2381.jpg,1 Point,1 Point,222 points,PS2_L4.csv,,,,,,,,,,,,,,,,,,,,,,,,,,,,,0,3,3,3,0,15,15,15,,,,,,,,,,,,,,,,,,,1214.8940376669998,q,1.2995091659977334,1216.261779542001,,,,,,64,B,2025-02-10_08h27.01.543,EPIDM,2023.1.2,59.98465880364132,
1910.jpg,2575.jpg,2 Points,2 Points,224 points,PS2_L4.csv,,,,,,,,,,,,,,,,,,,,,,,,,,,,,0,3,3,3,0,16,16,16,,,,,,,,,,,,,,,,,,,1220.5163728330008,q,0.7735939580015838,1221.3622310420033,,,,,,64,B,2025-02-10_08h27.01.543,EPIDM,2023.1.2,59.98465880364132,
1275.jpg,3150.jpg,1 Point,1 Point,225 points,PS2_L4.csv,,,,,,,,,,,,,,,,,,,,,,,,,,,,,0,3,3,3,0,17,17,17,,,,,,,,,,,,,,,,,,,1225.6254596670005,q,1.0646549159973802,1226.7709813750007,,,,,,64,B,2025-02-10_08h27.01.543,EPIDM,2023.1.2,59.98465880364132,
2702.jpg,1590.jpg,5 Points,5 Points,230 points,PS2_L4.csv,,,,,,,,,,,,,,,,,,,,,,,,,,,,,0,3,3,3,0,18,18,18,,,,,,,,,,,,,,,,,,,1231.0199195420028,q,0.5493892909980786,1231.643958792003,,,,,,64,B,2025-02-10_08h27.01.543,EPIDM,2023.1.2,59.98465880364132,
8480.jpg,6410.jpg,1 Point,1 Point,231 points,PS2_L4.csv,,,,,,,,,,,,,,,,,,,,,,,,,,,,,0,3,3,3,0,19,19,19,,,,,,,,,,,,,,,,,,,1235.8822812079998,p,0.8878929999991669,1236.8473962080025,,,,,,64,B,2025-02-10_08h27.01.543,EPIDM,2023.1.2,59.98465880364132,
5621.jpg,5534.jpg,3 Points,3 Points,234 points,PS2_L4.csv,,,,,,,,,,,,,,,,,,,,,,,,,,,,,0,3,3,3,0,20,20,20,,,,,,,,,,,,,,,,,,,1241.089098417,q,0.8557374580013857,1242.0181311670021,,,,,,64,B,2025-02-10_08h27.01.543,EPIDM,2023.1.2,59.98465880364132,
5972.jpg,6838.jpg,5 Points,5 Points,239 points,PS2_L4.csv,,,,,,,,,,,,,,,,,,,,,,,,,,,,,0,3,3,3,0,21,21,21,,,,,,,,,,,,,,,,,,,1246.2587159169998,q,2.9254460829979507,1249.261325042,,,,,,64,B,2025-02-10_08h27.01.543,EPIDM,2023.1.2,59.98465880364132,
2580.jpg,8300.jpg,3 Points,3 Points,242 points,PS2_L4.csv,,,,,,,,,,,,,,,,,,,,,,,,,,,,,0,3,3,3,0,22,22,22,,,,,,,,,,,,,,,,,,,1253.491176083,q,1.4534995409994735,1255.0132755420018,,,,,,64,B,2025-02-10_08h27.01.543,EPIDM,2023.1.2,59.98465880364132,
7280.jpg,7160.jpg,0 Points,0 Points,242 points,PS2_L4.csv,,,,,,,,,,,,,,,,,,,,,,,,,,,,,0,3,3,3,0,23,23,23,,,,,,,,,,,,,,,,,,,1259.254238417001,q,1.4269922909988964,1260.7604912920033,,,1271.238817333,space,5.545580917001644,64,B,2025-02-10_08h27.01.543,EPIDM,2023.1.2,59.98465880364132,
6243.jpg,2752.jpg,2 Points,2 Points,244 points,PS2_L5.csv,,,,,,,,,,,,,,,,,,,,,,,,,,,,,0,4,4,4,0,0,0,0,,,,,,,,,,,,,,,,,,,1280.099981833002,p,1.1240416239998012,1281.3030802920002,,,,,,64,B,2025-02-10_08h27.01.543,EPIDM,2023.1.2,59.98465880364132,
8340.jpg,7546.jpg,2 Points,2 Points,246 points,PS2_L5.csv,,,,,,,,,,,,,,,,,,,,,,,,,,,,,0,4,4,4,0,1,1,1,,,,,,,,,,,,,,,,,,,1285.5340021250013,p,1.185121041999082,1286.789003875001,2,1.4198639579990413,,,,64,B,2025-02-10_08h27.01.543,EPIDM,2023.1.2,59.98465880364132,
1022.jpg,6930.jpg,1 Point,1 Point,247 points,PS2_L5.csv,,,,,,,,,,,,,,,,,,,,,,,,,,,,,0,4,4,4,0,2,2,2,,,,,,,,,,,,,,,,,,,1292.5173922499998,p,1.1143194169999333,1293.7043702920018,,,,,,64,B,2025-02-10_08h27.01.543,EPIDM,2023.1.2,59.98465880364132,
7230.jpg,7570.jpg,5 Points,5 Points,252 points,PS2_L5.csv,,,,,,,,,,,,,,,,,,,,,,,,,,,,,0,4,4,4,0,3,3,3,,,,,,,,,,,,,,,,,,,1297.941232792,q,0.8029971249998198,1298.8154822920005,,,,,,64,B,2025-02-10_08h27.01.543,EPIDM,2023.1.2,59.98465880364132,
5760.jpg,1602.jpg,1 Point,1 Point,253 points,PS2_L5.csv,,,,,,,,,,,,,,,,,,,,,,,,,,,,,0,4,4,4,0,4,4,4,,,,,,,,,,,,,,,,,,,1303.0585927080028,q,0.6602263330023561,1303.788948417001,,,,,,64,B,2025-02-10_08h27.01.543,EPIDM,2023.1.2,59.98465880364132,
9584.jpg,3400.jpg,2 Points,2 Points,255 points,PS2_L5.csv,,,,,,,,,,,,,,,,,,,,,,,,,,,,,0,4,4,4,0,5,5,5,,,,,,,,,,,,,,,,,,,1308.0334168750014,q,1.4788327499991283,1309.587269208001,,,,,,64,B,2025-02-10_08h27.01.543,EPIDM,2023.1.2,59.98465880364132,
2560.jpg,5270.jpg,4 Points,4 Points,259 points,PS2_L5.csv,,,,,,,,,,,,,,,,,,,,,,,,,,,,,0,4,4,4,0,6,6,6,,,,,,,,,,,,,,,,,,,1313.8270488330018,q,0.843671540998912,1314.7445208750032,,,,,,64,B,2025-02-10_08h27.01.543,EPIDM,2023.1.2,59.98465880364132,
3350.jpg,3210.jpg,1 Point,1 Point,260 points,PS2_L5.csv,,,,,,,,,,,,,,,,,,,,,,,,,,,,,0,4,4,4,0,7,7,7,,,,,,,,,,,,,,,,,,,1318.983263625003,q,2.223928583000088,1321.2818927080007,,,,,,64,B,2025-02-10_08h27.01.543,EPIDM,2023.1.2,59.98465880364132,
5455.jpg,5220.jpg,0 Points,0 Points,260 points,PS2_L5.csv,,,,,,,,,,,,,,,,,,,,,,,,,,,,,0,4,4,4,0,8,8,8,,,,,,,,,,,,,,,,,,,1325.5267731670028,p,0.9609133749981993,1326.54388225,,,,,,64,B,2025-02-10_08h27.01.543,EPIDM,2023.1.2,59.98465880364132,
7920.jpg,9102.jpg,3 Points,3 Points,263 points,PS2_L5.csv,,,,,,,,,,,,,,,,,,,,,,,,,,,,,0,4,4,4,0,9,9,9,,,,,,,,,,,,,,,,,,,1330.7977352080015,q,1.113018791002105,1331.9928945419997,,,,,,64,B,2025-02-10_08h27.01.543,EPIDM,2023.1.2,59.98465880364132,
1301.jpg,1070.jpg,2 Points,2 Points,265 points,PS2_L5.csv,,,,,,,,,,,,,,,,,,,,,,,,,,,,,0,4,4,4,0,10,10,10,,,,,,,,,,,,,,,,,,,1336.2234410420024,q,1.119877290999284,1337.4256929170006,,,,,,64,B,2025-02-10_08h27.01.543,EPIDM,2023.1.2,59.98465880364132,
5982.jpg,5260.jpg,5 Points,5 Points,270 points,PS2_L5.csv,,,,,,,,,,,,,,,,,,,,,,,,,,,,,0,4,4,4,0,11,11,11,,,,,,,,,,,,,,,,,,,1341.6577876670017,p,1.1491599159962789,1342.8795451670012,,,,,,64,B,2025-02-10_08h27.01.543,EPIDM,2023.1.2,59.98465880364132,
5000.jpg,8180.jpg,4 Points,4 Points,274 points,PS2_L5.csv,,,,,,,,,,,,,,,,,,,,,,,,,,,,,0,4,4,4,0,12,12,12,,,,,,,,,,,,,,,,,,,1347.1090159170017,q,1.640819415999431,1348.8331087920014,,,,,,64,B,2025-02-10_08h27.01.543,EPIDM,2023.1.2,59.98465880364132,
6244.jpg,9265.jpg,0 Points,0 Points,274 points,PS2_L5.csv,,,,,,,,,,,,,,,,,,,,,,,,,,,,,0,4,4,4,0,13,13,13,,,,,,,,,,,,,,,,,,,1353.0629606670009,q,1.3836387079973065,1354.5219973750027,0,1.4862341240004753,,,,64,B,2025-02-10_08h27.01.543,EPIDM,2023.1.2,59.98465880364132,
5990.jpg,5780.jpg,3 Points,3 Points,277 points,PS2_L5.csv,,,,,,,,,,,,,,,,,,,,,,,,,,,,,0,4,4,4,0,14,14,14,,,,,,,,,,,,,,,,,,,1360.289166417002,p,0.877011123997363,1361.2367899580022,,,,,,64,B,2025-02-10_08h27.01.543,EPIDM,2023.1.2,59.98465880364132,
9440.jpg,6350.jpg,4 Points,4 Points,281 points,PS2_L5.csv,,,,,,,,,,,,,,,,,,,,,,,,,,,,,0,4,4,4,0,15,15,15,,,,,,,,,,,,,,,,,,,1365.4833521250002,q,1.7552865830002702,1367.3054288750027,,,,,,64,B,2025-02-10_08h27.01.543,EPIDM,2023.1.2,59.98465880364132,
1850.jpg,5623.jpg,5 Points,5 Points,286 points,PS2_L5.csv,,,,,,,,,,,,,,,,,,,,,,,,,,,,,0,4,4,4,0,16,16,16,,,,,,,,,,,,,,,,,,,1371.5523693330033,p,1.1019378329983738,1372.727000083003,,,,,,64,B,2025-02-10_08h27.01.543,EPIDM,2023.1.2,59.98465880364132,
5200.jpg,5020.jpg,0 Points,0 Points,286 points,PS2_L5.csv,,,,,,,,,,,,,,,,,,,,,,,,,,,,,0,4,4,4,0,17,17,17,,,,,,,,,,,,,,,,,,,1376.9685456250008,q,1.1744548739989114,1378.226518083,,,,,,64,B,2025-02-10_08h27.01.543,EPIDM,2023.1.2,59.98465880364132,
P211.jpg,9041.jpg,4 Points,4 Points,290 points,PS2_L5.csv,,,,,,,,,,,,,,,,,,,,,,,,,,,,,0,4,4,4,0,18,18,18,,,,,,,,,,,,,,,,,,,1382.4560379579998,p,0.742832083000394,1383.305787792,,,,,,64,B,2025-02-10_08h27.01.543,EPIDM,2023.1.2,59.98465880364132,
5600.jpg,9080.jpg,5 Points,5 Points,295 points,PS2_L5.csv,,,,,,,,,,,,,,,,,,,,,,,,,,,,,0,4,4,4,0,19,19,19,,,,,,,,,,,,,,,,,,,1387.5124982920024,q,0.42056254199997056,1388.012094875001,,,,,,64,B,2025-02-10_08h27.01.543,EPIDM,2023.1.2,59.98465880364132,
6800.jpg,9190.jpg,0 Points,0 Points,295 points,PS2_L5.csv,,,,,,,,,,,,,,,,,,,,,,,,,,,,,0,4,4,4,0,20,20,20,,,,,,,,,,,,,,,,,,,1392.2415917500002,p,0.9809340409992728,1393.2899786250018,,,,,,64,B,2025-02-10_08h27.01.543,EPIDM,2023.1.2,59.98465880364132,
3280.jpg,9270.jpg,0 Points,0 Points,295 points,PS2_L5.csv,,,,,,,,,,,,,,,,,,,,,,,,,,,,,0,4,4,4,0,21,21,21,,,,,,,,,,,,,,,,,,,1397.5217065830002,q,1.1640740409966384,1398.7353029170008,,,,,,64,B,2025-02-10_08h27.01.543,EPIDM,2023.1.2,59.98465880364132,
4613.jpg,2720.jpg,4 Points,4 Points,299 points,PS2_L5.csv,,,,,,,,,,,,,,,,,,,,,,,,,,,,,0,4,4,4,0,22,22,22,,,,,,,,,,,,,,,,,,,1403.0054293330031,q,1.392912957999215,1404.4644928330017,,,,,,64,B,2025-02-10_08h27.01.543,EPIDM,2023.1.2,59.98465880364132,
1930.jpg,9008.jpg,1 Point,1 Point,300 points,PS2_L5.csv,,,,,,,,,,,,,,,,,,,,,,,,,,,,,0,4,4,4,0,23,23,23,,,,,,,,,,,,,,,,,,,1408.711536625,q,0.9502557910018368,1409.7308181670014,,,1420.2267536250001,space,5.018305375000637,64,B,2025-02-10_08h27.01.543,EPIDM,2023.1.2,59.98465880364132,
2190.jpg,7503.jpg,2 Points,2 Points,302 points,PS2_L6.csv,,,,,,,,,,,,,,,,,,,,,,,,,,,,,0,5,5,5,0,0,0,0,,,,,,,,,,,,,,,,,,,1428.564047625001,q,0.6974096250014554,1429.3348145000018,,,,,,64,B,2025-02-10_08h27.01.543,EPIDM,2023.1.2,59.98465880364132,
2490.jpg,2590.jpg,4 Points,4 Points,306 points,PS2_L6.csv,,,,,,,,,,,,,,,,,,,,,,,,,,,,,0,5,5,5,0,1,1,1,,,,,,,,,,,,,,,,,,,1433.567423708002,p,1.5093238330009626,1435.144974875002,4,1.111606665999716,,,,64,B,2025-02-10_08h27.01.543,EPIDM,2023.1.2,59.98465880364132,
9592.jpg,1300.jpg,2 Points,2 Points,308 points,PS2_L6.csv,,,,,,,,,,,,,,,,,,,,,,,,,,,,,0,5,5,5,0,2,2,2,,,,,,,,,,,,,,,,,,,1440.5714491670005,q,1.3931494579992432,1442.035280125001,,,,,,64,B,2025-02-10_08h27.01.543,EPIDM,2023.1.2,59.98465880364132,
8230.jpg,2682.jpg,5 Points,5 Points,313 points,PS2_L6.csv,,,,,,,,,,,,,,,,,,,,,,,,,,,,,0,5,5,5,0,3,3,3,,,,,,,,,,,,,,,,,,,1446.278097917002,p,0.6616190420027124,1447.0022103750016,,,,,,64,B,2025-02-10_08h27.01.543,EPIDM,2023.1.2,59.98465880364132,
9090.jpg,7580.jpg,3 Points,3 Points,316 points,PS2_L6.csv,,,,,,,,,,,,,,,,,,,,,,,,,,,,,0,5,5,5,0,4,4,4,,,,,,,,,,,,,,,,,,,1451.253348125003,p,0.9670974990003742,1452.2989858330002,,,,,,64,B,2025-02-10_08h27.01.543,EPIDM,2023.1.2,59.98465880364132,
3530.jpg,6213.jpg,1 Point,1 Point,317 points,PS2_L6.csv,,,,,,,,,,,,,,,,,,,,,,,,,,,,,0,5,5,5,0,5,5,5,,,,,,,,,,,,,,,,,,,1456.5416954170032,p,1.1351247919992602,1457.7435776250022,,,,,,64,B,2025-02-10_08h27.01.543,EPIDM,2023.1.2,59.98465880364132,
1640.jpg,5531.jpg,3 Points,3 Points,320 points,PS2_L6.csv,,,,,,,,,,,,,,,,,,,,,,,,,,,,,0,5,5,5,0,6,6,6,,,,,,,,,,,,,,,,,,,1461.9875905420013,q,1.0159507909993408,1463.0850291250026,,,,,,64,B,2025-02-10_08h27.01.543,EPIDM,2023.1.2,59.98465880364132,
3064.jpg,3168.jpg,4 Points,4 Points,324 points,PS2_L6.csv,,,,,,,,,,,,,,,,,,,,,,,,,,,,,0,5,5,5,0,7,7,7,,,,,,,,,,,,,,,,,,,1467.3142713330017,p,1.2582710419992509,1468.6498412500005,,,,,,64,B,2025-02-10_08h27.01.543,EPIDM,2023.1.2,59.98465880364132,
2710.jpg,9252.jpg,1 Point,1 Point,325 points,PS2_L6.csv,,,,,,,,,,,,,,,,,,,,,,,,,,,,,0,5,5,5,0,8,8,8,,,,,,,,,,,,,,,,,,,1472.8966012920027,q,1.9385102080013894,1474.9060654580026,,,,,,64,B,2025-02-10_08h27.01.543,EPIDM,2023.1.2,59.98465880364132,
2260.jpg,2830.jpg,5 Points,5 Points,330 points,PS2_L6.csv,,,,,,,,,,,,,,,,,,,,,,,,,,,,,0,5,5,5,0,9,9,9,,,,,,,,,,,,,,,,,,,1479.1494607500026,q,0.8705732500020531,1480.0943462080031,,,,,,64,B,2025-02-10_08h27.01.543,EPIDM,2023.1.2,59.98465880364132,
6510.jpg,A074.jpg,2 Points,2 Points,332 points,PS2_L6.csv,,,,,,,,,,,,,,,,,,,,,,,,,,,,,0,5,5,5,0,10,10,10,,,,,,,,,,,,,,,,,,,1484.3398425420019,q,1.3996735410000838,1485.8625195830027,,,,,,64,B,2025-02-10_08h27.01.543,EPIDM,2023.1.2,59.98465880364132,
5300.jpg,2372.jpg,1 Point,1 Point,333 points,PS2_L6.csv,,,,,,,,,,,,,,,,,,,,,,,,,,,,,0,5,5,5,0,11,11,11,,,,,,,,,,,,,,,,,,,1490.060618833002,p,1.3350754579987552,1491.4678189170008,,,,,,64,B,2025-02-10_08h27.01.543,EPIDM,2023.1.2,59.98465880364132,
2749.jpg,7282.jpg,3 Points,3 Points,336 points,PS2_L6.csv,,,,,,,,,,,,,,,,,,,,,,,,,,,,,0,5,5,5,0,12,12,12,,,,,,,,,,,,,,,,,,,1495.7098907500003,q,0.6771307080016413,1496.4612299580003,,,,,,64,B,2025-02-10_08h27.01.543,EPIDM,2023.1.2,59.98465880364132,
3130.jpg,3500.jpg,4 Points,4 Points,340 points,PS2_L6.csv,,,,,,,,,,,,,,,,,,,,,,,,,,,,,0,5,5,5,0,13,13,13,,,,,,,,,,,,,,,,,,,1500.7096711250015,p,0.7493128739988606,1501.529027042001,4,1.7252238329965621,,,,64,B,2025-02-10_08h27.01.543,EPIDM,2023.1.2,59.98465880364132,
6312.jpg,3230.jpg,2 Points,2 Points,342 points,PS2_L6.csv,,,,,,,,,,,,,,,,,,,,,,,,,,,,,0,5,5,5,0,14,14,14,,,,,,,,,,,,,,,,,,,1507.5493530420026,q,0.910031916002481,1508.5201098750003,,,,,,64,B,2025-02-10_08h27.01.543,EPIDM,2023.1.2,59.98465880364132,
2597.jpg,5870.jpg,5 Points,5 Points,347 points,PS2_L6.csv,,,,,,,,,,,,,,,,,,,,,,,,,,,,,0,5,5,5,0,15,15,15,,,,,,,,,,,,,,,,,,,1512.759764292001,q,1.2676430409992463,1514.0966475000023,,,,,,64,B,2025-02-10_08h27.01.543,EPIDM,2023.1.2,59.98465880364132,
8033.jpg,7270.jpg,3 Points,3 Points,350 points,PS2_L6.csv,,,,,,,,,,,,,,,,,,,,,,,,,,,,,0,5,5,5,0,16,16,16,,,,,,,,,,,,,,,,,,,1518.3346380420007,p,1.5886349989996233,1519.9846002500017,,,,,,64,B,2025-02-10_08h27.01.543,EPIDM,2023.1.2,59.98465880364132,
3170.jpg,6560.jpg,2 Points,2 Points,352 points,PS2_L6.csv,,,,,,,,,,,,,,,,,,,,,,,,,,,,,0,5,5,5,0,17,17,17,,,,,,,,,,,,,,,,,,,1524.233802042003,q,1.3847257909983455,1525.683176333001,,,,,,64,B,2025-02-10_08h27.01.543,EPIDM,2023.1.2,59.98465880364132,
6242.jpg,F034.jpg,4 Points,4 Points,356 points,PS2_L6.csv,,,,,,,,,,,,,,,,,,,,,,,,,,,,,0,5,5,5,0,18,18,18,,,,,,,,,,,,,,,,,,,1529.9351905420008,p,1.4193293749995064,1531.4626204170017,,,,,,64,B,2025-02-10_08h27.01.543,EPIDM,2023.1.2,59.98465880364132,
2485.jpg,7350.jpg,0 Points,0 Points,356 points,PS2_L6.csv,,,,,,,,,,,,,,,,,,,,,,,,,,,,,0,5,5,5,0,19,19,19,,,,,,,,,,,,,,,,,,,1535.6649610830027,p,2.1376772490002622,1537.8767465830024,,,,,,64,B,2025-02-10_08h27.01.543,EPIDM,2023.1.2,59.98465880364132,
2900.jpg,1101.jpg,3 Points,3 Points,359 points,PS2_L6.csv,,,,,,,,,,,,,,,,,,,,,,,,,,,,,0,5,5,5,0,20,20,20,,,,,,,,,,,,,,,,,,,1542.1151213750018,p,1.135056708000775,1543.3204410420003,,,,,,64,B,2025-02-10_08h27.01.543,EPIDM,2023.1.2,59.98465880364132,
7002.jpg,4660.jpg,4 Points,4 Points,363 points,PS2_L6.csv,,,,,,,,,,,,,,,,,,,,,,,,,,,,,0,5,5,5,0,21,21,21,,,,,,,,,,,,,,,,,,,1547.5514834170026,q,0.9391685409973434,1548.5699651249997,,,,,,64,B,2025-02-10_08h27.01.543,EPIDM,2023.1.2,59.98465880364132,
A025.jpg,1051.jpg,0 Points,0 Points,363 points,PS2_L6.csv,,,,,,,,,,,,,,,,,,,,,,,,,,,,,0,5,5,5,0,22,22,22,,,,,,,,,,,,,,,,,,,1552.793639958003,q,1.952206333000504,1554.8549244580026,,,,,,64,B,2025-02-10_08h27.01.543,EPIDM,2023.1.2,59.98465880364132,
4510.jpg,2230.jpg,5 Points,5 Points,368 points,PS2_L6.csv,,,,,,,,,,,,,,,,,,,,,,,,,,,,,0,5,5,5,0,23,23,23,,,,,,,,,,,,,,,,,,,1559.0512197919998,q,1.0945982500015816,1560.2401619580014,,,1570.6950151670026,space,5.46729554200283,64,B,2025-02-10_08h27.01.543,EPIDM,2023.1.2,59.98465880364132,
2383.jpg,1616.jpg,2 Points,2 Points,370 points,PS2_L7.csv,,,,,,,,,,,,,,,,,,,,,,,,,,,,,0,6,6,6,0,0,0,0,,,,,,,,,,,,,,,,,,,1579.4643053750005,q,0.4965036239991605,1580.0411644170017,,,,,,64,B,2025-02-10_08h27.01.543,EPIDM,2023.1.2,59.98465880364132,
1310.jpg,3181.jpg,4 Points,4 Points,374 points,PS2_L7.csv,,,,,,,,,,,,,,,,,,,,,,,,,,,,,0,6,6,6,0,1,1,1,,,,,,,,,,,,,,,,,,,1584.2744641250029,p,1.389943124999263,1585.7290135420008,4,1.3385498739989998,,,,64,B,2025-02-10_08h27.01.543,EPIDM,2023.1.2,59.98465880364132,
7289.jpg,4534.jpg,0 Points,0 Points,374 points,PS2_L7.csv,,,,,,,,,,,,,,,,,,,,,,,,,,,,,0,6,6,6,0,2,2,2,,,,,,,,,,,,,,,,,,,1591.376937625002,p,0.6639829580017249,1592.1208120830015,,,,,,64,B,2025-02-10_08h27.01.543,EPIDM,2023.1.2,59.98465880364132,
6010.jpg,7361.jpg,2 Points,2 Points,376 points,PS2_L7.csv,,,,,,,,,,,,,,,,,,,,,,,,,,,,,0,6,6,6,0,3,3,3,,,,,,,,,,,,,,,,,,,1596.3503472500015,q,1.9307333739998285,1598.351951208002,,,,,,64,B,2025-02-10_08h27.01.543,EPIDM,2023.1.2,59.98465880364132,
2661.jpg,2870.jpg,5 Points,5 Points,381 points,PS2_L7.csv,,,,,,,,,,,,,,,,,,,,,,,,,,,,,0,6,6,6,0,4,4,4,,,,,,,,,,,,,,,,,,,1602.5881508330021,q,2.0771044999964943,1604.7340396250002,,,,,,64,B,2025-02-10_08h27.01.543,EPIDM,2023.1.2,59.98465880364132,
7220.jpg,8090.jpg,2 Points,2 Points,383 points,PS2_L7.csv,,,,,,,,,,,,,,,,,,,,,,,,,,,,,0,6,6,6,0,5,5,5,,,,,,,,,,,,,,,,,,,1608.9831792920013,q,0.5457317500004137,1609.5999595419999,,,,,,64,B,2025-02-10_08h27.01.543,EPIDM,2023.1.2,59.98465880364132,
9140.jpg,2810.jpg,3 Points,3 Points,386 points,PS2_L7.csv,,,,,,,,,,,,,,,,,,,,,,,,,,,,,0,6,6,6,0,6,6,6,,,,,,,,,,,,,,,,,,,1613.8426238749998,p,1.0061661250001634,1614.9058959169997,,,,,,64,B,2025-02-10_08h27.01.543,EPIDM,2023.1.2,59.98465880364132,
2516.jpg,8500.jpg,4 Points,4 Points,390 points,PS2_L7.csv,,,,,,,,,,,,,,,,,,,,,,,,,,,,,0,6,6,6,0,7,7,7,,,,,,,,,,,,,,,,,,,1619.153452583003,q,0.4630414999992354,1619.6966295420025,,,,,,64,B,2025-02-10_08h27.01.543,EPIDM,2023.1.2,59.98465880364132,
9070.jpg,9420.jpg,2 Points,2 Points,392 points,PS2_L7.csv,,,,,,,,,,,,,,,,,,,,,,,,,,,,,0,6,6,6,0,8,8,8,,,,,,,,,,,,,,,,,,,1623.9423565830002,q,0.4095218330003263,1624.428615292003,,,,,,64,B,2025-02-10_08h27.01.543,EPIDM,2023.1.2,59.98465880364132,
6561.jpg,1525.jpg,2 Points,2 Points,394 points,PS2_L7.csv,,,,,,,,,,,,,,,,,,,,,,,,,,,,,0,6,6,6,0,9,9,9,,,,,,,,,,,,,,,,,,,1628.666092958003,q,1.390553582998109,1630.1159421250013,,,,,,64,B,2025-02-10_08h27.01.543,EPIDM,2023.1.2,59.98465880364132,
7175.jpg,7490.jpg,2 Points,2 Points,396 points,PS2_L7.csv,,,,,,,,,,,,,,,,,,,,,,,,,,,,,0,6,6,6,0,10,10,10,,,,,,,,,,,,,,,,,,,1634.3696354580024,q,0.5022981660004007,1634.9429765000023,,,,,,64,B,2025-02-10_08h27.01.543,EPIDM,2023.1.2,59.98465880364132,
8010.jpg,2630.jpg,0 Points,0 Points,396 points,PS2_L7.csv,,,,,,,,,,,,,,,,,,,,,,,,,,,,,0,6,6,6,0,11,11,11,,,,,,,,,,,,,,,,,,,1639.178775458,q,0.43623449900042033,1639.6897373749998,,,,,,64,B,2025-02-10_08h27.01.543,EPIDM,2023.1.2,59.98465880364132,
F174.jpg,9404.jpg,5 Points,5 Points,401 points,PS2_L7.csv,,,,,,,,,,,,,,,,,,,,,,,,,,,,,0,6,6,6,0,12,12,12,,,,,,,,,,,,,,,,,,,1643.9223141250004,q,1.3412370000005467,1645.3776818330007,,,,,,64,B,2025-02-10_08h27.01.543,EPIDM,2023.1.2,59.98465880364132,
2692.jpg,8231.jpg,4 Points,4 Points,405 points,PS2_L7.csv,,,,,,,,,,,,,,,,,,,,,,,,,,,,,0,6,6,6,0,13,13,13,,,,,,,,,,,,,,,,,,,1649.582978958002,p,1.3443832080010907,1651.0342272920025,4,1.4556968750002852,,,,64,B,2025-02-10_08h27.01.543,EPIDM,2023.1.2,59.98465880364132,
5994.jpg,5390.jpg,0 Points,0 Points,405 points,PS2_L7.csv,,,,,,,,,,,,,,,,,,,,,,,,,,,,,0,6,6,6,0,14,14,14,,,,,,,,,,,,,,,,,,,1656.7591485830017,q,0.4477253330005624,1657.2688349580021,,,,,,64,B,2025-02-10_08h27.01.543,EPIDM,2023.1.2,59.98465880364132,
9560.jpg,3071.jpg,1 Point,1 Point,406 points,PS2_L7.csv,,,,,,,,,,,,,,,,,,,,,,,,,,,,,0,6,6,6,0,15,15,15,,,,,,,,,,,,,,,,,,,1661.5225872920018,q,0.9882099579990609,1662.5824669170033,,,,,,64,B,2025-02-10_08h27.01.543,EPIDM,2023.1.2,59.98465880364132,
9330.jpg,3015.jpg,5 Points,5 Points,411 points,PS2_L7.csv,,,,,,,,,,,,,,,,,,,,,,,,,,,,,0,6,6,6,0,16,16,16,,,,,,,,,,,,,,,,,,,1666.8199183329998,q,1.0838563750003232,1667.9759573750016,,,,,,64,B,2025-02-10_08h27.01.543,EPIDM,2023.1.2,59.98465880364132,
2389.jpg,7320.jpg,0 Points,0 Points,411 points,PS2_L7.csv,,,,,,,,,,,,,,,,,,,,,,,,,,,,,0,6,6,6,0,17,17,17,,,,,,,,,,,,,,,,,,,1672.2157860000007,q,0.9836386659990239,1673.280845792,,,,,,64,B,2025-02-10_08h27.01.543,EPIDM,2023.1.2,59.98465880364132,
6570.1.jpg,9432.jpg,5 Points,5 Points,416 points,PS2_L7.csv,,,,,,,,,,,,,,,,,,,,,,,,,,,,,0,6,6,6,0,18,18,18,,,,,,,,,,,,,,,,,,,1677.5229945420033,p,0.7398614170015207,1678.337282667002,,,,,,64,B,2025-02-10_08h27.01.543,EPIDM,2023.1.2,59.98465880364132,
9452.jpg,7184.jpg,4 Points,4 Points,420 points,PS2_L7.csv,,,,,,,,,,,,,,,,,,,,,,,,,,,,,0,6,6,6,0,19,19,19,,,,,,,,,,,,,,,,,,,1682.5819762500032,p,1.5767516660016554,1684.230728458002,,,,,,64,B,2025-02-10_08h27.01.543,EPIDM,2023.1.2,59.98465880364132,
5120.jpg,5520.jpg,2 Points,2 Points,422 points,PS2_L7.csv,,,,,,,,,,,,,,,,,,,,,,,,,,,,,0,6,6,6,0,20,20,20,,,,,,,,,,,,,,,,,,,1688.461887583002,p,1.1840425419977691,1689.716670875001,,,,,,64,B,2025-02-10_08h27.01.543,EPIDM,2023.1.2,59.98465880364132,
5970.jpg,3300.jpg,0 Points,0 Points,422 points,PS2_L7.csv,,,,,,,,,,,,,,,,,,,,,,,,,,,,,0,6,6,6,0,21,21,21,,,,,,,,,,,,,,,,,,,1693.955723500003,q,1.5380469159972563,1695.563415042001,,,,,,64,B,2025-02-10_08h27.01.543,EPIDM,2023.1.2,59.98465880364132,
7620.jpg,5395.jpg,1 Point,1 Point,423 points,PS2_L7.csv,,,,,,,,,,,,,,,,,,,,,,,,,,,,,0,6,6,6,0,22,22,22,,,,,,,,,,,,,,,,,,,1699.810877,q,1.1144172079984855,1700.9899040420023,,,,,,64,B,2025-02-10_08h27.01.543,EPIDM,2023.1.2,59.98465880364132,
P019.jpg,F158.jpg,3 Points,3 Points,426 points,PS2_L7.csv,,,,,,,,,,,,,,,,,,,,,,,,,,,,,0,6,6,6,0,23,23,23,,,,,,,,,,,,,,,,,,,1705.244813833,p,1.3856252080004197,1706.769916125002,,,1717.193288792001,space,6.612948332996893,64,B,2025-02-10_08h27.01.543,EPIDM,2023.1.2,59.98465880364132,
2620.jpg,2594.jpg,0 Points,0 Points,426 points,PS2_L8.csv,,,,,,,,,,,,,,,,,,,,,,,,,,,,,0,7,7,7,0,0,0,0,,,,,,,,,,,,,,,,,,,1727.108218917001,p,1.2332224159981706,1728.444175167002,,,,,,64,B,2025-02-10_08h27.01.543,EPIDM,2023.1.2,59.98465880364132,
F369.jpg,3100.jpg,2 Points,2 Points,428 points,PS2_L8.csv,,,,,,,,,,,,,,,,,,,,,,,,,,,,,0,7,7,7,0,1,1,1,,,,,,,,,,,,,,,,,,,1732.6517510830017,q,0.6822884989996965,1733.4279396250022,2,1.4067880829970818,,,,64,B,2025-02-10_08h27.01.543,EPIDM,2023.1.2,59.98465880364132,
1052.jpg,1201.jpg,3 Points,3 Points,431 points,PS2_L8.csv,,,,,,,,,,,,,,,,,,,,,,,,,,,,,0,7,7,7,0,2,2,2,,,,,,,,,,,,,,,,,,,1739.1480005420017,q,2.065731249000237,1741.2887292500018,,,,,,64,B,2025-02-10_08h27.01.543,EPIDM,2023.1.2,59.98465880364132,
2606.jpg,2480.jpg,1 Point,1 Point,432 points,PS2_L8.csv,,,,,,,,,,,,,,,,,,,,,,,,,,,,,0,7,7,7,0,3,3,3,,,,,,,,,,,,,,,,,,,1745.5315745000007,p,1.3859716239967383,1746.9853035000015,,,,,,64,B,2025-02-10_08h27.01.543,EPIDM,2023.1.2,59.98465880364132,
9594.jpg,1080.jpg,4 Points,4 Points,436 points,PS2_L8.csv,,,,,,,,,,,,,,,,,,,,,,,,,,,,,0,7,7,7,0,4,4,4,,,,,,,,,,,,,,,,,,,1751.2369551670017,p,1.0581113739972352,1752.3648575830011,,,,,,64,B,2025-02-10_08h27.01.543,EPIDM,2023.1.2,59.98465880364132,
4770.jpg,4275.jpg,3 Points,3 Points,439 points,PS2_L8.csv,,,,,,,,,,,,,,,,,,,,,,,,,,,,,0,7,7,7,0,5,5,5,,,,,,,,,,,,,,,,,,,1756.6004515830027,q,0.7642895419994602,1757.448263917002,,,,,,64,B,2025-02-10_08h27.01.543,EPIDM,2023.1.2,59.98465880364132,
P077.jpg,A041.jpg,1 Point,1 Point,440 points,PS2_L8.csv,,,,,,,,,,,,,,,,,,,,,,,,,,,,,0,7,7,7,0,6,6,6,,,,,,,,,,,,,,,,,,,1761.6804879580013,p,1.2281625830000849,1763.051833542002,,,,,,64,B,2025-02-10_08h27.01.543,EPIDM,2023.1.2,59.98465880364132,
6550.jpg,9582.jpg,5 Points,5 Points,445 points,PS2_L8.csv,,,,,,,,,,,,,,,,,,,,,,,,,,,,,0,7,7,7,0,7,7,7,,,,,,,,,,,,,,,,,,,1767.2223942920027,p,1.2061924160007038,1768.5413842920025,,,,,,64,B,2025-02-10_08h27.01.543,EPIDM,2023.1.2,59.98465880364132,
8040.jpg,7185.jpg,1 Point,1 Point,446 points,PS2_L8.csv,,,,,,,,,,,,,,,,,,,,,,,,,,,,,0,7,7,7,0,8,8,8,,,,,,,,,,,,,,,,,,,1772.745904958003,q,0.8198149160016328,1773.63449425,,,,,,64,B,2025-02-10_08h27.01.543,EPIDM,2023.1.2,59.98465880364132,
P233.jpg,3060.jpg,1 Point,1 Point,447 points,PS2_L8.csv,,,,,,,,,,,,,,,,,,,,,,,,,,,,,0,7,7,7,0,9,9,9,,,,,,,,,,,,,,,,,,,1777.8659407500018,q,1.8590769170004933,1779.8404380419997,,,,,,64,B,2025-02-10_08h27.01.543,EPIDM,2023.1.2,59.98465880364132,
1090.jpg,P217.jpg,5 Points,5 Points,452 points,PS2_L8.csv,,,,,,,,,,,,,,,,,,,,,,,,,,,,,0,7,7,7,0,10,10,10,,,,,,,,,,,,,,,,,,,1784.0429128329997,q,1.7691044989987859,1785.9202840830003,,,,,,64,B,2025-02-10_08h27.01.543,EPIDM,2023.1.2,59.98465880364132,
9405.jpg,6250.2.jpg,3 Points,3 Points,455 points,PS2_L8.csv,,,,,,,,,,,,,,,,,,,,,,,,,,,,,0,7,7,7,0,11,11,11,,,,,,,,,,,,,,,,,,,1790.119235625003,p,0.6216193330001261,1790.8239258330032,,,,,,64,B,2025-02-10_08h27.01.543,EPIDM,2023.1.2,59.98465880364132,
1610.jpg,F203.jpg,0 Points,0 Points,455 points,PS2_L8.csv,,,,,,,,,,,,,,,,,,,,,,,,,,,,,0,7,7,7,0,12,12,12,,,,,,,,,,,,,,,,,,,1795.059328708001,q,0.6511064170008467,1795.827664417,,,,,,64,B,2025-02-10_08h27.01.543,EPIDM,2023.1.2,59.98465880364132,
P222.jpg,9401.jpg,2 Points,2 Points,457 points,PS2_L8.csv,,,,,,,,,,,,,,,,,,,,,,,,,,,,,0,7,7,7,0,13,13,13,,,,,,,,,,,,,,,,,,,1800.0199585830014,p,1.2080899989996396,1801.3427830830005,2,1.4752174999994168,,,,64,B,2025-02-10_08h27.01.543,EPIDM,2023.1.2,59.98465880364132,
5471.jpg,7352.jpg,2 Points,2 Points,459 points,PS2_L8.csv,,,,,,,,,,,,,,,,,,,,,,,,,,,,,0,7,7,7,0,14,14,14,,,,,,,,,,,,,,,,,,,1807.1052764170017,q,1.8664948750010808,1809.0380804170018,,,,,,64,B,2025-02-10_08h27.01.543,EPIDM,2023.1.2,59.98465880364132,
9042.jpg,2753.jpg,0 Points,0 Points,459 points,PS2_L8.csv,,,,,,,,,,,,,,,,,,,,,,,,,,,,,0,7,7,7,0,15,15,15,,,,,,,,,,,,,,,,,,,1813.282252375,p,2.6889668330004497,1816.0302489170026,,,,,,64,B,2025-02-10_08h27.01.543,EPIDM,2023.1.2,59.98465880364132,
8311.jpg,4609.jpg,2 Points,2 Points,461 points,PS2_L8.csv,,,,,,,,,,,,,,,,,,,,,,,,,,,,,0,7,7,7,0,16,16,16,,,,,,,,,,,,,,,,,,,1820.2850196670006,q,1.2704319990007207,1821.6156952500023,,,,,,64,B,2025-02-10_08h27.01.543,EPIDM,2023.1.2,59.98465880364132,
2320.jpg,2791.jpg,4 Points,4 Points,465 points,PS2_L8.csv,,,,,,,,,,,,,,,,,,,,,,,,,,,,,0,7,7,7,0,17,17,17,,,,,,,,,,,,,,,,,,,1825.8779900420013,q,0.7811745419967338,1826.730385875002,,,,,,64,B,2025-02-10_08h27.01.543,EPIDM,2023.1.2,59.98465880364132,
F365.jpg,3180.jpg,5 Points,5 Points,470 points,PS2_L8.csv,,,,,,,,,,,,,,,,,,,,,,,,,,,,,0,7,7,7,0,18,18,18,,,,,,,,,,,,,,,,,,,1830.9733764170014,p,0.8460863329964923,1831.922131833002,,,,,,64,B,2025-02-10_08h27.01.543,EPIDM,2023.1.2,59.98465880364132,
9300.jpg,1050.jpg,4 Points,4 Points,474 points,PS2_L8.csv,,,,,,,,,,,,,,,,,,,,,,,,,,,,,0,7,7,7,0,19,19,19,,,,,,,,,,,,,,,,,,,1836.1349434170006,p,0.6998927489985363,1836.932736625,,,,,,64,B,2025-02-10_08h27.01.543,EPIDM,2023.1.2,59.98465880364132,
6150.jpg,2206.jpg,0 Points,0 Points,474 points,PS2_L8.csv,,,,,,,,,,,,,,,,,,,,,,,,,,,,,0,7,7,7,0,20,20,20,,,,,,,,,,,,,,,,,,,1841.1468913750032,q,0.9449990829998569,1842.1727289170012,,,,,,64,B,2025-02-10_08h27.01.543,EPIDM,2023.1.2,59.98465880364132,
6260.jpg,3062.jpg,3 Points,3 Points,477 points,PS2_L8.csv,,,,,,,,,,,,,,,,,,,,,,,,,,,,,0,7,7,7,0,21,21,21,,,,,,,,,,,,,,,,,,,1846.4047815000013,q,0.941378124000039,1847.4215453750003,,,,,,64,B,2025-02-10_08h27.01.543,EPIDM,2023.1.2,59.98465880364132,
6571.jpg,P237.jpg,2 Points,2 Points,479 points,PS2_L8.csv,,,,,,,,,,,,,,,,,,,,,,,,,,,,,0,7,7,7,0,22,22,22,,,,,,,,,,,,,,,,,,,1851.6561480420023,q,1.3699566249997588,1853.1363620420016,,,,,,64,B,2025-02-10_08h27.01.543,EPIDM,2023.1.2,59.98465880364132,
7283.jpg,1720.jpg,4 Points,4 Points,483 points,PS2_L8.csv,,,,,,,,,,,,,,,,,,,,,,,,,,,,,0,7,7,7,0,23,23,23,,,,,,,,,,,,,,,,,,,1857.340414667,p,1.39830612500009,1858.815228833002,,,1869.2547130830026,space,9.667105458000151,64,B,2025-02-10_08h27.01.543,EPIDM,2023.1.2,59.98465880364132,
3160.jpg,6210.jpg,1 Point,1 Point,484 points,PS2_L9.csv,,,,,,,,,,,,,,,,,,,,,,,,,,,,,0,8,8,8,0,0,0,0,,,,,,,,,,,,,,,,,,,1882.229879458002,p,0.6044634579993726,1882.9089177080023,,,,,,64,B,2025-02-10_08h27.01.543,EPIDM,2023.1.2,59.98465880364132,
2100.jpg,7205.jpg,5 Points,5 Points,489 points,PS2_L9.csv,,,,,,,,,,,,,,,,,,,,,,,,,,,,,0,8,8,8,0,1,1,1,,,,,,,,,,,,,,,,,,,1887.1468354999997,p,0.7605787079992297,1887.9783771250004,5,1.7668968329999188,,,,64,B,2025-02-10_08h27.01.543,EPIDM,2023.1.2,59.98465880364132,
9110.jpg,3051.jpg,1 Point,1 Point,490 points,PS2_L9.csv,,,,,,,,,,,,,,,,,,,,,,,,,,,,,0,8,8,8,0,2,2,2,,,,,,,,,,,,,,,,,,,1894.046874292002,q,0.47423529099978623,1894.6075021249999,,,,,,64,B,2025-02-10_08h27.01.543,EPIDM,2023.1.2,59.98465880364132,
9101.jpg,9571.jpg,2 Points,2 Points,492 points,PS2_L9.csv,,,,,,,,,,,,,,,,,,,,,,,,,,,,,0,8,8,8,0,3,3,3,,,,,,,,,,,,,,,,,,,1898.8364924170019,q,1.0379439999996976,1899.9471502500019,,,,,,64,B,2025-02-10_08h27.01.543,EPIDM,2023.1.2,59.98465880364132,
5410.jpg,1450.jpg,5 Points,5 Points,497 points,PS2_L9.csv,,,,,,,,,,,,,,,,,,,,,,,,,,,,,0,8,8,8,0,4,4,4,,,,,,,,,,,,,,,,,,,1904.1800043750009,q,0.6212362080004823,1904.8669810420033,,,,,,64,B,2025-02-10_08h27.01.543,EPIDM,2023.1.2,59.98465880364132,
F149.jpg,3030.jpg,0 Points,0 Points,497 points,PS2_L9.csv,,,,,,,,,,,,,,,,,,,,,,,,,,,,,0,8,8,8,0,5,5,5,,,,,,,,,,,,,,,,,,,1909.1219112079998,q,0.9031440830003703,1910.133927125,,,,,,64,B,2025-02-10_08h27.01.543,EPIDM,2023.1.2,59.98465880364132,
3266.jpg,7360.jpg,1 Point,1 Point,498 points,PS2_L9.csv,,,,,,,,,,,,,,,,,,,,,,,,,,,,,0,8,8,8,0,6,6,6,,,,,,,,,,,,,,,,,,,1914.3394835420004,p,0.5415272079990245,1914.9963895,,,,,,64,B,2025-02-10_08h27.01.543,EPIDM,2023.1.2,59.98465880364132,
5660.jpg,5201.jpg,0 Points,0 Points,498 points,PS2_L9.csv,,,,,,,,,,,,,,,,,,,,,,,,,,,,,0,8,8,8,0,7,7,7,,,,,,,,,,,,,,,,,,,1919.1925345000018,p,1.04881849999947,1920.3127524170013,,,,,,64,B,2025-02-10_08h27.01.543,EPIDM,2023.1.2,59.98465880364132,
1945.jpg,2800.jpg,4 Points,4 Points,502 points,PS2_L9.csv,,,,,,,,,,,,,,,,,,,,,,,,,,,,,0,8,8,8,0,8,8,8,,,,,,,,,,,,,,,,,,,1924.5534034580014,q,0.8479555419980898,1925.4756650420022,,,,,,64,B,2025-02-10_08h27.01.543,EPIDM,2023.1.2,59.98465880364132,
3000.jpg,6200.jpg,5 Points,5 Points,507 points,PS2_L9.csv,,,,,,,,,,,,,,,,,,,,,,,,,,,,,0,8,8,8,0,9,9,9,,,,,,,,,,,,,,,,,,,1929.726008083002,p,0.37040924999746494,1930.170418875001,,,,,,64,B,2025-02-10_08h27.01.543,EPIDM,2023.1.2,59.98465880364132,
2215.jpg,2512.jpg,1 Point,1 Point,508 points,PS2_L9.csv,,,,,,,,,,,,,,,,,,,,,,,,,,,,,0,8,8,8,0,10,10,10,,,,,,,,,,,,,,,,,,,1934.4012427080015,q,0.4800255410009413,1934.951993458002,,,,,,64,B,2025-02-10_08h27.01.543,EPIDM,2023.1.2,59.98465880364132,
5460.jpg,5800.jpg,0 Points,0 Points,508 points,PS2_L9.csv,,,,,,,,,,,,,,,,,,,,,,,,,,,,,0,8,8,8,0,11,11,11,,,,,,,,,,,,,,,,,,,1939.1916858330005,p,0.9765215830011584,1940.2481403750025,,,,,,64,B,2025-02-10_08h27.01.543,EPIDM,2023.1.2,59.98465880364132,
3061.jpg,2717.jpg,4 Points,4 Points,512 points,PS2_L9.csv,,,,,,,,,,,,,,,,,,,,,,,,,,,,,0,8,8,8,0,12,12,12,,,,,,,,,,,,,,,,,,,1944.4822332920012,p,0.7738446250004927,1945.3209601670023,,,,,,64,B,2025-02-10_08h27.01.543,EPIDM,2023.1.2,59.98465880364132,
7380.jpg,1220.jpg,1 Point,1 Point,513 points,PS2_L9.csv,,,,,,,,,,,,,,,,,,,,,,,,,,,,,0,8,8,8,0,13,13,13,,,,,,,,,,,,,,,,,,,1949.5594906670012,p,0.792668500002037,1950.4110641670013,1,1.443619541998487,,,,64,B,2025-02-10_08h27.01.543,EPIDM,2023.1.2,59.98465880364132,
1740.jpg,7480.jpg,0 Points,0 Points,513 points,PS2_L9.csv,,,,,,,,,,,,,,,,,,,,,,,,,,,,,0,8,8,8,0,14,14,14,,,,,,,,,,,,,,,,,,,1956.192035250002,p,1.0874802910002472,1957.3503907920021,,,,,,64,B,2025-02-10_08h27.01.543,EPIDM,2023.1.2,59.98465880364132,
7285.jpg,4233.jpg,5 Points,5 Points,518 points,PS2_L9.csv,,,,,,,,,,,,,,,,,,,,,,,,,,,,,0,8,8,8,0,15,15,15,,,,,,,,,,,,,,,,,,,1961.5981834170016,p,0.9615052080007445,1962.6314715420012,,,,,,64,B,2025-02-10_08h27.01.543,EPIDM,2023.1.2,59.98465880364132,
6830.jpg,6212.jpg,4 Points,4 Points,522 points,PS2_L9.csv,,,,,,,,,,,,,,,,,,,,,,,,,,,,,0,8,8,8,0,16,16,16,,,,,,,,,,,,,,,,,,,1966.871531167002,p,1.2244129579994478,1968.1685038329997,,,,,,64,B,2025-02-10_08h27.01.543,EPIDM,2023.1.2,59.98465880364132,
7830.jpg,2499.jpg,3 Points,3 Points,525 points,PS2_L9.csv,,,,,,,,,,,,,,,,,,,,,,,,,,,,,0,8,8,8,0,17,17,17,,,,,,,,,,,,,,,,,,,1972.4056068330028,q,0.7945559580002737,1973.2761548750022,,,,,,64,B,2025-02-10_08h27.01.543,EPIDM,2023.1.2,59.98465880364132,
9520.jpg,1931.jpg,3 Points,3 Points,528 points,PS2_L9.csv,,,,,,,,,,,,,,,,,,,,,,,,,,,,,0,8,8,8,0,18,18,18,,,,,,,,,,,,,,,,,,,1977.5207821250006,p,0.8793291660003888,1978.4665384580003,,,,,,64,B,2025-02-10_08h27.01.543,EPIDM,2023.1.2,59.98465880364132,
9160.jpg,1200.jpg,4 Points,4 Points,532 points,PS2_L9.csv,,,,,,,,,,,,,,,,,,,,,,,,,,,,,0,8,8,8,0,19,19,19,,,,,,,,,,,,,,,,,,,1982.714369333,p,0.7258132489987474,1983.520693458002,,,,,,64,B,2025-02-10_08h27.01.543,EPIDM,2023.1.2,59.98465880364132,
2020.jpg,1947.jpg,5 Points,5 Points,537 points,PS2_L9.csv,,,,,,,,,,,,,,,,,,,,,,,,,,,,,0,8,8,8,0,20,20,20,,,,,,,,,,,,,,,,,,,1987.7539492920005,q,0.5981807909993222,1988.4262297080022,,,,,,64,B,2025-02-10_08h27.01.543,EPIDM,2023.1.2,59.98465880364132,
4535.jpg,1811.jpg,1 Point,1 Point,538 points,PS2_L9.csv,,,,,,,,,,,,,,,,,,,,,,,,,,,,,0,8,8,8,0,21,21,21,,,,,,,,,,,,,,,,,,,1992.6644254580024,q,0.8408258739982557,1993.579106958001,,,,,,64,B,2025-02-10_08h27.01.543,EPIDM,2023.1.2,59.98465880364132,
9910.jpg,6940.jpg,2 Points,2 Points,540 points,PS2_L9.csv,,,,,,,,,,,,,,,,,,,,,,,,,,,,,0,8,8,8,0,22,22,22,,,,,,,,,,,,,,,,,,,1997.8219677080015,p,1.7454056249989662,1999.6379666250032,,,,,,64,B,2025-02-10_08h27.01.543,EPIDM,2023.1.2,59.98465880364132,
9480.jpg,9250.jpg,0 Points,0 Points,540 points,PS2_L9.csv,,,,,,,,,,,,,,,,,,,,,,,,,,,,,0,8,8,8,0,23,23,23,,,,,,,,,,,,,,,,,,,2003.877903333003,p,2.0016590410014032,2005.9392765830016,,,2016.4734500420018,space,7.149813791998895,64,B,2025-02-10_08h27.01.543,EPIDM,2023.1.2,59.98465880364132,
1660.jpg,2840.jpg,2 Points,2 Points,542 points,PS2_L10.csv,,,,,,,,,,,,,,,,,,,,,,,,,,,,,0,9,9,9,0,0,0,0,,,,,,,,,,,,,,,,,,,2026.9305124580023,q,0.5801897500023188,2027.5884609170025,,,,,,64,B,2025-02-10_08h27.01.543,EPIDM,2023.1.2,59.98465880364132,
2691.jpg,7640.jpg,0 Points,0 Points,542 points,PS2_L10.csv,,,,,,,,,,,,,,,,,,,,,,,,,,,,,0,9,9,9,0,1,1,1,,,,,,,,,,,,,,,,,,,2031.8327924170007,p,0.7173682909997297,2032.6237426670014,0,1.3095681669983605,,,,64,B,2025-02-10_08h27.01.543,EPIDM,2023.1.2,59.98465880364132,
9180.jpg,9046.jpg,3 Points,3 Points,545 points,PS2_L10.csv,,,,,,,,,,,,,,,,,,,,,,,,,,,,,0,9,9,9,0,2,2,2,,,,,,,,,,,,,,,,,,,2038.2369230830009,p,0.6093808740006352,2038.9073192080032,,,,,,64,B,2025-02-10_08h27.01.543,EPIDM,2023.1.2,59.98465880364132,
8041.jpg,2271.jpg,2 Points,2 Points,547 points,PS2_L10.csv,,,,,,,,,,,,,,,,,,,,,,,,,,,,,0,9,9,9,0,3,3,3,,,,,,,,,,,,,,,,,,,2043.1540716670024,q,0.3392508329998236,2043.5637555829999,,,,,,64,B,2025-02-10_08h27.01.543,EPIDM,2023.1.2,59.98465880364132,
1661.jpg,1321.jpg,3 Points,3 Points,550 points,PS2_L10.csv,,,,,,,,,,,,,,,,,,,,,,,,,,,,,0,9,9,9,0,4,4,4,,,,,,,,,,,,,,,,,,,2047.8066435830006,p,0.680655583000771,2048.5420038750017,,,,,,64,B,2025-02-10_08h27.01.543,EPIDM,2023.1.2,59.98465880364132,
9430.jpg,3010.jpg,5 Points,5 Points,555 points,PS2_L10.csv,,,,,,,,,,,,,,,,,,,,,,,,,,,,,0,9,9,9,0,5,5,5,,,,,,,,,,,,,,,,,,,2052.793564042,q,1.5805361669990816,2054.4341040420004,,,,,,64,B,2025-02-10_08h27.01.543,EPIDM,2023.1.2,59.98465880364132,
2616.jpg,7238.jpg,4 Points,4 Points,559 points,PS2_L10.csv,,,,,,,,,,,,,,,,,,,,,,,,,,,,,0,9,9,9,0,6,6,6,,,,,,,,,,,,,,,,,,,2058.681919292001,p,0.8673193329996138,2059.618939875003,,,,,,64,B,2025-02-10_08h27.01.543,EPIDM,2023.1.2,59.98465880364132,
9470.jpg,9400.jpg,3 Points,3 Points,562 points,PS2_L10.csv,,,,,,,,,,,,,,,,,,,,,,,,,,,,,0,9,9,9,0,7,7,7,,,,,,,,,,,,,,,,,,,2063.866414250002,q,1.291018083000381,2065.2214067500026,,,,,,64,B,2025-02-10_08h27.01.543,EPIDM,2023.1.2,59.98465880364132,
8260.jpg,8280.jpg,3 Points,3 Points,565 points,PS2_L10.csv,,,,,,,,,,,,,,,,,,,,,,,,,,,,,0,9,9,9,0,8,8,8,,,,,,,,,,,,,,,,,,,2069.465420208002,p,1.1869121659983648,2070.7195485420016,,,,,,64,B,2025-02-10_08h27.01.543,EPIDM,2023.1.2,59.98465880364132,
9230.jpg,9181.jpg,0 Points,0 Points,565 points,PS2_L10.csv,,,,,,,,,,,,,,,,,,,,,,,,,,,,,0,9,9,9,0,9,9,9,,,,,,,,,,,,,,,,,,,2074.965341375002,p,0.967628041998978,2076.0172278750033,,,,,,64,B,2025-02-10_08h27.01.543,EPIDM,2023.1.2,59.98465880364132,
6834.jpg,9120.jpg,5 Points,5 Points,570 points,PS2_L10.csv,,,,,,,,,,,,,,,,,,,,,,,,,,,,,0,9,9,9,0,10,10,10,,,,,,,,,,,,,,,,,,,2080.2589521670016,p,1.5379008329982753,2081.8561975420016,,,,,,64,B,2025-02-10_08h27.01.543,EPIDM,2023.1.2,59.98465880364132,
2440.jpg,7351.jpg,4 Points,4 Points,574 points,PS2_L10.csv,,,,,,,,,,,,,,,,,,,,,,,,,,,,,0,9,9,9,0,11,11,11,,,,,,,,,,,,,,,,,,,2086.104756875,p,0.6681739999985439,2086.851196917003,,,,,,64,B,2025-02-10_08h27.01.543,EPIDM,2023.1.2,59.98465880364132,
9280.jpg,9390.jpg,1 Point,1 Point,575 points,PS2_L10.csv,,,,,,,,,,,,,,,,,,,,,,,,,,,,,0,9,9,9,0,12,12,12,,,,,,,,,,,,,,,,,,,2091.0864428330024,p,1.8950751240008685,2093.0484011670014,,,,,,64,B,2025-02-10_08h27.01.543,EPIDM,2023.1.2,59.98465880364132,
7186.jpg,9182.jpg,2 Points,2 Points,577 points,PS2_L10.csv,,,,,,,,,,,,,,,,,,,,,,,,,,,,,0,9,9,9,0,13,13,13,,,,,,,,,,,,,,,,,,,2097.2916743330024,q,1.1292506659992796,2098.502490542003,2,1.8402798749993963,,,,64,B,2025-02-10_08h27.01.543,EPIDM,2023.1.2,59.98465880364132,
7820.jpg,1121.jpg,0 Points,0 Points,577 points,PS2_L10.csv,,,,,,,,,,,,,,,,,,,,,,,,,,,,,0,9,9,9,0,14,14,14,,,,,,,,,,,,,,,,,,,2104.648449125001,q,1.0033989580006164,2105.728444250002,,,,,,64,B,2025-02-10_08h27.01.543,EPIDM,2023.1.2,59.98465880364132,
1110.jpg,9331.jpg,2 Points,2 Points,579 points,PS2_L10.csv,,,,,,,,,,,,,,,,,,,,,,,,,,,,,0,9,9,9,0,15,15,15,,,,,,,,,,,,,,,,,,,2109.969573667,p,1.0751678330016148,2111.117643667003,,,,,,64,B,2025-02-10_08h27.01.543,EPIDM,2023.1.2,59.98465880364132,
9001.jpg,9620.jpg,1 Point,1 Point,580 points,PS2_L10.csv,,,,,,,,,,,,,,,,,,,,,,,,,,,,,0,9,9,9,0,16,16,16,,,,,,,,,,,,,,,,,,,2115.3533963750015,q,1.3389767080007005,2116.7633126670007,,,,,,64,B,2025-02-10_08h27.01.543,EPIDM,2023.1.2,59.98465880364132,
5535.jpg,8210.jpg,3 Points,3 Points,583 points,PS2_L10.csv,,,,,,,,,,,,,,,,,,,,,,,,,,,,,0,9,9,9,0,17,17,17,,,,,,,,,,,,,,,,,,,2120.991240542,p,0.7328246239994769,2121.803203917003,,,,,,64,B,2025-02-10_08h27.01.543,EPIDM,2023.1.2,59.98465880364132,
7950.jpg,7187.jpg,1 Point,1 Point,584 points,PS2_L10.csv,,,,,,,,,,,,,,,,,,,,,,,,,,,,,0,9,9,9,0,18,18,18,,,,,,,,,,,,,,,,,,,2126.040854542003,q,0.8749842079996597,2126.9857895830028,,,,,,64,B,2025-02-10_08h27.01.543,EPIDM,2023.1.2,59.98465880364132,
3250.jpg,A053.jpg,3 Points,3 Points,587 points,PS2_L10.csv,,,,,,,,,,,,,,,,,,,,,,,,,,,,,0,9,9,9,0,19,19,19,,,,,,,,,,,,,,,,,,,2131.2204902500016,p,0.5033577079993847,2131.8324828330005,,,,,,64,B,2025-02-10_08h27.01.543,EPIDM,2023.1.2,59.98465880364132,
2205.jpg,3053.jpg,4 Points,4 Points,591 points,PS2_L10.csv,,,,,,,,,,,,,,,,,,,,,,,,,,,,,0,9,9,9,0,20,20,20,,,,,,,,,,,,,,,,,,,2136.044079000003,q,0.7833801249980752,2136.9305925830013,,,,,,64,B,2025-02-10_08h27.01.543,EPIDM,2023.1.2,59.98465880364132,
5594.jpg,5750.jpg,5 Points,5 Points,596 points,PS2_L10.csv,,,,,,,,,,,,,,,,,,,,,,,,,,,,,0,9,9,9,0,21,21,21,,,,,,,,,,,,,,,,,,,2141.140223000002,p,0.5353772080015915,2141.7506364170004,,,,,,64,B,2025-02-10_08h27.01.543,EPIDM,2023.1.2,59.98465880364132,
6900.jpg,8531.jpg,4 Points,4 Points,600 points,PS2_L10.csv,,,,,,,,,,,,,,,,,,,,,,,,,,,,,0,9,9,9,0,22,22,22,,,,,,,,,,,,,,,,,,,2145.9799872500007,p,0.6394451239975751,2146.693871792002,,,,,,64,B,2025-02-10_08h27.01.543,EPIDM,2023.1.2,59.98465880364132,
1019.jpg,2120.jpg,0 Points,0 Points,600 points,PS2_L10.csv,,,,,,,,,,,,,,,,,,,,,,,,,,,,,0,9,9,9,0,23,23,23,,,,,,,,,,,,,,,,,,,2150.934453500002,p,0.5808569580003677,2151.5806093749998,,,2162.0593318749998,space,3.663086000000476,64,B,2025-02-10_08h27.01.543,EPIDM,2023.1.2,59.98465880364132,
