L_Scene,R_Scene,Points_L,Points_R,PtTotal,blockFile,Instructions_Loop.thisRepN,Instructions_Loop.thisTrialN,Instructions_Loop.thisN,Instructions_Loop.thisIndex,Redo_Instructions_Loop.thisRepN,Redo_Instructions_Loop.thisTrialN,Redo_Instructions_Loop.thisN,Redo_Instructions_Loop.thisIndex,Practice_Encoding_Loop.thisRepN,Practice_Encoding_Loop.thisTrialN,Practice_Encoding_Loop.thisN,Practice_Encoding_Loop.thisIndex,Practice_Response_Fail_Loop.thisRepN,Practice_Response_Fail_Loop.thisTrialN,Practice_Response_Fail_Loop.thisN,Practice_Response_Fail_Loop.thisIndex,Practice_FB_Loop.thisRepN,Practice_FB_Loop.thisTrialN,Practice_FB_Loop.thisN,Practice_FB_Loop.thisIndex,Practice_Attention_Loop.thisRepN,Practice_Attention_Loop.thisTrialN,Practice_Attention_Loop.thisN,Practice_Attention_Loop.thisIndex,Practice_EncBrk_Loop.thisRepN,Practice_EncBrk_Loop.thisTrialN,Practice_EncBrk_Loop.thisN,Practice_EncBrk_Loop.thisIndex,Encoding_Loop.thisRepN,Encoding_Loop.thisTrialN,Encoding_Loop.thisN,Encoding_Loop.thisIndex,EncStim_Loop.thisRepN,EncStim_Loop.thisTrialN,EncStim_Loop.thisN,EncStim_Loop.thisIndex,Response_Fail_Loop.thisRepN,Response_Fail_Loop.thisTrialN,Response_Fail_Loop.thisN,Response_Fail_Loop.thisIndex,FB_Loop.thisRepN,FB_Loop.thisTrialN,FB_Loop.thisN,FB_Loop.thisIndex,Attention_Loop.thisRepN,Attention_Loop.thisTrialN,Attention_Loop.thisN,Attention_Loop.thisIndex,EncBrk_Loop.thisRepN,EncBrk_Loop.thisTrialN,EncBrk_Loop.thisN,EncBrk_Loop.thisIndex,Transition_Enc.keys,Transition_Enc.rt,Encoding_Resp.started,Encoding_Resp.keys,Encoding_Resp.rt,R_Point_FB_Stim.started,Attn_resp.keys,Attn_resp.rt,Progress_Tracker.started,EncBrk_Resp.keys,EncBrk_Resp.rt,participant,Group,date,expName,psychopyVersion,frameRate,
,,,,,,,,,,,,,,,,,,,,,,,,,,,,,,,,,,,,,,,,,,,,,,,,,,,,,,,,,,space,3.655663542000184,,,,,,,,,,65,A,2025-02-12_09h07.34.931,EPIDM,2023.1.2,None,
A060.jpg,F041.jpg,5 Points,5 Points,5 Points,,,,,,,,,,0,0,0,0,,,,,,,,,,,,,,,,,,,,,,,,,,,,,,,,,,,,,,,,,,,926.8542525410003,q,2.6732729169998493,929.6875257080001,,,,,,65,A,2025-02-12_09h07.34.931,EPIDM,2023.1.2,None,
O161.jpg,1812.jpg,2 Points,2 Points,7 Points,,,,,,,,,,0,1,1,1,,,,,,,,,,,,,,,,,,,,,,,,,,,,,,,,,,,,,,,,,,,933.8492587080009,p,1.0140755419979541,935.0029352079991,,,,,,65,A,2025-02-12_09h07.34.931,EPIDM,2023.1.2,None,
O013.jpg,A001.jpg,3 Points,3 Points,10 Points,,,,,,,,,,0,2,2,2,,,,,,,,,,,,,,,,,,,,,,,,,,,,,,,,,,,,,,,,,,,939.1905574580005,q,1.7206358749990613,941.0574336660002,,,,,,65,A,2025-02-12_09h07.34.931,EPIDM,2023.1.2,None,
P036.jpg,F273.jpg,5 Points,5 Points,15 Points,,,,,,,,,,0,3,3,3,,,,,,,,,,,,,,,,,,,,,,,,,,,,,,,,,,,,,,,,,,,945.2310370410005,q,1.3844370839997282,946.7775843739992,,,,,,65,A,2025-02-12_09h07.34.931,EPIDM,2023.1.2,None,
L130.jpg,2393.jpg,0 Points,0 Points,15 Points,,,,,,,,,,0,4,4,4,,,,,,,,,,,,,,,,,,,,,,,,,,,,,,,,,,,,,,,,,,,950.9404462489993,p,2.1392285420006374,953.2277712910009,5,8.880254208999759,,,,65,A,2025-02-12_09h07.34.931,EPIDM,2023.1.2,None,
F279.jpg,P033.jpg,3 Points,3 Points,18 Points,,,,,,,,,,0,5,5,5,,,,,,,,,,,,,,,,,,,,,,,,,,,,,,,,,,,,,,,,,,,966.3910026240001,p,3.080292417000237,969.6418759580001,,,,,,65,A,2025-02-12_09h07.34.931,EPIDM,2023.1.2,None,
A104.jpg,2593.jpg,2 Points,2 Points,20 Points,,,,,,,,,,0,6,6,6,,,,,,,,,,,,,,,,,,,,,,,,,,,,,,,,,,,,,,,,,,,973.7875786659997,p,2.5314137089990254,976.4535696659996,,,,,,65,A,2025-02-12_09h07.34.931,EPIDM,2023.1.2,None,
2598.jpg,2605.jpg,0 Points,0 Points,20 Points,,,,,,,,,,0,7,7,7,,,,,,,,,,,,,,,,,,,,,,,,,,,,,,,,,,,,,,,,,,,980.6322716240002,q,2.4876342919997114,983.1891428739991,,,,,,65,A,2025-02-12_09h07.34.931,EPIDM,2023.1.2,None,
L005.jpg,O011.jpg,1 Points,1 Points,21 Points,,,,,,,,,,0,8,8,8,,,,,,,,,,,,,,,,,,,,,,,,,,,,,,,,,,,,,,,,,,,987.4413578329995,p,2.213478416999351,989.7944603740007,,,,,,65,A,2025-02-12_09h07.34.931,EPIDM,2023.1.2,None,
8186.jpg,F078.jpg,2 Points,2 Points,23 Points,,,,,,,,,,0,9,9,9,,,,,,,,,,,,,,,,,,,,,,,,,,,,,,,,,,,,,,,,,,,993.9909070410004,q,1.3997794579991023,995.523170333,2,3.2932748749990424,1009.0258274990001,space,24.989504166998813,65,A,2025-02-12_09h07.34.931,EPIDM,2023.1.2,None,
,,,,,,,,,,,,,,,,,,,,,,,,,,,,,,,,,,,,,,,,,,,,,,,,,,,,,,,,,,space,5.846488333998423,,,,,,,,,,65,A,2025-02-12_09h07.34.931,EPIDM,2023.1.2,None,
1019.jpg,2120.jpg,0 Points,0 Points,0 Points,PS1_L1.csv,,,,,,,,,,,,,,,,,,,,,,,,,,,,,0,0,0,0,0,0,0,0,,,,,,,,,,,,,,,,,,,1052.8430468739998,q,0.9397501259991259,1053.8898894580007,,,,,,65,A,2025-02-12_09h07.34.931,EPIDM,2023.1.2,None,
6900.jpg,8531.jpg,4 Points,4 Points,4 Points,PS1_L1.csv,,,,,,,,,,,,,,,,,,,,,,,,,,,,,0,0,0,0,0,1,1,1,,,,,,,,,,,,,,,,,,,1058.0989769990001,q,0.9799718340000254,1059.140440999,4,2.5424699590003,,,,65,A,2025-02-12_09h07.34.931,EPIDM,2023.1.2,None,
5594.jpg,5750.jpg,5 Points,5 Points,9 Points,PS1_L1.csv,,,,,,,,,,,,,,,,,,,,,,,,,,,,,0,0,0,0,0,2,2,2,,,,,,,,,,,,,,,,,,,1065.9963016659995,p,0.961253207999107,1067.0393203739995,,,,,,65,A,2025-02-12_09h07.34.931,EPIDM,2023.1.2,None,
2205.jpg,3053.jpg,4 Points,4 Points,13 Points,PS1_L1.csv,,,,,,,,,,,,,,,,,,,,,,,,,,,,,0,0,0,0,0,3,3,3,,,,,,,,,,,,,,,,,,,1071.306508916,p,1.427888874999553,1072.8097244160008,,,,,,65,A,2025-02-12_09h07.34.931,EPIDM,2023.1.2,None,
3250.jpg,A053.jpg,3 Points,3 Points,16 Points,PS1_L1.csv,,,,,,,,,,,,,,,,,,,,,,,,,,,,,0,0,0,0,0,4,4,4,,,,,,,,,,,,,,,,,,,1077.0661000409991,p,1.7002066249988275,1078.8795138739997,,,,,,65,A,2025-02-12_09h07.34.931,EPIDM,2023.1.2,None,
7950.jpg,7187.jpg,1 Point,1 Point,17 Points,PS1_L1.csv,,,,,,,,,,,,,,,,,,,,,,,,,,,,,0,0,0,0,0,5,5,5,,,,,,,,,,,,,,,,,,,1083.099304708,p,1.0334926249997807,1084.2071855830009,,,,,,65,A,2025-02-12_09h07.34.931,EPIDM,2023.1.2,None,
5535.jpg,8210.jpg,3 Points,3 Points,20 Points,PS1_L1.csv,,,,,,,,,,,,,,,,,,,,,,,,,,,,,0,0,0,0,0,6,6,6,,,,,,,,,,,,,,,,,,,1088.4569484989997,p,1.2050954169990291,1089.7307088330008,,,,,,65,A,2025-02-12_09h07.34.931,EPIDM,2023.1.2,None,
9001.jpg,9620.jpg,1 Point,1 Point,21 Points,PS1_L1.csv,,,,,,,,,,,,,,,,,,,,,,,,,,,,,0,0,0,0,0,7,7,7,,,,,,,,,,,,,,,,,,,1093.9881951239995,q,0.7460992079995776,1094.8160154160005,,,,,,65,A,2025-02-12_09h07.34.931,EPIDM,2023.1.2,None,
1110.jpg,9331.jpg,2 Points,2 Points,23 Points,PS1_L1.csv,,,,,,,,,,,,,,,,,,,,,,,,,,,,,0,0,0,0,0,8,8,8,,,,,,,,,,,,,,,,,,,1099.0460145410007,p,1.5037392920003185,1100.6279950409998,,,,,,65,A,2025-02-12_09h07.34.931,EPIDM,2023.1.2,None,
7820.jpg,1121.jpg,0 Points,0 Points,23 Points,PS1_L1.csv,,,,,,,,,,,,,,,,,,,,,,,,,,,,,0,0,0,0,0,9,9,9,,,,,,,,,,,,,,,,,,,1104.8763296240004,q,1.0409244170004968,1105.9863779159996,,,,,,65,A,2025-02-12_09h07.34.931,EPIDM,2023.1.2,None,
7186.jpg,9182.jpg,2 Points,2 Points,25 Points,PS1_L1.csv,,,,,,,,,,,,,,,,,,,,,,,,,,,,,0,0,0,0,0,10,10,10,,,,,,,,,,,,,,,,,,,1110.2384563740006,p,0.9589675839997653,1111.2759670410005,,,,,,65,A,2025-02-12_09h07.34.931,EPIDM,2023.1.2,None,
9280.jpg,9390.jpg,1 Point,1 Point,26 Points,PS1_L1.csv,,,,,,,,,,,,,,,,,,,,,,,,,,,,,0,0,0,0,0,11,11,11,,,,,,,,,,,,,,,,,,,1115.5094437079997,p,1.1996995419995073,1116.7894107490001,,,,,,65,A,2025-02-12_09h07.34.931,EPIDM,2023.1.2,None,
2440.jpg,7351.jpg,4 Points,4 Points,30 Points,PS1_L1.csv,,,,,,,,,,,,,,,,,,,,,,,,,,,,,0,0,0,0,0,12,12,12,,,,,,,,,,,,,,,,,,,1121.0386915829995,q,0.974727291999443,1122.0958848330001,,,,,,65,A,2025-02-12_09h07.34.931,EPIDM,2023.1.2,None,
6834.jpg,9120.jpg,5 Points,5 Points,35 Points,PS1_L1.csv,,,,,,,,,,,,,,,,,,,,,,,,,,,,,0,0,0,0,0,13,13,13,,,,,,,,,,,,,,,,,,,1126.3314708330008,q,1.9856151259991748,1128.3843220410008,4,3.1175005009990855,,,,65,A,2025-02-12_09h07.34.931,EPIDM,2023.1.2,None,
9230.jpg,9181.jpg,0 Points,0 Points,35 Points,PS1_L1.csv,,,,,,,,,,,,,,,,,,,,,,,,,,,,,0,0,0,0,0,14,14,14,,,,,,,,,,,,,,,,,,,1135.8229875410007,q,2.49397508400034,1138.3741840829998,,,,,,65,A,2025-02-12_09h07.34.931,EPIDM,2023.1.2,None,
8260.jpg,8280.jpg,3 Points,3 Points,38 Points,PS1_L1.csv,,,,,,,,,,,,,,,,,,,,,,,,,,,,,0,0,0,0,0,15,15,15,,,,,,,,,,,,,,,,,,,1142.6385656240009,p,1.1505182500004594,1143.8640156240008,,,,,,65,A,2025-02-12_09h07.34.931,EPIDM,2023.1.2,None,
9470.jpg,9400.jpg,3 Points,3 Points,41 Points,PS1_L1.csv,,,,,,,,,,,,,,,,,,,,,,,,,,,,,0,0,0,0,0,16,16,16,,,,,,,,,,,,,,,,,,,1148.1158884580009,p,1.745634417000474,1149.9211892909998,,,,,,65,A,2025-02-12_09h07.34.931,EPIDM,2023.1.2,None,
2616.jpg,7238.jpg,4 Points,4 Points,45 Points,PS1_L1.csv,,,,,,,,,,,,,,,,,,,,,,,,,,,,,0,0,0,0,0,17,17,17,,,,,,,,,,,,,,,,,,,1154.1786889990008,q,0.6094490840005165,1154.8590807909995,,,,,,65,A,2025-02-12_09h07.34.931,EPIDM,2023.1.2,None,
9430.jpg,3010.jpg,5 Points,5 Points,50 Points,PS1_L1.csv,,,,,,,,,,,,,,,,,,,,,,,,,,,,,0,0,0,0,0,18,18,18,,,,,,,,,,,,,,,,,,,1159.1141000409998,p,0.4991672079995624,1159.6670977080003,,,,,,65,A,2025-02-12_09h07.34.931,EPIDM,2023.1.2,None,
1661.jpg,1321.jpg,3 Points,3 Points,53 Points,PS1_L1.csv,,,,,,,,,,,,,,,,,,,,,,,,,,,,,0,0,0,0,0,19,19,19,,,,,,,,,,,,,,,,,,,1163.9245473740002,p,0.7918149590004759,1164.7914502489994,,,,,,65,A,2025-02-12_09h07.34.931,EPIDM,2023.1.2,None,
8041.jpg,2271.jpg,2 Points,2 Points,55 Points,PS1_L1.csv,,,,,,,,,,,,,,,,,,,,,,,,,,,,,0,0,0,0,0,20,20,20,,,,,,,,,,,,,,,,,,,1169.0501301659997,q,0.6184492920001503,1169.7320942079996,,,,,,65,A,2025-02-12_09h07.34.931,EPIDM,2023.1.2,None,
9180.jpg,9046.jpg,3 Points,3 Points,58 Points,PS1_L1.csv,,,,,,,,,,,,,,,,,,,,,,,,,,,,,0,0,0,0,0,21,21,21,,,,,,,,,,,,,,,,,,,1173.9804390830004,p,1.1443617079985415,1175.1876362489993,,,,,,65,A,2025-02-12_09h07.34.931,EPIDM,2023.1.2,None,
2691.jpg,7640.jpg,0 Points,0 Points,58 Points,PS1_L1.csv,,,,,,,,,,,,,,,,,,,,,,,,,,,,,0,0,0,0,0,22,22,22,,,,,,,,,,,,,,,,,,,1179.4447587490004,q,0.8475805420002871,1180.368079166,,,,,,65,A,2025-02-12_09h07.34.931,EPIDM,2023.1.2,None,
1660.jpg,2840.jpg,2 Points,2 Points,60 Points,PS1_L1.csv,,,,,,,,,,,,,,,,,,,,,,,,,,,,,0,0,0,0,0,23,23,23,,,,,,,,,,,,,,,,,,,1184.613475958001,p,1.4951309170010063,1186.1822440829992,,,1196.6777622079999,space,3.806741124999462,65,A,2025-02-12_09h07.34.931,EPIDM,2023.1.2,None,
9480.jpg,9250.jpg,0 Points,0 Points,60 Points,PS1_L2.csv,,,,,,,,,,,,,,,,,,,,,,,,,,,,,0,1,1,1,0,0,0,0,,,,,,,,,,,,,,,,,,,1203.7985054579995,q,1.037182333000601,1204.8914262909993,,,,,,65,A,2025-02-12_09h07.34.931,EPIDM,2023.1.2,None,
9910.jpg,6940.jpg,2 Points,2 Points,62 Points,PS1_L2.csv,,,,,,,,,,,,,,,,,,,,,,,,,,,,,0,1,1,1,0,1,1,1,,,,,,,,,,,,,,,,,,,1209.1467329159996,q,0.721816041999773,1209.9323228740004,2,2.539478874999986,,,,65,A,2025-02-12_09h07.34.931,EPIDM,2023.1.2,None,
4535.jpg,1811.jpg,1 Point,1 Point,63 Points,PS1_L2.csv,,,,,,,,,,,,,,,,,,,,,,,,,,,,,0,1,1,1,0,2,2,2,,,,,,,,,,,,,,,,,,,1216.7974861659995,p,2.246034250998491,1219.1236118740007,,,,,,65,A,2025-02-12_09h07.34.931,EPIDM,2023.1.2,None,
2020.jpg,1947.jpg,5 Points,5 Points,68 Points,PS1_L2.csv,,,,,,,,,,,,,,,,,,,,,,,,,,,,,0,1,1,1,0,3,3,3,,,,,,,,,,,,,,,,,,,1223.3604440829995,q,1.3707816669993917,1224.8003507910007,,,,,,65,A,2025-02-12_09h07.34.931,EPIDM,2023.1.2,None,
9160.jpg,1200.jpg,4 Points,4 Points,72 Points,PS1_L2.csv,,,,,,,,,,,,,,,,,,,,,,,,,,,,,0,1,1,1,0,4,4,4,,,,,,,,,,,,,,,,,,,1229.0458582910005,q,1.3884120839993557,1230.5141464159997,,,,,,65,A,2025-02-12_09h07.34.931,EPIDM,2023.1.2,None,
9520.jpg,1931.jpg,3 Points,3 Points,75 Points,PS1_L2.csv,,,,,,,,,,,,,,,,,,,,,,,,,,,,,0,1,1,1,0,5,5,5,,,,,,,,,,,,,,,,,,,1234.7576217079995,q,0.8545425840002281,1235.6893842079999,,,,,,65,A,2025-02-12_09h07.34.931,EPIDM,2023.1.2,None,
7830.jpg,2499.jpg,3 Points,3 Points,78 Points,PS1_L2.csv,,,,,,,,,,,,,,,,,,,,,,,,,,,,,0,1,1,1,0,6,6,6,,,,,,,,,,,,,,,,,,,1239.9435178329995,p,0.7630019169992011,1240.7710741660003,,,,,,65,A,2025-02-12_09h07.34.931,EPIDM,2023.1.2,None,
6830.jpg,6212.jpg,4 Points,4 Points,82 Points,PS1_L2.csv,,,,,,,,,,,,,,,,,,,,,,,,,,,,,0,1,1,1,0,7,7,7,,,,,,,,,,,,,,,,,,,1245.0370326660004,p,1.557738249999602,1246.6660911659992,,,,,,65,A,2025-02-12_09h07.34.931,EPIDM,2023.1.2,None,
7285.jpg,4233.jpg,5 Points,5 Points,87 Points,PS1_L2.csv,,,,,,,,,,,,,,,,,,,,,,,,,,,,,0,1,1,1,0,8,8,8,,,,,,,,,,,,,,,,,,,1250.9168412080007,p,1.4700669579997339,1252.4506797080003,,,,,,65,A,2025-02-12_09h07.34.931,EPIDM,2023.1.2,None,
1740.jpg,7480.jpg,0 Points,0 Points,87 Points,PS1_L2.csv,,,,,,,,,,,,,,,,,,,,,,,,,,,,,0,1,1,1,0,9,9,9,,,,,,,,,,,,,,,,,,,1256.6980707079992,p,0.6569930419991579,1257.4324161659997,,,,,,65,A,2025-02-12_09h07.34.931,EPIDM,2023.1.2,None,
7380.jpg,1220.jpg,1 Point,1 Point,88 Points,PS1_L2.csv,,,,,,,,,,,,,,,,,,,,,,,,,,,,,0,1,1,1,0,10,10,10,,,,,,,,,,,,,,,,,,,1261.6734824160003,p,0.8332283339987043,1262.5697370829994,,,,,,65,A,2025-02-12_09h07.34.931,EPIDM,2023.1.2,None,
3061.jpg,2717.jpg,4 Points,4 Points,92 Points,PS1_L2.csv,,,,,,,,,,,,,,,,,,,,,,,,,,,,,0,1,1,1,0,11,11,11,,,,,,,,,,,,,,,,,,,1266.8347830409994,q,0.4651515419991483,1267.3575944989998,,,,,,65,A,2025-02-12_09h07.34.931,EPIDM,2023.1.2,None,
5460.jpg,5800.jpg,0 Points,0 Points,92 Points,PS1_L2.csv,,,,,,,,,,,,,,,,,,,,,,,,,,,,,0,1,1,1,0,12,12,12,,,,,,,,,,,,,,,,,,,1271.6226819989997,q,0.7795577500000945,1272.4811200409995,,,,,,65,A,2025-02-12_09h07.34.931,EPIDM,2023.1.2,None,
2215.jpg,2512.jpg,1 Point,1 Point,93 Points,PS1_L2.csv,,,,,,,,,,,,,,,,,,,,,,,,,,,,,0,1,1,1,0,13,13,13,,,,,,,,,,,,,,,,,,,1276.7225747910006,p,1.0167668340000091,1277.8085490410003,1,1.5687644999998156,,,,65,A,2025-02-12_09h07.34.931,EPIDM,2023.1.2,None,
3000.jpg,6200.jpg,5 Points,5 Points,98 Points,PS1_L2.csv,,,,,,,,,,,,,,,,,,,,,,,,,,,,,0,1,1,1,0,14,14,14,,,,,,,,,,,,,,,,,,,1283.6996822489991,q,1.4309719169996242,1285.1941575829997,,,,,,65,A,2025-02-12_09h07.34.931,EPIDM,2023.1.2,None,
1945.jpg,2800.jpg,4 Points,4 Points,102 Points,PS1_L2.csv,,,,,,,,,,,,,,,,,,,,,,,,,,,,,0,1,1,1,0,15,15,15,,,,,,,,,,,,,,,,,,,1289.4487615410007,p,0.7933056670008227,1290.3167539159995,,,,,,65,A,2025-02-12_09h07.34.931,EPIDM,2023.1.2,None,
5660.jpg,5201.jpg,0 Points,0 Points,102 Points,PS1_L2.csv,,,,,,,,,,,,,,,,,,,,,,,,,,,,,0,1,1,1,0,16,16,16,,,,,,,,,,,,,,,,,,,1294.5639819159996,p,0.8467221669998253,1295.4929951660006,,,,,,65,A,2025-02-12_09h07.34.931,EPIDM,2023.1.2,None,
3266.jpg,7360.jpg,1 Point,1 Point,103 Points,PS1_L2.csv,,,,,,,,,,,,,,,,,,,,,,,,,,,,,0,1,1,1,0,17,17,17,,,,,,,,,,,,,,,,,,,1299.7428492080007,q,0.3789654169995629,1300.1942124579991,,,,,,65,A,2025-02-12_09h07.34.931,EPIDM,2023.1.2,None,
F149.jpg,3030.jpg,0 Points,0 Points,103 Points,PS1_L2.csv,,,,,,,,,,,,,,,,,,,,,,,,,,,,,0,1,1,1,0,18,18,18,,,,,,,,,,,,,,,,,,,1304.4418822489997,p,0.4883422079983575,1305.0335626660008,,,,,,65,A,2025-02-12_09h07.34.931,EPIDM,2023.1.2,None,
5410.jpg,1450.jpg,5 Points,5 Points,108 Points,PS1_L2.csv,,,,,,,,,,,,,,,,,,,,,,,,,,,,,0,1,1,1,0,19,19,19,,,,,,,,,,,,,,,,,,,1309.2423869580007,q,0.8956529999995837,1310.1943975830009,,,,,,65,A,2025-02-12_09h07.34.931,EPIDM,2023.1.2,None,
9101.jpg,9571.jpg,2 Points,2 Points,110 Points,PS1_L2.csv,,,,,,,,,,,,,,,,,,,,,,,,,,,,,0,1,1,1,0,20,20,20,,,,,,,,,,,,,,,,,,,1314.4498553330004,p,0.6717916259985941,1315.1908411659997,,,,,,65,A,2025-02-12_09h07.34.931,EPIDM,2023.1.2,None,
9110.jpg,3051.jpg,1 Point,1 Point,111 Points,PS1_L2.csv,,,,,,,,,,,,,,,,,,,,,,,,,,,,,0,1,1,1,0,21,21,21,,,,,,,,,,,,,,,,,,,1319.4477142490005,p,0.3618637919989851,1319.8980476240004,,,,,,65,A,2025-02-12_09h07.34.931,EPIDM,2023.1.2,None,
2100.jpg,7205.jpg,5 Points,5 Points,116 Points,PS1_L2.csv,,,,,,,,,,,,,,,,,,,,,,,,,,,,,0,1,1,1,0,22,22,22,,,,,,,,,,,,,,,,,,,1324.144363249,q,0.8492622919984569,1325.0678574990006,,,,,,65,A,2025-02-12_09h07.34.931,EPIDM,2023.1.2,None,
3160.jpg,6210.jpg,1 Point,1 Point,117 Points,PS1_L2.csv,,,,,,,,,,,,,,,,,,,,,,,,,,,,,0,1,1,1,0,23,23,23,,,,,,,,,,,,,,,,,,,1329.308516958,q,0.8059280840006977,1330.1948237909992,,,1340.6844835410002,space,2.3966389170000184,65,A,2025-02-12_09h07.34.931,EPIDM,2023.1.2,None,
7283.jpg,1720.jpg,4 Points,4 Points,121 Points,PS1_L3.csv,,,,,,,,,,,,,,,,,,,,,,,,,,,,,0,2,2,2,0,0,0,0,,,,,,,,,,,,,,,,,,,1346.3983478740001,q,0.5700510009992286,1347.049718583,,,,,,65,A,2025-02-12_09h07.34.931,EPIDM,2023.1.2,None,
6571.jpg,P237.jpg,2 Points,2 Points,123 Points,PS1_L3.csv,,,,,,,,,,,,,,,,,,,,,,,,,,,,,0,2,2,2,0,1,1,1,,,,,,,,,,,,,,,,,,,1351.2846268330004,p,1.1644538759992429,1352.5729614580005,2,3.028819458999351,,,,65,A,2025-02-12_09h07.34.931,EPIDM,2023.1.2,None,
6260.jpg,3062.jpg,3 Points,3 Points,126 Points,PS1_L3.csv,,,,,,,,,,,,,,,,,,,,,,,,,,,,,0,2,2,2,0,2,2,2,,,,,,,,,,,,,,,,,,,1359.9248033329995,p,1.0035700000007637,1360.9986878329992,,,,,,65,A,2025-02-12_09h07.34.931,EPIDM,2023.1.2,None,
6150.jpg,2206.jpg,0 Points,0 Points,126 Points,PS1_L3.csv,,,,,,,,,,,,,,,,,,,,,,,,,,,,,0,2,2,2,0,3,3,3,,,,,,,,,,,,,,,,,,,1365.2545131239995,q,1.491087083999446,1366.8185654990002,,,,,,65,A,2025-02-12_09h07.34.931,EPIDM,2023.1.2,None,
9300.jpg,1050.jpg,4 Points,4 Points,130 Points,PS1_L3.csv,,,,,,,,,,,,,,,,,,,,,,,,,,,,,0,2,2,2,0,4,4,4,,,,,,,,,,,,,,,,,,,1371.0618390829995,q,1.2669154579998576,1372.3927900410008,,,,,,65,A,2025-02-12_09h07.34.931,EPIDM,2023.1.2,None,
F365.jpg,3180.jpg,5 Points,5 Points,135 Points,PS1_L3.csv,,,,,,,,,,,,,,,,,,,,,,,,,,,,,0,2,2,2,0,5,5,5,,,,,,,,,,,,,,,,,,,1376.646676374,q,1.4012577089997649,1378.1520717909998,,,,,,65,A,2025-02-12_09h07.34.931,EPIDM,2023.1.2,None,
2320.jpg,2791.jpg,4 Points,4 Points,139 Points,PS1_L3.csv,,,,,,,,,,,,,,,,,,,,,,,,,,,,,0,2,2,2,0,6,6,6,,,,,,,,,,,,,,,,,,,1382.3688595409994,q,1.064386457999717,1383.4983613739996,,,,,,65,A,2025-02-12_09h07.34.931,EPIDM,2023.1.2,None,
8311.jpg,4609.jpg,2 Points,2 Points,141 Points,PS1_L3.csv,,,,,,,,,,,,,,,,,,,,,,,,,,,,,0,2,2,2,0,7,7,7,,,,,,,,,,,,,,,,,,,1387.7506907910001,p,1.3696826249997684,1389.1825404580004,,,,,,65,A,2025-02-12_09h07.34.931,EPIDM,2023.1.2,None,
9042.jpg,2753.jpg,0 Points,0 Points,141 Points,PS1_L3.csv,,,,,,,,,,,,,,,,,,,,,,,,,,,,,0,2,2,2,0,8,8,8,,,,,,,,,,,,,,,,,,,1393.4404319579999,q,0.440656749999107,1393.9449477080007,,,,,,65,A,2025-02-12_09h07.34.931,EPIDM,2023.1.2,None,
5471.jpg,7352.jpg,2 Points,2 Points,143 Points,PS1_L3.csv,,,,,,,,,,,,,,,,,,,,,,,,,,,,,0,2,2,2,0,9,9,9,,,,,,,,,,,,,,,,,,,1398.191775458,q,1.2799909169989405,1399.539488083,,,,,,65,A,2025-02-12_09h07.34.931,EPIDM,2023.1.2,None,
P222.jpg,9401.jpg,2 Points,2 Points,145 Points,PS1_L3.csv,,,,,,,,,,,,,,,,,,,,,,,,,,,,,0,2,2,2,0,10,10,10,,,,,,,,,,,,,,,,,,,1403.7920766239995,q,0.6796205419996113,1404.5848411239995,,,,,,65,A,2025-02-12_09h07.34.931,EPIDM,2023.1.2,None,
1610.jpg,F203.jpg,0 Points,0 Points,145 Points,PS1_L3.csv,,,,,,,,,,,,,,,,,,,,,,,,,,,,,0,2,2,2,0,11,11,11,,,,,,,,,,,,,,,,,,,1408.7908838329995,q,1.0416602919995057,1409.9446861660008,,,,,,65,A,2025-02-12_09h07.34.931,EPIDM,2023.1.2,None,
9405.jpg,6250.2.jpg,3 Points,3 Points,148 Points,PS1_L3.csv,,,,,,,,,,,,,,,,,,,,,,,,,,,,,0,2,2,2,0,12,12,12,,,,,,,,,,,,,,,,,,,1414.1536069990007,q,0.47877833299935446,1414.738453166,,,,,,65,A,2025-02-12_09h07.34.931,EPIDM,2023.1.2,None,
1090.jpg,P217.jpg,5 Points,5 Points,153 Points,PS1_L3.csv,,,,,,,,,,,,,,,,,,,,,,,,,,,,,0,2,2,2,0,13,13,13,,,,,,,,,,,,,,,,,,,1418.9494974159998,p,1.433519709000393,1420.4956849159998,5,1.6974907499989058,,,,65,A,2025-02-12_09h07.34.931,EPIDM,2023.1.2,None,
P233.jpg,3060.jpg,1 Point,1 Point,154 Points,PS1_L3.csv,,,,,,,,,,,,,,,,,,,,,,,,,,,,,0,2,2,2,0,14,14,14,,,,,,,,,,,,,,,,,,,1426.5160571240003,p,1.0121615839998412,1427.6476355410005,,,,,,65,A,2025-02-12_09h07.34.931,EPIDM,2023.1.2,None,
8040.jpg,7185.jpg,1 Point,1 Point,155 Points,PS1_L3.csv,,,,,,,,,,,,,,,,,,,,,,,,,,,,,0,2,2,2,0,15,15,15,,,,,,,,,,,,,,,,,,,1431.8455355409997,q,0.8107214589999785,1432.7304848329995,,,,,,65,A,2025-02-12_09h07.34.931,EPIDM,2023.1.2,None,
6550.jpg,9582.jpg,5 Points,5 Points,160 Points,PS1_L3.csv,,,,,,,,,,,,,,,,,,,,,,,,,,,,,0,2,2,2,0,16,16,16,,,,,,,,,,,,,,,,,,,1436.9766238330003,p,1.437892792000639,1438.4908287490007,,,,,,65,A,2025-02-12_09h07.34.931,EPIDM,2023.1.2,None,
P077.jpg,A041.jpg,1 Point,1 Point,161 Points,PS1_L3.csv,,,,,,,,,,,,,,,,,,,,,,,,,,,,,0,2,2,2,0,17,17,17,,,,,,,,,,,,,,,,,,,1442.7321354580008,q,1.0358075000003737,1443.902791333,,,,,,65,A,2025-02-12_09h07.34.931,EPIDM,2023.1.2,None,
4770.jpg,4275.jpg,3 Points,3 Points,164 Points,PS1_L3.csv,,,,,,,,,,,,,,,,,,,,,,,,,,,,,0,2,2,2,0,18,18,18,,,,,,,,,,,,,,,,,,,1448.0785852489998,q,1.3770509999994829,1449.5732767079999,,,,,,65,A,2025-02-12_09h07.34.931,EPIDM,2023.1.2,None,
9594.jpg,1080.jpg,4 Points,4 Points,168 Points,PS1_L3.csv,,,,,,,,,,,,,,,,,,,,,,,,,,,,,0,2,2,2,0,19,19,19,,,,,,,,,,,,,,,,,,,1453.7764668329992,q,0.9904691669999011,1454.8490639580004,,,,,,65,A,2025-02-12_09h07.34.931,EPIDM,2023.1.2,None,
2606.jpg,2480.jpg,1 Point,1 Point,169 Points,PS1_L3.csv,,,,,,,,,,,,,,,,,,,,,,,,,,,,,0,2,2,2,0,20,20,20,,,,,,,,,,,,,,,,,,,1459.0828703739999,q,0.852313208999476,1460.0071304580006,,,,,,65,A,2025-02-12_09h07.34.931,EPIDM,2023.1.2,None,
1052.jpg,1201.jpg,3 Points,3 Points,172 Points,PS1_L3.csv,,,,,,,,,,,,,,,,,,,,,,,,,,,,,0,2,2,2,0,21,21,21,,,,,,,,,,,,,,,,,,,1464.2583359989994,p,0.5562119169990183,1464.8768370829994,,,,,,65,A,2025-02-12_09h07.34.931,EPIDM,2023.1.2,None,
F369.jpg,3100.jpg,2 Points,2 Points,174 Points,PS1_L3.csv,,,,,,,,,,,,,,,,,,,,,,,,,,,,,0,2,2,2,0,22,22,22,,,,,,,,,,,,,,,,,,,1469.1250769160006,p,0.7781854170007136,1470.0022014159995,,,,,,65,A,2025-02-12_09h07.34.931,EPIDM,2023.1.2,None,
2620.jpg,2594.jpg,0 Points,0 Points,174 Points,PS1_L3.csv,,,,,,,,,,,,,,,,,,,,,,,,,,,,,0,2,2,2,0,23,23,23,,,,,,,,,,,,,,,,,,,1474.2233138330002,p,1.12751204199958,1475.447769583,,,1485.8927710830003,space,2.2659031669991236,65,A,2025-02-12_09h07.34.931,EPIDM,2023.1.2,None,
P019.jpg,F158.jpg,3 Points,3 Points,177 Points,PS1_L4.csv,,,,,,,,,,,,,,,,,,,,,,,,,,,,,0,3,3,3,0,0,0,0,,,,,,,,,,,,,,,,,,,1491.4788324579995,q,0.4712934170001972,1492.0890280409994,,,,,,65,A,2025-02-12_09h07.34.931,EPIDM,2023.1.2,None,
7620.jpg,5395.jpg,1 Point,1 Point,178 Points,PS1_L4.csv,,,,,,,,,,,,,,,,,,,,,,,,,,,,,0,3,3,3,0,1,1,1,,,,,,,,,,,,,,,,,,,1496.2684952080008,q,1.3465304169985757,1497.7201872079995,1,1.6607550839999021,,,,65,A,2025-02-12_09h07.34.931,EPIDM,2023.1.2,None,
5970.jpg,3300.jpg,0 Points,0 Points,178 Points,PS1_L4.csv,,,,,,,,,,,,,,,,,,,,,,,,,,,,,0,3,3,3,0,2,2,2,,,,,,,,,,,,,,,,,,,1503.6482137489993,p,0.8857549999993353,1504.6069107489993,,,,,,65,A,2025-02-12_09h07.34.931,EPIDM,2023.1.2,None,
5120.jpg,5520.jpg,2 Points,2 Points,180 Points,PS1_L4.csv,,,,,,,,,,,,,,,,,,,,,,,,,,,,,0,3,3,3,0,3,3,3,,,,,,,,,,,,,,,,,,,1508.8608264580007,p,0.6885509170006117,1509.6253983329998,,,,,,65,A,2025-02-12_09h07.34.931,EPIDM,2023.1.2,None,
9452.jpg,7184.jpg,4 Points,4 Points,184 Points,PS1_L4.csv,,,,,,,,,,,,,,,,,,,,,,,,,,,,,0,3,3,3,0,4,4,4,,,,,,,,,,,,,,,,,,,1513.8687450829993,q,1.0729387510000379,1515.0116027489994,,,,,,65,A,2025-02-12_09h07.34.931,EPIDM,2023.1.2,None,
6570.1.jpg,9432.jpg,5 Points,5 Points,189 Points,PS1_L4.csv,,,,,,,,,,,,,,,,,,,,,,,,,,,,,0,3,3,3,0,5,5,5,,,,,,,,,,,,,,,,,,,1519.2612730409992,q,1.417618166999091,1520.7507028739992,,,,,,65,A,2025-02-12_09h07.34.931,EPIDM,2023.1.2,None,
2389.jpg,7320.jpg,0 Points,0 Points,189 Points,PS1_L4.csv,,,,,,,,,,,,,,,,,,,,,,,,,,,,,0,3,3,3,0,6,6,6,,,,,,,,,,,,,,,,,,,1524.9951524159997,q,1.7472367089994805,1526.813332666,,,,,,65,A,2025-02-12_09h07.34.931,EPIDM,2023.1.2,None,
9330.jpg,3015.jpg,5 Points,5 Points,194 Points,PS1_L4.csv,,,,,,,,,,,,,,,,,,,,,,,,,,,,,0,3,3,3,0,7,7,7,,,,,,,,,,,,,,,,,,,1531.0605852910003,p,0.672771166999155,1531.8025699159998,,,,,,65,A,2025-02-12_09h07.34.931,EPIDM,2023.1.2,None,
9560.jpg,3071.jpg,1 Point,1 Point,195 Points,PS1_L4.csv,,,,,,,,,,,,,,,,,,,,,,,,,,,,,0,3,3,3,0,8,8,8,,,,,,,,,,,,,,,,,,,1536.0556670409997,p,0.5343071249990317,1536.6566079579998,,,,,,65,A,2025-02-12_09h07.34.931,EPIDM,2023.1.2,None,
5994.jpg,5390.jpg,0 Points,0 Points,195 Points,PS1_L4.csv,,,,,,,,,,,,,,,,,,,,,,,,,,,,,0,3,3,3,0,9,9,9,,,,,,,,,,,,,,,,,,,1540.9101010410004,q,1.2860762079999404,1542.2682522910009,,,,,,65,A,2025-02-12_09h07.34.931,EPIDM,2023.1.2,None,
2692.jpg,8231.jpg,4 Points,4 Points,199 Points,PS1_L4.csv,,,,,,,,,,,,,,,,,,,,,,,,,,,,,0,3,3,3,0,10,10,10,,,,,,,,,,,,,,,,,,,1546.5236119579995,p,0.37143558299976576,1546.9568847910004,,,,,,65,A,2025-02-12_09h07.34.931,EPIDM,2023.1.2,None,
F174.jpg,9404.jpg,5 Points,5 Points,204 Points,PS1_L4.csv,,,,,,,,,,,,,,,,,,,,,,,,,,,,,0,3,3,3,0,11,11,11,,,,,,,,,,,,,,,,,,,1551.2107414579996,q,0.38641125099820783,1551.707094208,,,,,,65,A,2025-02-12_09h07.34.931,EPIDM,2023.1.2,None,
8010.jpg,2630.jpg,0 Points,0 Points,204 Points,PS1_L4.csv,,,,,,,,,,,,,,,,,,,,,,,,,,,,,0,3,3,3,0,12,12,12,,,,,,,,,,,,,,,,,,,1555.9253036660002,q,0.736039000998062,1556.7359616660005,,,,,,65,A,2025-02-12_09h07.34.931,EPIDM,2023.1.2,None,
7175.jpg,7490.jpg,2 Points,2 Points,206 Points,PS1_L4.csv,,,,,,,,,,,,,,,,,,,,,,,,,,,,,0,3,3,3,0,13,13,13,,,,,,,,,,,,,,,,,,,1560.9899610830007,p,0.8305373329985741,1561.8914154160002,2,1.447575333999339,,,,65,A,2025-02-12_09h07.34.931,EPIDM,2023.1.2,None,
6561.jpg,1525.jpg,2 Points,2 Points,208 Points,PS1_L4.csv,,,,,,,,,,,,,,,,,,,,,,,,,,,,,0,3,3,3,0,14,14,14,,,,,,,,,,,,,,,,,,,1567.6602160409993,q,2.5605849999992643,1570.2945817490008,,,,,,65,A,2025-02-12_09h07.34.931,EPIDM,2023.1.2,None,
9070.jpg,9420.jpg,2 Points,2 Points,210 Points,PS1_L4.csv,,,,,,,,,,,,,,,,,,,,,,,,,,,,,0,3,3,3,0,15,15,15,,,,,,,,,,,,,,,,,,,1574.5511847909993,p,0.7740556669996295,1575.3880597910002,,,,,,65,A,2025-02-12_09h07.34.931,EPIDM,2023.1.2,None,
2516.jpg,8500.jpg,4 Points,4 Points,214 Points,PS1_L4.csv,,,,,,,,,,,,,,,,,,,,,,,,,,,,,0,3,3,3,0,16,16,16,,,,,,,,,,,,,,,,,,,1579.646284333,q,0.42206383399934566,1580.1365465410008,,,,,,65,A,2025-02-12_09h07.34.931,EPIDM,2023.1.2,None,
9140.jpg,2810.jpg,3 Points,3 Points,217 Points,PS1_L4.csv,,,,,,,,,,,,,,,,,,,,,,,,,,,,,0,3,3,3,0,17,17,17,,,,,,,,,,,,,,,,,,,1584.3809729989998,q,1.1595964999996795,1585.6041504159994,,,,,,65,A,2025-02-12_09h07.34.931,EPIDM,2023.1.2,None,
7220.jpg,8090.jpg,2 Points,2 Points,219 Points,PS1_L4.csv,,,,,,,,,,,,,,,,,,,,,,,,,,,,,0,3,3,3,0,18,18,18,,,,,,,,,,,,,,,,,,,1589.8471139990006,p,0.924569041999348,1590.839604666001,,,,,,65,A,2025-02-12_09h07.34.931,EPIDM,2023.1.2,None,
2661.jpg,2870.jpg,5 Points,5 Points,224 Points,PS1_L4.csv,,,,,,,,,,,,,,,,,,,,,,,,,,,,,0,3,3,3,0,19,19,19,,,,,,,,,,,,,,,,,,,1595.0933359990004,q,1.158926459000213,1596.325001874001,,,,,,65,A,2025-02-12_09h07.34.931,EPIDM,2023.1.2,None,
6010.jpg,7361.jpg,2 Points,2 Points,226 Points,PS1_L4.csv,,,,,,,,,,,,,,,,,,,,,,,,,,,,,0,3,3,3,0,20,20,20,,,,,,,,,,,,,,,,,,,1600.579298791,q,1.3039014589994622,1601.9546225830009,,,,,,65,A,2025-02-12_09h07.34.931,EPIDM,2023.1.2,None,
7289.jpg,4534.jpg,0 Points,0 Points,226 Points,PS1_L4.csv,,,,,,,,,,,,,,,,,,,,,,,,,,,,,0,3,3,3,0,21,21,21,,,,,,,,,,,,,,,,,,,1606.2065369580005,p,1.5974961249994521,1607.8815873329995,,,,,,65,A,2025-02-12_09h07.34.931,EPIDM,2023.1.2,None,
1310.jpg,3181.jpg,4 Points,4 Points,230 Points,PS1_L4.csv,,,,,,,,,,,,,,,,,,,,,,,,,,,,,0,3,3,3,0,22,22,22,,,,,,,,,,,,,,,,,,,1612.1261730830001,q,0.7264198339998984,1612.9190633740009,,,,,,65,A,2025-02-12_09h07.34.931,EPIDM,2023.1.2,None,
2383.jpg,1616.jpg,2 Points,2 Points,232 Points,PS1_L4.csv,,,,,,,,,,,,,,,,,,,,,,,,,,,,,0,3,3,3,0,23,23,23,,,,,,,,,,,,,,,,,,,1617.1762694159997,p,2.117200500999388,1619.3680842490003,,,1629.830341416001,space,22.779576750999695,65,A,2025-02-12_09h07.34.931,EPIDM,2023.1.2,None,
4510.jpg,2230.jpg,5 Points,5 Points,237 Points,PS1_L5.csv,,,,,,,,,,,,,,,,,,,,,,,,,,,,,0,4,4,4,0,0,0,0,,,,,,,,,,,,,,,,,,,1655.9295666240005,q,1.8012042509981256,1657.8106229579998,,,,,,65,A,2025-02-12_09h07.34.931,EPIDM,2023.1.2,None,
A025.jpg,1051.jpg,0 Points,0 Points,237 Points,PS1_L5.csv,,,,,,,,,,,,,,,,,,,,,,,,,,,,,0,4,4,4,0,1,1,1,,,,,,,,,,,,,,,,,,,1662.0474949989994,q,0.9303906249988358,1663.0960398329998,0,1.8177235000002838,,,,65,A,2025-02-12_09h07.34.931,EPIDM,2023.1.2,None,
7002.jpg,4660.jpg,4 Points,4 Points,241 Points,PS1_L5.csv,,,,,,,,,,,,,,,,,,,,,,,,,,,,,0,4,4,4,0,2,2,2,,,,,,,,,,,,,,,,,,,1669.2354217910006,p,1.2158463340001617,1670.5622249159996,,,,,,65,A,2025-02-12_09h07.34.931,EPIDM,2023.1.2,None,
2900.jpg,1101.jpg,3 Points,3 Points,244 Points,PS1_L5.csv,,,,,,,,,,,,,,,,,,,,,,,,,,,,,0,4,4,4,0,3,3,3,,,,,,,,,,,,,,,,,,,1674.7680819989992,q,0.5703131259997463,1675.4184470409991,,,,,,65,A,2025-02-12_09h07.34.931,EPIDM,2023.1.2,None,
2485.jpg,7350.jpg,0 Points,0 Points,244 Points,PS1_L5.csv,,,,,,,,,,,,,,,,,,,,,,,,,,,,,0,4,4,4,0,4,4,4,,,,,,,,,,,,,,,,,,,1679.6540626659998,q,0.7966685419996793,1680.5262930830004,,,,,,65,A,2025-02-12_09h07.34.931,EPIDM,2023.1.2,None,
6242.jpg,F034.jpg,4 Points,4 Points,248 Points,PS1_L5.csv,,,,,,,,,,,,,,,,,,,,,,,,,,,,,0,4,4,4,0,5,5,5,,,,,,,,,,,,,,,,,,,1684.7717992490007,p,1.0302627500004746,1685.9147427489997,,,,,,65,A,2025-02-12_09h07.34.931,EPIDM,2023.1.2,None,
3170.jpg,6560.jpg,2 Points,2 Points,250 Points,PS1_L5.csv,,,,,,,,,,,,,,,,,,,,,,,,,,,,,0,4,4,4,0,6,6,6,,,,,,,,,,,,,,,,,,,1690.1243443329995,q,0.3335694170000352,1690.565692874,,,,,,65,A,2025-02-12_09h07.34.931,EPIDM,2023.1.2,None,
8033.jpg,7270.jpg,3 Points,3 Points,253 Points,PS1_L5.csv,,,,,,,,,,,,,,,,,,,,,,,,,,,,,0,4,4,4,0,7,7,7,,,,,,,,,,,,,,,,,,,1694.7884535410003,p,0.8526774580004712,1695.708905208,,,,,,65,A,2025-02-12_09h07.34.931,EPIDM,2023.1.2,None,
2597.jpg,5870.jpg,5 Points,5 Points,258 Points,PS1_L5.csv,,,,,,,,,,,,,,,,,,,,,,,,,,,,,0,4,4,4,0,8,8,8,,,,,,,,,,,,,,,,,,,1699.9576219990004,q,0.756716833999235,1700.7844475409993,,,,,,65,A,2025-02-12_09h07.34.931,EPIDM,2023.1.2,None,
6312.jpg,3230.jpg,2 Points,2 Points,260 Points,PS1_L5.csv,,,,,,,,,,,,,,,,,,,,,,,,,,,,,0,4,4,4,0,9,9,9,,,,,,,,,,,,,,,,,,,1705.0338839160004,p,0.7750436249989434,1705.8829084159997,,,,,,65,A,2025-02-12_09h07.34.931,EPIDM,2023.1.2,None,
3130.jpg,3500.jpg,4 Points,4 Points,264 Points,PS1_L5.csv,,,,,,,,,,,,,,,,,,,,,,,,,,,,,0,4,4,4,0,10,10,10,,,,,,,,,,,,,,,,,,,1710.1380667490002,q,0.35264441699837334,1710.5604309990003,,,,,,65,A,2025-02-12_09h07.34.931,EPIDM,2023.1.2,None,
2749.jpg,7282.jpg,3 Points,3 Points,267 Points,PS1_L5.csv,,,,,,,,,,,,,,,,,,,,,,,,,,,,,0,4,4,4,0,11,11,11,,,,,,,,,,,,,,,,,,,1714.8089794159996,p,0.8717307499991875,1715.7609137490008,,,,,,65,A,2025-02-12_09h07.34.931,EPIDM,2023.1.2,None,
5300.jpg,2372.jpg,1 Point,1 Point,268 Points,PS1_L5.csv,,,,,,,,,,,,,,,,,,,,,,,,,,,,,0,4,4,4,0,12,12,12,,,,,,,,,,,,,,,,,,,1720.000216333,p,0.6568197919987142,1720.7246404579992,,,,,,65,A,2025-02-12_09h07.34.931,EPIDM,2023.1.2,None,
6510.jpg,A074.jpg,2 Points,2 Points,270 Points,PS1_L5.csv,,,,,,,,,,,,,,,,,,,,,,,,,,,,,0,4,4,4,0,13,13,13,,,,,,,,,,,,,,,,,,,1724.9719377909996,p,1.2454927920007322,1726.3321798330007,2,1.5356790839996393,,,,65,A,2025-02-12_09h07.34.931,EPIDM,2023.1.2,None,
2260.jpg,2830.jpg,5 Points,5 Points,275 Points,PS1_L5.csv,,,,,,,,,,,,,,,,,,,,,,,,,,,,,0,4,4,4,0,14,14,14,,,,,,,,,,,,,,,,,,,1732.1859052080008,p,1.40679450099924,1733.6687188740007,,,,,,65,A,2025-02-12_09h07.34.931,EPIDM,2023.1.2,None,
2710.jpg,9252.jpg,1 Point,1 Point,276 Points,PS1_L5.csv,,,,,,,,,,,,,,,,,,,,,,,,,,,,,0,4,4,4,0,15,15,15,,,,,,,,,,,,,,,,,,,1737.9164194579998,p,0.7572506670003349,1738.7425774579997,,,,,,65,A,2025-02-12_09h07.34.931,EPIDM,2023.1.2,None,
3064.jpg,3168.jpg,4 Points,4 Points,280 Points,PS1_L5.csv,,,,,,,,,,,,,,,,,,,,,,,,,,,,,0,4,4,4,0,16,16,16,,,,,,,,,,,,,,,,,,,1742.9864722909997,q,0.4707242080003198,1743.5141389989994,,,,,,65,A,2025-02-12_09h07.34.931,EPIDM,2023.1.2,None,
1640.jpg,5531.jpg,3 Points,3 Points,283 Points,PS1_L5.csv,,,,,,,,,,,,,,,,,,,,,,,,,,,,,0,4,4,4,0,17,17,17,,,,,,,,,,,,,,,,,,,1747.7765893330006,q,0.6488579580000078,1748.5068289580004,,,,,,65,A,2025-02-12_09h07.34.931,EPIDM,2023.1.2,None,
3530.jpg,6213.jpg,1 Point,1 Point,284 Points,PS1_L5.csv,,,,,,,,,,,,,,,,,,,,,,,,,,,,,0,4,4,4,0,18,18,18,,,,,,,,,,,,,,,,,,,1752.7463674159999,q,0.982337875999292,1753.8075732080006,,,,,,65,A,2025-02-12_09h07.34.931,EPIDM,2023.1.2,None,
9090.jpg,7580.jpg,3 Points,3 Points,287 Points,PS1_L5.csv,,,,,,,,,,,,,,,,,,,,,,,,,,,,,0,4,4,4,0,19,19,19,,,,,,,,,,,,,,,,,,,1758.0556827909995,q,0.9211232090001431,1759.0543047910005,,,,,,65,A,2025-02-12_09h07.34.931,EPIDM,2023.1.2,None,
8230.jpg,2682.jpg,5 Points,5 Points,292 Points,PS1_L5.csv,,,,,,,,,,,,,,,,,,,,,,,,,,,,,0,4,4,4,0,20,20,20,,,,,,,,,,,,,,,,,,,1763.2920225829994,q,0.7986921249994339,1764.1559698739993,,,,,,65,A,2025-02-12_09h07.34.931,EPIDM,2023.1.2,None,
9592.jpg,1300.jpg,2 Points,2 Points,294 Points,PS1_L5.csv,,,,,,,,,,,,,,,,,,,,,,,,,,,,,0,4,4,4,0,21,21,21,,,,,,,,,,,,,,,,,,,1768.4101171240009,p,0.33331033299873525,1768.808235124,,,,,,65,A,2025-02-12_09h07.34.931,EPIDM,2023.1.2,None,
2490.jpg,2590.jpg,4 Points,4 Points,298 Points,PS1_L5.csv,,,,,,,,,,,,,,,,,,,,,,,,,,,,,0,4,4,4,0,22,22,22,,,,,,,,,,,,,,,,,,,1773.0700220410008,p,0.6260118339996552,1773.7702274989997,,,,,,65,A,2025-02-12_09h07.34.931,EPIDM,2023.1.2,None,
2190.jpg,7503.jpg,2 Points,2 Points,300 Points,PS1_L5.csv,,,,,,,,,,,,,,,,,,,,,,,,,,,,,0,4,4,4,0,23,23,23,,,,,,,,,,,,,,,,,,,1778.0197388740007,p,1.5240607509986148,1779.6200111659991,,,1790.1026211239996,space,12.656714750999527,65,A,2025-02-12_09h07.34.931,EPIDM,2023.1.2,None,
1930.jpg,9008.jpg,1 Point,1 Point,301 Points,PS1_L6.csv,,,,,,,,,,,,,,,,,,,,,,,,,,,,,0,5,5,5,0,0,0,0,,,,,,,,,,,,,,,,,,,1806.0841022079994,p,0.5890779589990416,1806.7667620410002,,,,,,65,A,2025-02-12_09h07.34.931,EPIDM,2023.1.2,None,
4613.jpg,2720.jpg,4 Points,4 Points,305 Points,PS1_L6.csv,,,,,,,,,,,,,,,,,,,,,,,,,,,,,0,5,5,5,0,1,1,1,,,,,,,,,,,,,,,,,,,1811.0014558329995,q,1.118580333999489,1812.1899251660006,4,1.4358754579989181,,,,65,A,2025-02-12_09h07.34.931,EPIDM,2023.1.2,None,
3280.jpg,9270.jpg,0 Points,0 Points,305 Points,PS1_L6.csv,,,,,,,,,,,,,,,,,,,,,,,,,,,,,0,5,5,5,0,2,2,2,,,,,,,,,,,,,,,,,,,1817.9287477909993,q,1.3987638750004407,1819.3941850830006,,,,,,65,A,2025-02-12_09h07.34.931,EPIDM,2023.1.2,None,
6800.jpg,9190.jpg,0 Points,0 Points,305 Points,PS1_L6.csv,,,,,,,,,,,,,,,,,,,,,,,,,,,,,0,5,5,5,0,3,3,3,,,,,,,,,,,,,,,,,,,1823.6513225829995,p,0.7550077089999832,1824.468604916,,,,,,65,A,2025-02-12_09h07.34.931,EPIDM,2023.1.2,None,
5600.jpg,9080.jpg,5 Points,5 Points,310 Points,PS1_L6.csv,,,,,,,,,,,,,,,,,,,,,,,,,,,,,0,5,5,5,0,4,4,4,,,,,,,,,,,,,,,,,,,1828.7180039160003,p,1.5129105419982807,1830.3159422910003,,,,,,65,A,2025-02-12_09h07.34.931,EPIDM,2023.1.2,None,
P211.jpg,9041.jpg,4 Points,4 Points,314 Points,PS1_L6.csv,,,,,,,,,,,,,,,,,,,,,,,,,,,,,0,5,5,5,0,5,5,5,,,,,,,,,,,,,,,,,,,1834.5529573329995,q,0.6060200009997061,1835.2657905829992,,,,,,65,A,2025-02-12_09h07.34.931,EPIDM,2023.1.2,None,
5200.jpg,5020.jpg,0 Points,0 Points,314 Points,PS1_L6.csv,,,,,,,,,,,,,,,,,,,,,,,,,,,,,0,5,5,5,0,6,6,6,,,,,,,,,,,,,,,,,,,1839.4775441240008,q,0.8886942089993681,1840.4425689160007,,,,,,65,A,2025-02-12_09h07.34.931,EPIDM,2023.1.2,None,
1850.jpg,5623.jpg,5 Points,5 Points,319 Points,PS1_L6.csv,,,,,,,,,,,,,,,,,,,,,,,,,,,,,0,5,5,5,0,7,7,7,,,,,,,,,,,,,,,,,,,1844.6871814159995,q,0.7918577500004176,1845.5561743740009,,,,,,65,A,2025-02-12_09h07.34.931,EPIDM,2023.1.2,None,
9440.jpg,6350.jpg,4 Points,4 Points,323 Points,PS1_L6.csv,,,,,,,,,,,,,,,,,,,,,,,,,,,,,0,5,5,5,0,8,8,8,,,,,,,,,,,,,,,,,,,1849.8086979160007,p,1.2134392499992828,1851.0786609159995,,,,,,65,A,2025-02-12_09h07.34.931,EPIDM,2023.1.2,None,
5990.jpg,5780.jpg,3 Points,3 Points,326 Points,PS1_L6.csv,,,,,,,,,,,,,,,,,,,,,,,,,,,,,0,5,5,5,0,9,9,9,,,,,,,,,,,,,,,,,,,1855.331026416,q,0.867569124999136,1856.2621472910005,,,,,,65,A,2025-02-12_09h07.34.931,EPIDM,2023.1.2,None,
6244.jpg,9265.jpg,0 Points,0 Points,326 Points,PS1_L6.csv,,,,,,,,,,,,,,,,,,,,,,,,,,,,,0,5,5,5,0,10,10,10,,,,,,,,,,,,,,,,,,,1860.5140183739995,p,1.3317697500006034,1861.9146862080006,,,,,,65,A,2025-02-12_09h07.34.931,EPIDM,2023.1.2,None,
5000.jpg,8180.jpg,4 Points,4 Points,330 Points,PS1_L6.csv,,,,,,,,,,,,,,,,,,,,,,,,,,,,,0,5,5,5,0,11,11,11,,,,,,,,,,,,,,,,,,,1866.1637351660002,p,1.370727251000062,1867.6051893739996,,,,,,65,A,2025-02-12_09h07.34.931,EPIDM,2023.1.2,None,
5982.jpg,5260.jpg,5 Points,5 Points,335 Points,PS1_L6.csv,,,,,,,,,,,,,,,,,,,,,,,,,,,,,0,5,5,5,0,12,12,12,,,,,,,,,,,,,,,,,,,1871.8471302490007,p,1.2547628339998482,1873.1734436239994,,,,,,65,A,2025-02-12_09h07.34.931,EPIDM,2023.1.2,None,
1301.jpg,1070.jpg,2 Points,2 Points,337 Points,PS1_L6.csv,,,,,,,,,,,,,,,,,,,,,,,,,,,,,0,5,5,5,0,13,13,13,,,,,,,,,,,,,,,,,,,1877.4108271239993,q,0.8267793340000935,1878.3127999580001,2,1.6682515419979609,,,,65,A,2025-02-12_09h07.34.931,EPIDM,2023.1.2,None,
7920.jpg,9102.jpg,3 Points,3 Points,340 Points,PS1_L6.csv,,,,,,,,,,,,,,,,,,,,,,,,,,,,,0,5,5,5,0,14,14,14,,,,,,,,,,,,,,,,,,,1884.2997790830004,p,1.6897338339986163,1886.0687658329998,,,,,,65,A,2025-02-12_09h07.34.931,EPIDM,2023.1.2,None,
5455.jpg,5220.jpg,0 Points,0 Points,340 Points,PS1_L6.csv,,,,,,,,,,,,,,,,,,,,,,,,,,,,,0,5,5,5,0,15,15,15,,,,,,,,,,,,,,,,,,,1890.3132367490007,q,0.9744244590001472,1891.3552999579997,,,,,,65,A,2025-02-12_09h07.34.931,EPIDM,2023.1.2,None,
3350.jpg,3210.jpg,1 Point,1 Point,341 Points,PS1_L6.csv,,,,,,,,,,,,,,,,,,,,,,,,,,,,,0,5,5,5,0,16,16,16,,,,,,,,,,,,,,,,,,,1895.6026100829995,q,0.785899917000279,1896.4507001240008,,,,,,65,A,2025-02-12_09h07.34.931,EPIDM,2023.1.2,None,
2560.jpg,5270.jpg,4 Points,4 Points,345 Points,PS1_L6.csv,,,,,,,,,,,,,,,,,,,,,,,,,,,,,0,5,5,5,0,17,17,17,,,,,,,,,,,,,,,,,,,1900.7079142489993,p,2.169736625999576,1902.944163833,,,,,,65,A,2025-02-12_09h07.34.931,EPIDM,2023.1.2,None,
9584.jpg,3400.jpg,2 Points,2 Points,347 Points,PS1_L6.csv,,,,,,,,,,,,,,,,,,,,,,,,,,,,,0,5,5,5,0,18,18,18,,,,,,,,,,,,,,,,,,,1907.1960783740005,p,0.6486062080002739,1907.9086229579998,,,,,,65,A,2025-02-12_09h07.34.931,EPIDM,2023.1.2,None,
5760.jpg,1602.jpg,1 Point,1 Point,348 Points,PS1_L6.csv,,,,,,,,,,,,,,,,,,,,,,,,,,,,,0,5,5,5,0,19,19,19,,,,,,,,,,,,,,,,,,,1912.1639812080002,q,0.4974896670009912,1912.720563541,,,,,,65,A,2025-02-12_09h07.34.931,EPIDM,2023.1.2,None,
7230.jpg,7570.jpg,5 Points,5 Points,353 Points,PS1_L6.csv,,,,,,,,,,,,,,,,,,,,,,,,,,,,,0,5,5,5,0,20,20,20,,,,,,,,,,,,,,,,,,,1916.979467958,p,0.6657819169995491,1917.7145357910003,,,,,,65,A,2025-02-12_09h07.34.931,EPIDM,2023.1.2,None,
1022.jpg,6930.jpg,1 Point,1 Point,354 Points,PS1_L6.csv,,,,,,,,,,,,,,,,,,,,,,,,,,,,,0,5,5,5,0,21,21,21,,,,,,,,,,,,,,,,,,,1921.9562674580002,p,1.0087647090003884,1923.0345205410003,,,,,,65,A,2025-02-12_09h07.34.931,EPIDM,2023.1.2,None,
8340.jpg,7546.jpg,2 Points,2 Points,356 Points,PS1_L6.csv,,,,,,,,,,,,,,,,,,,,,,,,,,,,,0,5,5,5,0,22,22,22,,,,,,,,,,,,,,,,,,,1927.2755192489994,p,1.121532250999735,1928.4769527489998,,,,,,65,A,2025-02-12_09h07.34.931,EPIDM,2023.1.2,None,
6243.jpg,2752.jpg,2 Points,2 Points,358 Points,PS1_L6.csv,,,,,,,,,,,,,,,,,,,,,,,,,,,,,0,5,5,5,0,23,23,23,,,,,,,,,,,,,,,,,,,1932.7222563740006,q,0.9227703329997894,1933.707951333,,,1944.1886025409995,space,1.4561422919996403,65,A,2025-02-12_09h07.34.931,EPIDM,2023.1.2,None,
7280.jpg,7160.jpg,0 Points,0 Points,358 Points,PS1_L7.csv,,,,,,,,,,,,,,,,,,,,,,,,,,,,,0,6,6,6,0,0,0,0,,,,,,,,,,,,,,,,,,,1948.9720593329994,q,0.9598080829982791,1950.0141546660006,,,,,,65,A,2025-02-12_09h07.34.931,EPIDM,2023.1.2,None,
2580.jpg,8300.jpg,3 Points,3 Points,361 Points,PS1_L7.csv,,,,,,,,,,,,,,,,,,,,,,,,,,,,,0,6,6,6,0,1,1,1,,,,,,,,,,,,,,,,,,,1954.248133958,q,1.3554449590010336,1955.6775597080004,3,1.5786422089986445,,,,65,A,2025-02-12_09h07.34.931,EPIDM,2023.1.2,None,
5972.jpg,6838.jpg,5 Points,5 Points,366 Points,PS1_L7.csv,,,,,,,,,,,,,,,,,,,,,,,,,,,,,0,6,6,6,0,2,2,2,,,,,,,,,,,,,,,,,,,1961.5581724579997,p,1.5738448760002939,1963.2023312909996,,,,,,65,A,2025-02-12_09h07.34.931,EPIDM,2023.1.2,None,
5621.jpg,5534.jpg,3 Points,3 Points,369 Points,PS1_L7.csv,,,,,,,,,,,,,,,,,,,,,,,,,,,,,0,6,6,6,0,3,3,3,,,,,,,,,,,,,,,,,,,1967.4479558739995,q,1.171645417000036,1968.6866777910009,,,,,,65,A,2025-02-12_09h07.34.931,EPIDM,2023.1.2,None,
8480.jpg,6410.jpg,1 Point,1 Point,370 Points,PS1_L7.csv,,,,,,,,,,,,,,,,,,,,,,,,,,,,,0,6,6,6,0,4,4,4,,,,,,,,,,,,,,,,,,,1972.9380741239993,q,0.9606042499999603,1973.9882672079993,,,,,,65,A,2025-02-12_09h07.34.931,EPIDM,2023.1.2,None,
2702.jpg,1590.jpg,5 Points,5 Points,375 Points,PS1_L7.csv,,,,,,,,,,,,,,,,,,,,,,,,,,,,,0,6,6,6,0,5,5,5,,,,,,,,,,,,,,,,,,,1978.2313247909997,p,1.587765958000091,1979.9038311239992,,,,,,65,A,2025-02-12_09h07.34.931,EPIDM,2023.1.2,None,
1275.jpg,3150.jpg,1 Point,1 Point,376 Points,PS1_L7.csv,,,,,,,,,,,,,,,,,,,,,,,,,,,,,0,6,6,6,0,6,6,6,,,,,,,,,,,,,,,,,,,1984.1510392490009,p,0.5316578750007466,1984.770709583,,,,,,65,A,2025-02-12_09h07.34.931,EPIDM,2023.1.2,None,
1910.jpg,2575.jpg,2 Points,2 Points,378 Points,PS1_L7.csv,,,,,,,,,,,,,,,,,,,,,,,,,,,,,0,6,6,6,0,7,7,7,,,,,,,,,,,,,,,,,,,1989.012394458,p,1.2226128760012216,1990.3044047079993,,,,,,65,A,2025-02-12_09h07.34.931,EPIDM,2023.1.2,None,
2518.jpg,2381.jpg,1 Point,1 Point,382 Points,PS1_L7.csv,,,,,,,,,,,,,,,,,,,,,,,,,,,,,0,6,6,6,0,8,8,8,,,,,,,,,,,,,,,,,,,1994.554907791001,q,1.2488755829999718,1995.8663057080003,,,,,,65,A,2025-02-12_09h07.34.931,EPIDM,2023.1.2,None,
6250.1.jpg,3301.jpg,0 Points,0 Points,382 Points,PS1_L7.csv,,,,,,,,,,,,,,,,,,,,,,,,,,,,,0,6,6,6,0,9,9,9,,,,,,,,,,,,,,,,,,,2000.1245984579991,p,0.974724249999781,2001.1638180830005,,,,,,65,A,2025-02-12_09h07.34.931,EPIDM,2023.1.2,None,
7234.jpg,5533.jpg,3 Points,3 Points,385 Points,PS1_L7.csv,,,,,,,,,,,,,,,,,,,,,,,,,,,,,0,6,6,6,0,10,10,10,,,,,,,,,,,,,,,,,,,2005.4167327910009,p,1.538007999999536,2007.0360487490007,,,,,,65,A,2025-02-12_09h07.34.931,EPIDM,2023.1.2,None,
9920.jpg,3068.jpg,5 Points,5 Points,390 Points,PS1_L7.csv,,,,,,,,,,,,,,,,,,,,,,,,,,,,,0,6,6,6,0,11,11,11,,,,,,,,,,,,,,,,,,,2011.290505291,p,0.6160327089983184,2011.9695885409992,,,,,,65,A,2025-02-12_09h07.34.931,EPIDM,2023.1.2,None,
3022.jpg,2352.2.jpg,0 Points,0 Points,390 Points,PS1_L7.csv,,,,,,,,,,,,,,,,,,,,,,,,,,,,,0,6,6,6,0,12,12,12,,,,,,,,,,,,,,,,,,,2016.2269724160005,p,0.6710034999996424,2016.9667943739996,,,,,,65,A,2025-02-12_09h07.34.931,EPIDM,2023.1.2,None,
8250.jpg,1313.jpg,4 Points,4 Points,394 Points,PS1_L7.csv,,,,,,,,,,,,,,,,,,,,,,,,,,,,,0,6,6,6,0,13,13,13,,,,,,,,,,,,,,,,,,,2021.2160070830005,p,1.0822977090010681,2022.3695543330005,2,2.4718162499993923,,,,65,A,2025-02-12_09h07.34.931,EPIDM,2023.1.2,None,
2690.jpg,9360.jpg,1 Point,1 Point,395 Points,PS1_L7.csv,,,,,,,,,,,,,,,,,,,,,,,,,,,,,0,6,6,6,0,14,14,14,,,,,,,,,,,,,,,,,,,2029.1597624159995,q,2.17048533399975,2031.4042832490004,,,,,,65,A,2025-02-12_09h07.34.931,EPIDM,2023.1.2,None,
9570.jpg,6610.jpg,0 Points,0 Points,395 Points,PS1_L7.csv,,,,,,,,,,,,,,,,,,,,,,,,,,,,,0,6,6,6,0,15,15,15,,,,,,,,,,,,,,,,,,,2035.6465401239993,q,0.8508889590011677,2036.5708327910006,,,,,,65,A,2025-02-12_09h07.34.931,EPIDM,2023.1.2,None,
3110.jpg,9000.jpg,4 Points,4 Points,399 Points,PS1_L7.csv,,,,,,,,,,,,,,,,,,,,,,,,,,,,,0,6,6,6,0,16,16,16,,,,,,,,,,,,,,,,,,,2040.8364098739994,q,0.7413957499993558,2041.6454137909996,,,,,,65,A,2025-02-12_09h07.34.931,EPIDM,2023.1.2,None,
8465.jpg,8400.jpg,1 Point,1 Point,400 Points,PS1_L7.csv,,,,,,,,,,,,,,,,,,,,,,,,,,,,,0,6,6,6,0,17,17,17,,,,,,,,,,,,,,,,,,,2045.8927493740002,p,1.5250527079988387,2047.4938204580003,,,,,,65,A,2025-02-12_09h07.34.931,EPIDM,2023.1.2,None,
1540.jpg,2600.jpg,1 Point,1 Point,401 Points,PS1_L7.csv,,,,,,,,,,,,,,,,,,,,,,,,,,,,,0,6,6,6,0,18,18,18,,,,,,,,,,,,,,,,,,,2051.752495915999,p,0.9209604589996161,2052.7390960830007,,,,,,65,A,2025-02-12_09h07.34.931,EPIDM,2023.1.2,None,
2276.jpg,6540.jpg,3 Points,3 Points,404 Points,PS1_L7.csv,,,,,,,,,,,,,,,,,,,,,,,,,,,,,0,6,6,6,0,19,19,19,,,,,,,,,,,,,,,,,,,2057.0033476239996,p,0.7094264999996085,2057.7759544579994,,,,,,65,A,2025-02-12_09h07.34.931,EPIDM,2023.1.2,None,
5030.jpg,1670.jpg,3 Points,3 Points,407 Points,PS1_L7.csv,,,,,,,,,,,,,,,,,,,,,,,,,,,,,0,6,6,6,0,20,20,20,,,,,,,,,,,,,,,,,,,2062.035791957999,p,0.9092628760008665,2063.0049222490006,,,,,,65,A,2025-02-12_09h07.34.931,EPIDM,2023.1.2,None,
9040.jpg,1120.jpg,3 Points,3 Points,410 Points,PS1_L7.csv,,,,,,,,,,,,,,,,,,,,,,,,,,,,,0,6,6,6,0,21,21,21,,,,,,,,,,,,,,,,,,,2067.2589496240007,q,0.9661311249983555,2068.282398708,,,,,,65,A,2025-02-12_09h07.34.931,EPIDM,2023.1.2,None,
3220.jpg,3063.jpg,5 Points,5 Points,415 Points,PS1_L7.csv,,,,,,,,,,,,,,,,,,,,,,,,,,,,,0,6,6,6,0,22,22,22,,,,,,,,,,,,,,,,,,,2072.5421042490007,p,1.0029056249986752,2073.6049494579993,,,,,,65,A,2025-02-12_09h07.34.931,EPIDM,2023.1.2,None,
8117.jpg,2880.jpg,5 Points,5 Points,420 Points,PS1_L7.csv,,,,,,,,,,,,,,,,,,,,,,,,,,,,,0,6,6,6,0,23,23,23,,,,,,,,,,,,,,,,,,,2077.867911708,p,0.8935314579994156,2078.828307166,,,2089.2889185409995,space,13.359172582999236,65,A,2025-02-12_09h07.34.931,EPIDM,2023.1.2,None,
4274.jpg,8160.jpg,2 Points,2 Points,422 Points,PS1_L8.csv,,,,,,,,,,,,,,,,,,,,,,,,,,,,,0,7,7,7,0,0,0,0,,,,,,,,,,,,,,,,,,,2105.9610832490007,p,0.6944709580002382,2106.739729791,,,,,,65,A,2025-02-12_09h07.34.931,EPIDM,2023.1.2,None,
6314.jpg,O022.jpg,2 Points,2 Points,424 Points,PS1_L8.csv,,,,,,,,,,,,,,,,,,,,,,,,,,,,,0,7,7,7,0,1,1,1,,,,,,,,,,,,,,,,,,,2110.975295374,p,0.9293817919988214,2112.010215748999,2,1.554789666999568,,,,65,A,2025-02-12_09h07.34.931,EPIDM,2023.1.2,None,
1560.jpg,8185.jpg,0 Points,0 Points,424 Points,PS1_L8.csv,,,,,,,,,,,,,,,,,,,,,,,,,,,,,0,7,7,7,0,2,2,2,,,,,,,,,,,,,,,,,,,2117.894705666001,q,1.6731856259993947,2119.672633874,,,,,,65,A,2025-02-12_09h07.34.931,EPIDM,2023.1.2,None,
2850.jpg,4532.jpg,3 Points,3 Points,427 Points,PS1_L8.csv,,,,,,,,,,,,,,,,,,,,,,,,,,,,,0,7,7,7,0,3,3,3,,,,,,,,,,,,,,,,,,,2123.884222124,p,1.331257583999104,2125.2777152909994,,,,,,65,A,2025-02-12_09h07.34.931,EPIDM,2023.1.2,None,
1390.jpg,9421.jpg,2 Points,2 Points,429 Points,PS1_L8.csv,,,,,,,,,,,,,,,,,,,,,,,,,,,,,0,7,7,7,0,4,4,4,,,,,,,,,,,,,,,,,,,2129.531227124001,p,0.9646358759982832,2130.5671394989995,,,,,,65,A,2025-02-12_09h07.34.931,EPIDM,2023.1.2,None,
9800.jpg,9433.jpg,1 Point,1 Point,430 Points,PS1_L8.csv,,,,,,,,,,,,,,,,,,,,,,,,,,,,,0,7,7,7,0,5,5,5,,,,,,,,,,,,,,,,,,,2134.817350249,q,1.021961000000374,2135.906340249,,,,,,65,A,2025-02-12_09h07.34.931,EPIDM,2023.1.2,None,
8161.jpg,1900.jpg,4 Points,4 Points,434 Points,PS1_L8.csv,,,,,,,,,,,,,,,,,,,,,,,,,,,,,0,7,7,7,0,6,6,6,,,,,,,,,,,,,,,,,,,2140.1673800830004,p,0.8724582079994434,2141.1027874580004,,,,,,65,A,2025-02-12_09h07.34.931,EPIDM,2023.1.2,None,
1112.jpg,6230.jpg,3 Points,3 Points,437 Points,PS1_L8.csv,,,,,,,,,,,,,,,,,,,,,,,,,,,,,0,7,7,7,0,7,7,7,,,,,,,,,,,,,,,,,,,2145.3499759159995,p,1.0894479590006085,2146.516540791,,,,,,65,A,2025-02-12_09h07.34.931,EPIDM,2023.1.2,None,
1111.jpg,1040.jpg,0 Points,0 Points,437 Points,PS1_L8.csv,,,,,,,,,,,,,,,,,,,,,,,,,,,,,0,7,7,7,0,8,8,8,,,,,,,,,,,,,,,,,,,2150.7636392079994,q,0.7079787919992668,2151.547864374,,,,,,65,A,2025-02-12_09h07.34.931,EPIDM,2023.1.2,None,
5622.jpg,9156.jpg,4 Points,4 Points,441 Points,PS1_L8.csv,,,,,,,,,,,,,,,,,,,,,,,,,,,,,0,7,7,7,0,9,9,9,,,,,,,,,,,,,,,,,,,2155.8001198739994,q,1.5111677499990037,2157.3863027489997,,,,,,65,A,2025-02-12_09h07.34.931,EPIDM,2023.1.2,None,
2681.jpg,7100.jpg,3 Points,3 Points,444 Points,PS1_L8.csv,,,,,,,,,,,,,,,,,,,,,,,,,,,,,0,7,7,7,0,10,10,10,,,,,,,,,,,,,,,,,,,2161.6230203330006,q,0.8068574169992644,2162.507753166,,,,,,65,A,2025-02-12_09h07.34.931,EPIDM,2023.1.2,None,
6821.jpg,9622.jpg,2 Points,2 Points,446 Points,PS1_L8.csv,,,,,,,,,,,,,,,,,,,,,,,,,,,,,0,7,7,7,0,11,11,11,,,,,,,,,,,,,,,,,,,2166.7660177080006,q,1.2014043340004719,2168.0245920829993,,,,,,65,A,2025-02-12_09h07.34.931,EPIDM,2023.1.2,None,
9490.jpg,9210.jpg,1 Point,1 Point,447 Points,PS1_L8.csv,,,,,,,,,,,,,,,,,,,,,,,,,,,,,0,7,7,7,0,12,12,12,,,,,,,,,,,,,,,,,,,2172.279463041,q,0.7757883759986726,2173.119409541,,,,,,65,A,2025-02-12_09h07.34.931,EPIDM,2023.1.2,None,
4605.jpg,1510.jpg,4 Points,4 Points,451 Points,PS1_L8.csv,,,,,,,,,,,,,,,,,,,,,,,,,,,,,0,7,7,7,0,13,13,13,,,,,,,,,,,,,,,,,,,2177.3800966240005,q,1.3943670419994305,2178.8375504160003,4,1.4992221669999708,,,,65,A,2025-02-12_09h07.34.931,EPIDM,2023.1.2,None,
2240.jpg,5010.jpg,5 Points,5 Points,456 Points,PS1_L8.csv,,,,,,,,,,,,,,,,,,,,,,,,,,,,,0,7,7,7,0,14,14,14,,,,,,,,,,,,,,,,,,,2184.6630172079995,q,0.743289083999116,2185.4882117909992,,,,,,65,A,2025-02-12_09h07.34.931,EPIDM,2023.1.2,None,
3102.jpg,F032.jpg,1 Point,1 Point,457 Points,PS1_L8.csv,,,,,,,,,,,,,,,,,,,,,,,,,,,,,0,7,7,7,0,15,15,15,,,,,,,,,,,,,,,,,,,2189.7193624990005,q,0.5190134589993249,2190.3532542910007,,,,,,65,A,2025-02-12_09h07.34.931,EPIDM,2023.1.2,None,
4100.jpg,6570.2.jpg,3 Points,3 Points,460 Points,PS1_L8.csv,,,,,,,,,,,,,,,,,,,,,,,,,,,,,0,7,7,7,0,16,16,16,,,,,,,,,,,,,,,,,,,2194.562665499,p,1.1563835830002063,2195.793628458,,,,,,65,A,2025-02-12_09h07.34.931,EPIDM,2023.1.2,None,
2650.jpg,4531.jpg,5 Points,5 Points,465 Points,PS1_L8.csv,,,,,,,,,,,,,,,,,,,,,,,,,,,,,0,7,7,7,0,17,17,17,,,,,,,,,,,,,,,,,,,2200.032070499,p,0.8534950419998495,2200.9634755409998,,,,,,65,A,2025-02-12_09h07.34.931,EPIDM,2023.1.2,None,
9320.jpg,9007.jpg,0 Points,0 Points,465 Points,PS1_L8.csv,,,,,,,,,,,,,,,,,,,,,,,,,,,,,0,7,7,7,0,18,18,18,,,,,,,,,,,,,,,,,,,2205.2088832910003,p,1.254315416999816,2206.5436813740007,,,,,,65,A,2025-02-12_09h07.34.931,EPIDM,2023.1.2,None,
8460.jpg,8330.jpg,0 Points,0 Points,465 Points,PS1_L8.csv,,,,,,,,,,,,,,,,,,,,,,,,,,,,,0,7,7,7,0,19,19,19,,,,,,,,,,,,,,,,,,,2210.7886755829995,q,1.1534811669989722,2212.0065210410003,,,,,,65,A,2025-02-12_09h07.34.931,EPIDM,2023.1.2,None,
2570.jpg,5500.jpg,3 Points,3 Points,468 Points,PS1_L8.csv,,,,,,,,,,,,,,,,,,,,,,,,,,,,,0,7,7,7,0,20,20,20,,,,,,,,,,,,,,,,,,,2216.2658106240006,p,0.6999776669999846,2217.034060874,,,,,,65,A,2025-02-12_09h07.34.931,EPIDM,2023.1.2,None,
6190.jpg,3120.jpg,5 Points,5 Points,473 Points,PS1_L8.csv,,,,,,,,,,,,,,,,,,,,,,,,,,,,,0,7,7,7,0,21,21,21,,,,,,,,,,,,,,,,,,,2221.288452791,p,1.1500298339979054,2222.506287708001,,,,,,65,A,2025-02-12_09h07.34.931,EPIDM,2023.1.2,None,
2200.jpg,4598.jpg,1 Point,1 Point,474 Points,PS1_L8.csv,,,,,,,,,,,,,,,,,,,,,,,,,,,,,0,7,7,7,0,22,22,22,,,,,,,,,,,,,,,,,,,2226.7517247080004,p,0.813618124999266,2227.638502541001,,,,,,65,A,2025-02-12_09h07.34.931,EPIDM,2023.1.2,None,
1303.jpg,2000.jpg,0 Points,0 Points,474 Points,PS1_L8.csv,,,,,,,,,,,,,,,,,,,,,,,,,,,,,0,7,7,7,0,23,23,23,,,,,,,,,,,,,,,,,,,2231.8840694990004,q,0.7780550839997886,2232.7384620830007,,,2243.1887380830003,space,3.337064625999119,65,A,2025-02-12_09h07.34.931,EPIDM,2023.1.2,None,
9010.jpg,9253.jpg,0 Points,0 Points,474 Points,PS1_L9.csv,,,,,,,,,,,,,,,,,,,,,,,,,,,,,0,8,8,8,0,0,0,0,,,,,,,,,,,,,,,,,,,2249.8410455410003,p,0.4113657919988327,2250.314568541001,,,,,,65,A,2025-02-12_09h07.34.931,EPIDM,2023.1.2,None,
1302.jpg,2700.jpg,3 Points,3 Points,477 Points,PS1_L9.csv,,,,,,,,,,,,,,,,,,,,,,,,,,,,,0,8,8,8,0,1,1,1,,,,,,,,,,,,,,,,,,,2254.5708089579994,p,1.3069400419990416,2255.954720166,3,1.28884483299953,,,,65,A,2025-02-12_09h07.34.931,EPIDM,2023.1.2,None,
2030.jpg,2495.jpg,0 Points,0 Points,477 Points,PS1_L9.csv,,,,,,,,,,,,,,,,,,,,,,,,,,,,,0,8,8,8,0,2,2,2,,,,,,,,,,,,,,,,,,,2261.561097790999,q,1.05143283399957,2262.7019765409996,,,,,,65,A,2025-02-12_09h07.34.931,EPIDM,2023.1.2,None,
2110.jpg,7260.jpg,5 Points,5 Points,482 Points,PS1_L9.csv,,,,,,,,,,,,,,,,,,,,,,,,,,,,,0,8,8,8,0,3,3,3,,,,,,,,,,,,,,,,,,,2266.9372524580003,p,0.6827572080001119,2267.7010176659996,,,,,,65,A,2025-02-12_09h07.34.931,EPIDM,2023.1.2,None,
2053.jpg,9415.jpg,4 Points,4 Points,486 Points,PS1_L9.csv,,,,,,,,,,,,,,,,,,,,,,,,,,,,,0,8,8,8,0,4,4,4,,,,,,,,,,,,,,,,,,,2271.9477110830003,q,0.7297312090013293,2272.7450766659995,,,,,,65,A,2025-02-12_09h07.34.931,EPIDM,2023.1.2,None,
6211.jpg,9611.jpg,3 Points,3 Points,489 Points,PS1_L9.csv,,,,,,,,,,,,,,,,,,,,,,,,,,,,,0,8,8,8,0,5,5,5,,,,,,,,,,,,,,,,,,,2277.013959041001,p,1.7741679589998967,2278.852160583,,,,,,65,A,2025-02-12_09h07.34.931,EPIDM,2023.1.2,None,
8350.jpg,7190.jpg,5 Points,5 Points,494 Points,PS1_L9.csv,,,,,,,,,,,,,,,,,,,,,,,,,,,,,0,8,8,8,0,6,6,6,,,,,,,,,,,,,,,,,,,2283.117430499001,q,0.9608234579991404,2284.1580161659995,,,,,,65,A,2025-02-12_09h07.34.931,EPIDM,2023.1.2,None,
9340.jpg,6910.jpg,0 Points,0 Points,494 Points,PS1_L9.csv,,,,,,,,,,,,,,,,,,,,,,,,,,,,,0,8,8,8,0,7,7,7,,,,,,,,,,,,,,,,,,,2288.4074126240002,p,1.0196229590001167,2289.5050047079994,,,,,,65,A,2025-02-12_09h07.34.931,EPIDM,2023.1.2,None,
4533.jpg,2385.jpg,3 Points,3 Points,497 Points,PS1_L9.csv,,,,,,,,,,,,,,,,,,,,,,,,,,,,,0,8,8,8,0,8,8,8,,,,,,,,,,,,,,,,,,,2293.746473958,p,1.4895075000003999,2295.311477583001,,,,,,65,A,2025-02-12_09h07.34.931,EPIDM,2023.1.2,None,
5940.jpg,9411.jpg,0 Points,0 Points,497 Points,PS1_L9.csv,,,,,,,,,,,,,,,,,,,,,,,,,,,,,0,8,8,8,0,9,9,9,,,,,,,,,,,,,,,,,,,2299.5632569580002,q,0.8079994589988928,2300.4490605830006,,,,,,65,A,2025-02-12_09h07.34.931,EPIDM,2023.1.2,None,
2220.jpg,2010.jpg,5 Points,5 Points,502 Points,PS1_L9.csv,,,,,,,,,,,,,,,,,,,,,,,,,,,,,0,8,8,8,0,10,10,10,,,,,,,,,,,,,,,,,,,2304.6928117489997,p,1.054598957998678,2305.8222924989996,,,,,,65,A,2025-02-12_09h07.34.931,EPIDM,2023.1.2,None,
9500.jpg,6360.jpg,1 Point,1 Point,503 Points,PS1_L9.csv,,,,,,,,,,,,,,,,,,,,,,,,,,,,,0,8,8,8,0,11,11,11,,,,,,,,,,,,,,,,,,,2310.067247415999,q,0.5929116259994771,2310.735072373999,,,,,,65,A,2025-02-12_09h07.34.931,EPIDM,2023.1.2,None,
2092.jpg,2210.jpg,0 Points,0 Points,503 Points,PS1_L9.csv,,,,,,,,,,,,,,,,,,,,,,,,,,,,,0,8,8,8,0,12,12,12,,,,,,,,,,,,,,,,,,,2314.980482291,p,1.9261629169996013,2316.9756628740006,,,,,,65,A,2025-02-12_09h07.34.931,EPIDM,2023.1.2,None,
9530.jpg,9220.jpg,1 Point,1 Point,504 Points,PS1_L9.csv,,,,,,,,,,,,,,,,,,,,,,,,,,,,,0,8,8,8,0,13,13,13,,,,,,,,,,,,,,,,,,,2321.226174623999,q,0.6340174590004608,2321.9248723739993,1,1.6845331259992236,,,,65,A,2025-02-12_09h07.34.931,EPIDM,2023.1.2,None,
9254.jpg,9290.jpg,2 Points,2 Points,506 Points,PS1_L9.csv,,,,,,,,,,,,,,,,,,,,,,,,,,,,,0,8,8,8,0,14,14,14,,,,,,,,,,,,,,,,,,,2327.915892749,q,1.7604329169989796,2329.728272124,,,,,,65,A,2025-02-12_09h07.34.931,EPIDM,2023.1.2,None,
4608.jpg,8320.jpg,1 Point,1 Point,507 Points,PS1_L9.csv,,,,,,,,,,,,,,,,,,,,,,,,,,,,,0,8,8,8,0,15,15,15,,,,,,,,,,,,,,,,,,,2333.9892624579998,p,0.9493467919983232,2335.005450666001,,,,,,65,A,2025-02-12_09h07.34.931,EPIDM,2023.1.2,None,
7237.jpg,8510.jpg,4 Points,4 Points,511 Points,PS1_L9.csv,,,,,,,,,,,,,,,,,,,,,,,,,,,,,0,8,8,8,0,16,16,16,,,,,,,,,,,,,,,,,,,2339.252583458,p,1.077453666999645,2340.4003240409993,,,,,,65,A,2025-02-12_09h07.34.931,EPIDM,2023.1.2,None,
9417.jpg,6530.jpg,1 Point,1 Point,512 Points,PS1_L9.csv,,,,,,,,,,,,,,,,,,,,,,,,,,,,,0,8,8,8,0,17,17,17,,,,,,,,,,,,,,,,,,,2344.646079708001,p,1.2519900839997717,2345.9826668739997,,,,,,65,A,2025-02-12_09h07.34.931,EPIDM,2023.1.2,None,
6831.jpg,2141.jpg,5 Points,5 Points,517 Points,PS1_L9.csv,,,,,,,,,,,,,,,,,,,,,,,,,,,,,0,8,8,8,0,18,18,18,,,,,,,,,,,,,,,,,,,2350.224922958,q,0.8175192500002595,2351.117335999,,,,,,65,A,2025-02-12_09h07.34.931,EPIDM,2023.1.2,None,
4689.jpg,7009.jpg,5 Points,5 Points,522 Points,PS1_L9.csv,,,,,,,,,,,,,,,,,,,,,,,,,,,,,0,8,8,8,0,19,19,19,,,,,,,,,,,,,,,,,,,2355.3685185410004,p,0.8815900839999813,2356.3256506240004,,,,,,65,A,2025-02-12_09h07.34.931,EPIDM,2023.1.2,None,
2751.jpg,6313.jpg,3 Points,3 Points,525 Points,PS1_L9.csv,,,,,,,,,,,,,,,,,,,,,,,,,,,,,0,8,8,8,0,20,20,20,,,,,,,,,,,,,,,,,,,2360.570437874,p,0.8557925419991079,2361.4949623330003,,,,,,65,A,2025-02-12_09h07.34.931,EPIDM,2023.1.2,None,
4621.jpg,3550.jpg,2 Points,2 Points,527 Points,PS1_L9.csv,,,,,,,,,,,,,,,,,,,,,,,,,,,,,0,8,8,8,0,21,21,21,,,,,,,,,,,,,,,,,,,2365.744381457999,p,0.6096425830000953,2366.4319206659993,,,,,,65,A,2025-02-12_09h07.34.931,EPIDM,2023.1.2,None,
8220.jpg,2410.jpg,4 Points,4 Points,531 Points,PS1_L9.csv,,,,,,,,,,,,,,,,,,,,,,,,,,,,,0,8,8,8,0,22,22,22,,,,,,,,,,,,,,,,,,,2370.689213416,p,1.4799562509997486,2372.2388264579995,,,,,,65,A,2025-02-12_09h07.34.931,EPIDM,2023.1.2,None,
1113.jpg,1240.jpg,3 Points,3 Points,534 Points,PS1_L9.csv,,,,,,,,,,,,,,,,,,,,,,,,,,,,,0,8,8,8,0,23,23,23,,,,,,,,,,,,,,,,,,,2376.495405208,p,1.234707375000653,2377.802103290999,,,2388.2621735410003,space,8.497975082998892,65,A,2025-02-12_09h07.34.931,EPIDM,2023.1.2,None,
2750.jpg,9050.jpg,4 Points,4 Points,538 Points,PS1_L10.csv,,,,,,,,,,,,,,,,,,,,,,,,,,,,,0,9,9,9,0,0,0,0,,,,,,,,,,,,,,,,,,,2400.0757777080007,q,0.9881968339996092,2401.1342288330006,,,,,,65,A,2025-02-12_09h07.34.931,EPIDM,2023.1.2,None,
2312.jpg,2722.jpg,1 Points,1 Points,539 Points,PS1_L10.csv,,,,,,,,,,,,,,,,,,,,,,,,,,,,,0,9,9,9,0,1,1,1,,,,,,,,,,,,,,,,,,,2405.3869232080006,p,0.9900484169993433,2406.4421182489996,1,1.2506899589989189,,,,65,A,2025-02-12_09h07.34.931,EPIDM,2023.1.2,None,
8232.jpg,4279.jpg,5 Points,5 Points,544 Points,PS1_L10.csv,,,,,,,,,,,,,,,,,,,,,,,,,,,,,0,9,9,9,0,2,2,2,,,,,,,,,,,,,,,,,,,2412.014284541,q,1.1224664590008615,2413.211137083,,,,,,65,A,2025-02-12_09h07.34.931,EPIDM,2023.1.2,None,
6000.jpg,6836.jpg,4 Points,4 Points,548 Points,PS1_L10.csv,,,,,,,,,,,,,,,,,,,,,,,,,,,,,0,9,9,9,0,3,3,3,,,,,,,,,,,,,,,,,,,2417.4531586660005,p,0.7477079580003192,2418.2706765409994,,,,,,65,A,2025-02-12_09h07.34.931,EPIDM,2023.1.2,None,
4536.jpg,2280.jpg,4 Points,4 Points,552 Points,PS1_L10.csv,,,,,,,,,,,,,,,,,,,,,,,,,,,,,0,9,9,9,0,4,4,4,,,,,,,,,,,,,,,,,,,2422.5096612080006,p,0.7148777919992426,2423.297397249001,,,,,,65,A,2025-02-12_09h07.34.931,EPIDM,2023.1.2,None,
6241.jpg,9561.jpg,3 Points,3 Points,555 Points,PS1_L10.csv,,,,,,,,,,,,,,,,,,,,,,,,,,,,,0,9,9,9,0,5,5,5,,,,,,,,,,,,,,,,,,,2427.5394142489995,p,1.1558589169999323,2428.7710767910003,,,,,,65,A,2025-02-12_09h07.34.931,EPIDM,2023.1.2,None,
1942.jpg,2890.jpg,1 Points,1 Points,556 Points,PS1_L10.csv,,,,,,,,,,,,,,,,,,,,,,,,,,,,,0,9,9,9,0,6,6,6,,,,,,,,,,,,,,,,,,,2433.0192598330004,q,1.0772177090002515,2434.160573708,,,,,,65,A,2025-02-12_09h07.34.931,EPIDM,2023.1.2,None,
6020.jpg,6300.jpg,2 Points,2 Points,558 Points,PS1_L10.csv,,,,,,,,,,,,,,,,,,,,,,,,,,,,,0,9,9,9,0,7,7,7,,,,,,,,,,,,,,,,,,,2438.4215246659996,q,1.4747166670003935,2439.966955416,,,,,,65,A,2025-02-12_09h07.34.931,EPIDM,2023.1.2,None,
7170.jpg,2170.jpg,2 Points,2 Points,560 Points,PS1_L10.csv,,,,,,,,,,,,,,,,,,,,,,,,,,,,,0,9,9,9,0,8,8,8,,,,,,,,,,,,,,,,,,,2444.2186970409994,p,0.7892519590004667,2445.074435124,,,,,,65,A,2025-02-12_09h07.34.931,EPIDM,2023.1.2,None,
5510.jpg,2514.jpg,5 Points,5 Points,565 Points,PS1_L10.csv,,,,,,,,,,,,,,,,,,,,,,,,,,,,,0,9,9,9,0,9,9,9,,,,,,,,,,,,,,,,,,,2449.3253921240002,p,0.7476173329996527,2450.149419124001,,,,,,65,A,2025-02-12_09h07.34.931,EPIDM,2023.1.2,None,
6840.jpg,3080.jpg,1 Points,1 Points,566 Points,PS1_L10.csv,,,,,,,,,,,,,,,,,,,,,,,,,,,,,0,9,9,9,0,10,10,10,,,,,,,,,,,,,,,,,,,2454.395297958,p,0.6614298340009555,2455.130899916,,,,,,65,A,2025-02-12_09h07.34.931,EPIDM,2023.1.2,None,
7195.jpg,2487.jpg,2 Points,2 Points,568 Points,PS1_L10.csv,,,,,,,,,,,,,,,,,,,,,,,,,,,,,0,9,9,9,0,11,11,11,,,,,,,,,,,,,,,,,,,2459.3924167489995,q,0.9746002499996393,2460.439056624001,,,,,,65,A,2025-02-12_09h07.34.931,EPIDM,2023.1.2,None,
5971.jpg,9912.jpg,5 Points,5 Points,573 Points,PS1_L10.csv,,,,,,,,,,,,,,,,,,,,,,,,,,,,,0,9,9,9,0,12,12,12,,,,,,,,,,,,,,,,,,,2464.693662208,p,0.6814755420000438,2465.4392063330006,,,,,,65,A,2025-02-12_09h07.34.931,EPIDM,2023.1.2,None,
2520.jpg,8503.jpg,2 Points,2 Points,575 Points,PS1_L10.csv,,,,,,,,,,,,,,,,,,,,,,,,,,,,,0,9,9,9,0,13,13,13,,,,,,,,,,,,,,,,,,,2469.6852162490004,q,0.6166607920004026,2470.3595284989997,2,1.5559496669993678,,,,65,A,2025-02-12_09h07.34.931,EPIDM,2023.1.2,None,
5480.jpg,8200.jpg,4 Points,4 Points,579 Points,PS1_L10.csv,,,,,,,,,,,,,,,,,,,,,,,,,,,,,0,9,9,9,0,14,14,14,,,,,,,,,,,,,,,,,,,2476.258589041,p,1.5978398749994085,2477.9293643739993,,,,,,65,A,2025-02-12_09h07.34.931,EPIDM,2023.1.2,None,
6370.jpg,1270.jpg,4 Points,4 Points,583 Points,PS1_L10.csv,,,,,,,,,,,,,,,,,,,,,,,,,,,,,0,9,9,9,0,15,15,15,,,,,,,,,,,,,,,,,,,2482.171404124,q,0.6435647509988485,2482.8909826240006,,,,,,65,A,2025-02-12_09h07.34.931,EPIDM,2023.1.2,None,
5130.jpg,1810.jpg,3 Points,3 Points,586 Points,PS1_L10.csv,,,,,,,,,,,,,,,,,,,,,,,,,,,,,0,9,9,9,0,16,16,16,,,,,,,,,,,,,,,,,,,2487.1417639580004,p,0.9848989170004643,2488.2166629579997,,,,,,65,A,2025-02-12_09h07.34.931,EPIDM,2023.1.2,None,
4250.jpg,7060.jpg,5 Points,5 Points,591 Points,PS1_L10.csv,,,,,,,,,,,,,,,,,,,,,,,,,,,,,0,9,9,9,0,17,17,17,,,,,,,,,,,,,,,,,,,2492.455170749,q,1.0072090840003511,2493.5391624579997,,,,,,65,A,2025-02-12_09h07.34.931,EPIDM,2023.1.2,None,
9373.jpg,9410.jpg,0 Points,0 Points,591 Points,PS1_L10.csv,,,,,,,,,,,,,,,,,,,,,,,,,,,,,0,9,9,9,0,18,18,18,,,,,,,,,,,,,,,,,,,2497.7746967909998,p,0.9679678339980455,2498.815063166,,,,,,65,A,2025-02-12_09h07.34.931,EPIDM,2023.1.2,None,
2221.jpg,2270.jpg,2 Points,2 Points,593 Points,PS1_L10.csv,,,,,,,,,,,,,,,,,,,,,,,,,,,,,0,9,9,9,0,19,19,19,,,,,,,,,,,,,,,,,,,2503.057904208,p,0.8686045419981383,2503.999099083,,,,,,65,A,2025-02-12_09h07.34.931,EPIDM,2023.1.2,None,
1650.jpg,2130.jpg,1 Points,1 Points,594 Points,PS1_L10.csv,,,,,,,,,,,,,,,,,,,,,,,,,,,,,0,9,9,9,0,20,20,20,,,,,,,,,,,,,,,,,,,2508.250779041001,q,1.0349793749992386,2509.3555979580005,,,,,,65,A,2025-02-12_09h07.34.931,EPIDM,2023.1.2,None,
1280.jpg,9402.jpg,2 Points,2 Points,596 Points,PS1_L10.csv,,,,,,,,,,,,,,,,,,,,,,,,,,,,,0,9,9,9,0,21,21,21,,,,,,,,,,,,,,,,,,,2513.607439749,p,0.8389103749996139,2514.5138595830003,,,,,,65,A,2025-02-12_09h07.34.931,EPIDM,2023.1.2,None,
2214.jpg,4500.jpg,3 Points,3 Points,599 Points,PS1_L10.csv,,,,,,,,,,,,,,,,,,,,,,,,,,,,,0,9,9,9,0,22,22,22,,,,,,,,,,,,,,,,,,,2518.7580454579993,q,1.0240668749993347,2519.854328249,,,,,,65,A,2025-02-12_09h07.34.931,EPIDM,2023.1.2,None,
7284.jpg,8021.jpg,4 Points,4 Points,603 Points,PS1_L10.csv,,,,,,,,,,,,,,,,,,,,,,,,,,,,,0,9,9,9,0,23,23,23,,,,,,,,,,,,,,,,,,,2524.0950268330007,q,1.2544332090001262,2525.4242911659994,,,2535.8834940410006,space,5.410176542000045,65,A,2025-02-12_09h07.34.931,EPIDM,2023.1.2,None,
