L_Scene,R_Scene,Points_L,Points_R,PtTotal,blockFile,Instructions_Loop.thisRepN,Instructions_Loop.thisTrialN,Instructions_Loop.thisN,Instructions_Loop.thisIndex,Redo_Instructions_Loop.thisRepN,Redo_Instructions_Loop.thisTrialN,Redo_Instructions_Loop.thisN,Redo_Instructions_Loop.thisIndex,Practice_Encoding_Loop.thisRepN,Practice_Encoding_Loop.thisTrialN,Practice_Encoding_Loop.thisN,Practice_Encoding_Loop.thisIndex,Practice_Response_Fail_Loop.thisRepN,Practice_Response_Fail_Loop.thisTrialN,Practice_Response_Fail_Loop.thisN,Practice_Response_Fail_Loop.thisIndex,Practice_FB_Loop.thisRepN,Practice_FB_Loop.thisTrialN,Practice_FB_Loop.thisN,Practice_FB_Loop.thisIndex,Practice_Attention_Loop.thisRepN,Practice_Attention_Loop.thisTrialN,Practice_Attention_Loop.thisN,Practice_Attention_Loop.thisIndex,Practice_EncBrk_Loop.thisRepN,Practice_EncBrk_Loop.thisTrialN,Practice_EncBrk_Loop.thisN,Practice_EncBrk_Loop.thisIndex,Encoding_Loop.thisRepN,Encoding_Loop.thisTrialN,Encoding_Loop.thisN,Encoding_Loop.thisIndex,EncStim_Loop.thisRepN,EncStim_Loop.thisTrialN,EncStim_Loop.thisN,EncStim_Loop.thisIndex,Response_Fail_Loop.thisRepN,Response_Fail_Loop.thisTrialN,Response_Fail_Loop.thisN,Response_Fail_Loop.thisIndex,FB_Loop.thisRepN,FB_Loop.thisTrialN,FB_Loop.thisN,FB_Loop.thisIndex,Attention_Loop.thisRepN,Attention_Loop.thisTrialN,Attention_Loop.thisN,Attention_Loop.thisIndex,EncBrk_Loop.thisRepN,EncBrk_Loop.thisTrialN,EncBrk_Loop.thisN,EncBrk_Loop.thisIndex,Transition_Enc.keys,Transition_Enc.rt,Encoding_Resp.started,Encoding_Resp.keys,Encoding_Resp.rt,R_Point_FB_Stim.started,Attn_resp.keys,Attn_resp.rt,Progress_Tracker.started,EncBrk_Resp.keys,EncBrk_Resp.rt,Encoding_Resp.stopped,participant,Group,date,expName,psychopyVersion,frameRate,
,,,,,,,,,,,,,,,,,,,,,,,,,,,,,,,,,,,,,,,,,,,,,,,,,,,,,,,,,,space,3.24167887493968,,,,,,,,,,,6,B,2024-07-25_09h18.18.175,EPIDM,2023.1.2,59.94645269905009,
A060.jpg,F041.jpg,5 Points,5 Points,5 Points,,,,,,,,,,0,0,0,0,,,,,,,,,,,,,,,,,,,,,,,,,,,,,,,,,,,,,,,,,,,168.41678508394398,p,1.6481194590451196,170.20031033398118,,,,,,,6,B,2024-07-25_09h18.18.175,EPIDM,2023.1.2,59.94645269905009,
O161.jpg,1812.jpg,2 Points,2 Points,7 Points,,,,,,,,,,0,1,1,1,,,,,,,,,,,,,,,,,,,,,,,,,,,,,,,,,,,,,,,,,,,174.38129649998154,p,1.2038896249141544,175.702640375006,,,,,,,6,B,2024-07-25_09h18.18.175,EPIDM,2023.1.2,59.94645269905009,
O013.jpg,A001.jpg,3 Points,3 Points,10 Points,,,,,,,,,,0,2,2,2,,,,,,,,,,,,,,,,,,,,,,,,,,,,,,,,,,,,,,,,,,,179.89225670904852,q,1.5643009999766946,181.58941337501165,,,,,,,6,B,2024-07-25_09h18.18.175,EPIDM,2023.1.2,59.94645269905009,
P036.jpg,F273.jpg,5 Points,5 Points,15 Points,,,,,,,,,,0,3,3,3,,,,,,,,,,,,,,,,,,,,,,,,,,,,,,,,,,,,,,,,,,,185.7558470000513,q,1.7651127079734579,187.69282424997073,,,,,,,6,B,2024-07-25_09h18.18.175,EPIDM,2023.1.2,59.94645269905009,
L130.jpg,2393.jpg,0 Points,0 Points,15 Points,,,,,,,,,,0,4,4,4,,,,,,,,,,,,,,,,,,,,,,,,,,,,,,,,,,,,,,,,,,,191.8351911250502,p,1.6216208329424262,193.5934626669623,0,3.6044424158753827,,,,,6,B,2024-07-25_09h18.18.175,EPIDM,2023.1.2,59.94645269905009,
F279.jpg,P033.jpg,3 Points,3 Points,18 Points,,,,,,,,,,0,5,5,5,,,,,,,,,,,,,,,,,,,,,,,,,,,,,,,,,,,,,,,,,,,201.48340570903383,p,1.820310042006895,203.48360533395316,,,,,,,6,B,2024-07-25_09h18.18.175,EPIDM,2023.1.2,59.94645269905009,
A104.jpg,2593.jpg,2 Points,2 Points,20 Points,,,,,,,,,,0,6,6,6,,,,,,,,,,,,,,,,,,,,,,,,,,,,,,,,,,,,,,,,,,,207.6132954589557,p,1.2594591249944642,208.99992424994707,,,,,,,6,B,2024-07-25_09h18.18.175,EPIDM,2023.1.2,59.94645269905009,
2598.jpg,2605.jpg,0 Points,0 Points,20 Points,,,,,,,,,,0,7,7,7,,,,,,,,,,,,,,,,,,,,,,,,,,,,,,,,,,,,,,,,,,,213.1806241669692,q,1.122895749984309,214.35941325000022,,,,,,,6,B,2024-07-25_09h18.18.175,EPIDM,2023.1.2,59.94645269905009,
L005.jpg,O011.jpg,1 Points,1 Points,21 Points,,,,,,,,,,0,8,8,8,,,,,,,,,,,,,,,,,,,,,,,,,,,,,,,,,,,,,,,,,,,218.61370604194235,q,1.3062232079682872,220.05596891697496,,,,,,,6,B,2024-07-25_09h18.18.175,EPIDM,2023.1.2,59.94645269905009,
8186.jpg,F078.jpg,2 Points,2 Points,23 Points,,,,,,,,,,0,9,9,9,,,,,,,,,,,,,,,,,,,,,,,,,,,,,,,,,,,,,,,,,,,224.22965545894112,q,1.699481749907136,226.07056308398023,2,2.1665939580416307,240.41567162494175,space,45.57888899999671,,6,B,2024-07-25_09h18.18.175,EPIDM,2023.1.2,59.94645269905009,
,,,,,,,,,,,,,,,,,,,,,,,,,,,,,,,,,,,,,,,,,,,,,,,,,,,,,,,,,,space,1.9912324589677155,,,,,,,,,,,6,B,2024-07-25_09h18.18.175,EPIDM,2023.1.2,59.94645269905009,
7284.jpg,8021.jpg,4 Points,4 Points,4 Points,PS2_L1.csv,,,,,,,,,,,,,,,,,,,,,,,,,,,,,0,0,0,0,0,0,0,0,,,,,,,,,,,,,,,,,,,299.453404958942,p,2.5768832500325516,302.1217687090393,,,,,,,6,B,2024-07-25_09h18.18.175,EPIDM,2023.1.2,59.94645269905009,
2214.jpg,4500.jpg,3 Points,3 Points,7 points,PS2_L1.csv,,,,,,,,,,,,,,,,,,,,,,,,,,,,,0,0,0,0,0,1,1,1,,,,,,,,,,,,,,,,,,,306.3417484170059,p,1.2556247079046443,307.6725915840361,3,1.5594654999440536,,,,,6,B,2024-07-25_09h18.18.175,EPIDM,2023.1.2,59.94645269905009,
1280.jpg,9402.jpg,2 Points,2 Points,9 points,PS2_L1.csv,,,,,,,,,,,,,,,,,,,,,,,,,,,,,0,0,0,0,0,2,2,2,,,,,,,,,,,,,,,,,,,313.5373983340105,p,1.411936957971193,315.0233150420245,,,,,,,6,B,2024-07-25_09h18.18.175,EPIDM,2023.1.2,59.94645269905009,
1650.jpg,2130.jpg,1 Points,1 Points,10 points,PS2_L1.csv,,,,,,,,,,,,,,,,,,,,,,,,,,,,,0,0,0,0,0,3,3,3,,,,,,,,,,,,,,,,,,,319.2686620419845,q,1.19320154201705,320.5365618340438,,,,,,,6,B,2024-07-25_09h18.18.175,EPIDM,2023.1.2,59.94645269905009,
2221.jpg,2270.jpg,2 Points,2 Points,12 points,PS2_L1.csv,,,,,,,,,,,,,,,,,,,,,,,,,,,,,0,0,0,0,0,4,4,4,,,,,,,,,,,,,,,,,,,324.7951496669557,p,0.8899585419567302,325.753481584019,,,,,,,6,B,2024-07-25_09h18.18.175,EPIDM,2023.1.2,59.94645269905009,
9373.jpg,9410.jpg,0 Points,0 Points,12 points,PS2_L1.csv,,,,,,,,,,,,,,,,,,,,,,,,,,,,,0,0,0,0,0,5,5,5,,,,,,,,,,,,,,,,,,,329.98743341700174,p,1.1548923749942333,331.21254316694103,,,,,,,6,B,2024-07-25_09h18.18.175,EPIDM,2023.1.2,59.94645269905009,
4250.jpg,7060.jpg,5 Points,5 Points,17 points,PS2_L1.csv,,,,,,,,,,,,,,,,,,,,,,,,,,,,,0,0,0,0,0,6,6,6,,,,,,,,,,,,,,,,,,,335.4577018750133,q,0.939706249977462,336.46829370898195,,,,,,,6,B,2024-07-25_09h18.18.175,EPIDM,2023.1.2,59.94645269905009,
5130.jpg,1810.jpg,3 Points,3 Points,20 points,PS2_L1.csv,,,,,,,,,,,,,,,,,,,,,,,,,,,,,0,0,0,0,0,7,7,7,,,,,,,,,,,,,,,,,,,340.70330570894293,p,1.3090739169856533,342.10234137496445,,,,,,,6,B,2024-07-25_09h18.18.175,EPIDM,2023.1.2,59.94645269905009,
6370.jpg,1270.jpg,4 Points,4 Points,24 points,PS2_L1.csv,,,,,,,,,,,,,,,,,,,,,,,,,,,,,0,0,0,0,0,8,8,8,,,,,,,,,,,,,,,,,,,346.3341514590429,p,0.9909499590285122,347.406421208987,,,,,,,6,B,2024-07-25_09h18.18.175,EPIDM,2023.1.2,59.94645269905009,
5480.jpg,8200.jpg,4 Points,4 Points,28 points,PS2_L1.csv,,,,,,,,,,,,,,,,,,,,,,,,,,,,,0,0,0,0,0,9,9,9,,,,,,,,,,,,,,,,,,,351.63857525005005,q,1.4134462079964578,353.13052112504374,,,,,,,6,B,2024-07-25_09h18.18.175,EPIDM,2023.1.2,59.94645269905009,
2520.jpg,8503.jpg,2 Points,2 Points,30 points,PS2_L1.csv,,,,,,,,,,,,,,,,,,,,,,,,,,,,,0,0,0,0,0,10,10,10,,,,,,,,,,,,,,,,,,,357.3631359169958,p,0.8726944159716368,358.3184902089415,,,,,,,6,B,2024-07-25_09h18.18.175,EPIDM,2023.1.2,59.94645269905009,
5971.jpg,9912.jpg,5 Points,5 Points,35 points,PS2_L1.csv,,,,,,,,,,,,,,,,,,,,,,,,,,,,,0,0,0,0,0,11,11,11,,,,,,,,,,,,,,,,,,,362.5583582089748,q,1.7575943330302835,364.38382395904046,,,,,,,6,B,2024-07-25_09h18.18.175,EPIDM,2023.1.2,59.94645269905009,
7195.jpg,2487.jpg,2 Points,2 Points,37 points,PS2_L1.csv,,,,,,,,,,,,,,,,,,,,,,,,,,,,,0,0,0,0,0,12,12,12,,,,,,,,,,,,,,,,,,,368.61935133393854,q,1.0636821249499917,369.7485303339781,,,,,,,6,B,2024-07-25_09h18.18.175,EPIDM,2023.1.2,59.94645269905009,
6840.jpg,3080.jpg,1 Points,1 Points,38 points,PS2_L1.csv,,,,,,,,,,,,,,,,,,,,,,,,,,,,,0,0,0,0,0,13,13,13,,,,,,,,,,,,,,,,,,,373.98973983398173,q,0.9743893750710413,375.02507974999025,1,2.4330606660805643,,,,,6,B,2024-07-25_09h18.18.175,EPIDM,2023.1.2,59.94645269905009,
5510.jpg,2514.jpg,5 Points,5 Points,43 points,PS2_L1.csv,,,,,,,,,,,,,,,,,,,,,,,,,,,,,0,0,0,0,0,14,14,14,,,,,,,,,,,,,,,,,,,381.77388216694817,p,2.1259539580205455,383.96110379195306,,,,,,,6,B,2024-07-25_09h18.18.175,EPIDM,2023.1.2,59.94645269905009,
7170.jpg,2170.jpg,2 Points,2 Points,45 points,PS2_L1.csv,,,,,,,,,,,,,,,,,,,,,,,,,,,,,0,0,0,0,0,15,15,15,,,,,,,,,,,,,,,,,,,388.2022745839786,p,1.5605611249338835,389.842639834038,,,,,,,6,B,2024-07-25_09h18.18.175,EPIDM,2023.1.2,59.94645269905009,
6020.jpg,6300.jpg,2 Points,2 Points,47 points,PS2_L1.csv,,,,,,,,,,,,,,,,,,,,,,,,,,,,,0,0,0,0,0,16,16,16,,,,,,,,,,,,,,,,,,,394.077240542043,q,1.4857669590273872,395.6216618339531,,,,,,,6,B,2024-07-25_09h18.18.175,EPIDM,2023.1.2,59.94645269905009,
1942.jpg,2890.jpg,1 Points,1 Points,48 points,PS2_L1.csv,,,,,,,,,,,,,,,,,,,,,,,,,,,,,0,0,0,0,0,17,17,17,,,,,,,,,,,,,,,,,,,399.87637179205194,q,1.7352735829772428,401.67431004194077,,,,,,,6,B,2024-07-25_09h18.18.175,EPIDM,2023.1.2,59.94645269905009,
6241.jpg,9561.jpg,3 Points,3 Points,51 points,PS2_L1.csv,,,,,,,,,,,,,,,,,,,,,,,,,,,,,0,0,0,0,0,18,18,18,,,,,,,,,,,,,,,,,,,405.92163400002755,p,1.2354165839497,407.22251849994063,,,,,,,6,B,2024-07-25_09h18.18.175,EPIDM,2023.1.2,59.94645269905009,
4536.jpg,2280.jpg,4 Points,4 Points,55 points,PS2_L1.csv,,,,,,,,,,,,,,,,,,,,,,,,,,,,,0,0,0,0,0,19,19,19,,,,,,,,,,,,,,,,,,,411.4549264999805,q,1.204765958013013,412.72930250002537,,,,,,,6,B,2024-07-25_09h18.18.175,EPIDM,2023.1.2,59.94645269905009,
6000.jpg,6836.jpg,4 Points,4 Points,59 points,PS2_L1.csv,,,,,,,,,,,,,,,,,,,,,,,,,,,,,0,0,0,0,0,20,20,20,,,,,,,,,,,,,,,,,,,416.96163562498987,q,2.5126384999603033,419.5472851250088,,,,,,,6,B,2024-07-25_09h18.18.175,EPIDM,2023.1.2,59.94645269905009,
8232.jpg,4279.jpg,5 Points,5 Points,64 points,PS2_L1.csv,,,,,,,,,,,,,,,,,,,,,,,,,,,,,0,0,0,0,0,21,21,21,,,,,,,,,,,,,,,,,,,423.7891033339547,p,1.614318749983795,425.48482787504327,,,,,,,6,B,2024-07-25_09h18.18.175,EPIDM,2023.1.2,59.94645269905009,
2312.jpg,2722.jpg,1 Points,1 Points,65 points,PS2_L1.csv,,,,,,,,,,,,,,,,,,,,,,,,,,,,,0,0,0,0,0,22,22,22,,,,,,,,,,,,,,,,,,,429.71170954196714,q,1.3715343329822645,431.16299895895645,,,,,,,6,B,2024-07-25_09h18.18.175,EPIDM,2023.1.2,59.94645269905009,
2750.jpg,9050.jpg,4 Points,4 Points,69 points,PS2_L1.csv,,,,,,,,,,,,,,,,,,,,,,,,,,,,,0,0,0,0,0,23,23,23,,,,,,,,,,,,,,,,,,,435.4085970839951,p,1.5376892919884995,437.00967983400915,,,447.47544916695915,space,8.08585954096634,,6,B,2024-07-25_09h18.18.175,EPIDM,2023.1.2,59.94645269905009,
1113.jpg,1240.jpg,3 Points,3 Points,72 points,PS2_L2.csv,,,,,,,,,,,,,,,,,,,,,,,,,,,,,0,1,1,1,0,0,0,0,,,,,,,,,,,,,,,,,,,458.8917185839964,q,1.9576734999427572,460.9222331249621,,,,,,,6,B,2024-07-25_09h18.18.175,EPIDM,2023.1.2,59.94645269905009,
8220.jpg,2410.jpg,4 Points,4 Points,76 points,PS2_L2.csv,,,,,,,,,,,,,,,,,,,,,,,,,,,,,0,1,1,1,0,1,1,1,,,,,,,,,,,,,,,,,,,465.1520123339724,q,1.753575624898076,466.98094429203775,4,2.1144449589774013,,,,,6,B,2024-07-25_09h18.18.175,EPIDM,2023.1.2,59.94645269905009,
4621.jpg,3550.jpg,2 Points,2 Points,78 points,PS2_L2.csv,,,,,,,,,,,,,,,,,,,,,,,,,,,,,0,1,1,1,0,2,2,2,,,,,,,,,,,,,,,,,,,473.4104626670014,q,3.1186669589951634,476.5893728339579,,,,,,,6,B,2024-07-25_09h18.18.175,EPIDM,2023.1.2,59.94645269905009,
2751.jpg,6313.jpg,3 Points,3 Points,81 points,PS2_L2.csv,,,,,,,,,,,,,,,,,,,,,,,,,,,,,0,1,1,1,0,3,3,3,,,,,,,,,,,,,,,,,,,480.827553250012,q,1.7335261249681935,482.6288326670183,,,,,,,6,B,2024-07-25_09h18.18.175,EPIDM,2023.1.2,59.94645269905009,
4689.jpg,7009.jpg,5 Points,5 Points,86 points,PS2_L2.csv,,,,,,,,,,,,,,,,,,,,,,,,,,,,,0,1,1,1,0,4,4,4,,,,,,,,,,,,,,,,,,,486.86984758405015,q,1.4592685418901965,488.4026395420078,,,,,,,6,B,2024-07-25_09h18.18.175,EPIDM,2023.1.2,59.94645269905009,
6831.jpg,2141.jpg,5 Points,5 Points,91 points,PS2_L2.csv,,,,,,,,,,,,,,,,,,,,,,,,,,,,,0,1,1,1,0,5,5,5,,,,,,,,,,,,,,,,,,,492.64438700000755,p,3.110044541885145,495.8242676249938,,,,,,,6,B,2024-07-25_09h18.18.175,EPIDM,2023.1.2,59.94645269905009,
9417.jpg,6530.jpg,1 Point,1 Point,92 points,PS2_L2.csv,,,,,,,,,,,,,,,,,,,,,,,,,,,,,0,1,1,1,0,6,6,6,,,,,,,,,,,,,,,,,,,500.06669004203286,p,2.493809208041057,502.6316980839474,,,,,,,6,B,2024-07-25_09h18.18.175,EPIDM,2023.1.2,59.94645269905009,
7237.jpg,8510.jpg,4 Points,4 Points,96 points,PS2_L2.csv,,,,,,,,,,,,,,,,,,,,,,,,,,,,,0,1,1,1,0,7,7,7,,,,,,,,,,,,,,,,,,,506.8690265000332,q,2.1162937079789117,509.06127179204486,,,,,,,6,B,2024-07-25_09h18.18.175,EPIDM,2023.1.2,59.94645269905009,
4608.jpg,8320.jpg,1 Point,1 Point,97 points,PS2_L2.csv,,,,,,,,,,,,,,,,,,,,,,,,,,,,,0,1,1,1,0,8,8,8,,,,,,,,,,,,,,,,,,,513.2964591250056,q,1.9753517500357702,515.3380772919627,,,,,,,6,B,2024-07-25_09h18.18.175,EPIDM,2023.1.2,59.94645269905009,
9254.jpg,9290.jpg,2 Points,2 Points,99 points,PS2_L2.csv,,,,,,,,,,,,,,,,,,,,,,,,,,,,,0,1,1,1,0,9,9,9,,,,,,,,,,,,,,,,,,,519.5812292919727,None,,,,,,,,523.2899812089745,6,B,2024-07-25_09h18.18.175,EPIDM,2023.1.2,59.94645269905009,
9530.jpg,9220.jpg,1 Point,1 Point,100 points,PS2_L2.csv,,,,,,,,,,,,,,,,,,,,,,,,,,,,,0,1,1,1,0,10,10,10,,,,,,,,,,,,,,,,,,,527.0899155839579,p,1.0783202919410542,528.236279041972,,,,,,,6,B,2024-07-25_09h18.18.175,EPIDM,2023.1.2,59.94645269905009,
2092.jpg,2210.jpg,0 Points,0 Points,100 points,PS2_L2.csv,,,,,,,,,,,,,,,,,,,,,,,,,,,,,0,1,1,1,0,11,11,11,,,,,,,,,,,,,,,,,,,532.4897075840272,p,0.6809824160300195,533.2450018749805,,,,,,,6,B,2024-07-25_09h18.18.175,EPIDM,2023.1.2,59.94645269905009,
9500.jpg,6360.jpg,1 Point,1 Point,101 points,PS2_L2.csv,,,,,,,,,,,,,,,,,,,,,,,,,,,,,0,1,1,1,0,12,12,12,,,,,,,,,,,,,,,,,,,537.4887790420325,p,0.8486479589482769,538.3982575000264,,,,,,,6,B,2024-07-25_09h18.18.175,EPIDM,2023.1.2,59.94645269905009,
2220.jpg,2010.jpg,5 Points,5 Points,106 points,PS2_L2.csv,,,,,,,,,,,,,,,,,,,,,,,,,,,,,0,1,1,1,0,13,13,13,,,,,,,,,,,,,,,,,,,542.6462084590457,q,0.7074174999725074,543.434283333947,5,1.548238749965094,,,,,6,B,2024-07-25_09h18.18.175,EPIDM,2023.1.2,59.94645269905009,
5940.jpg,9411.jpg,0 Points,0 Points,106 points,PS2_L2.csv,,,,,,,,,,,,,,,,,,,,,,,,,,,,,0,1,1,1,0,14,14,14,,,,,,,,,,,,,,,,,,,549.2957140000071,p,1.3757286670152098,550.7412448340328,,,,,,,6,B,2024-07-25_09h18.18.175,EPIDM,2023.1.2,59.94645269905009,
4533.jpg,2385.jpg,3 Points,3 Points,109 points,PS2_L2.csv,,,,,,,,,,,,,,,,,,,,,,,,,,,,,0,1,1,1,0,15,15,15,,,,,,,,,,,,,,,,,,,554.9815516669769,q,0.5136910830624402,555.5739005419891,,,,,,,6,B,2024-07-25_09h18.18.175,EPIDM,2023.1.2,59.94645269905009,
9340.jpg,6910.jpg,0 Points,0 Points,109 points,PS2_L2.csv,,,,,,,,,,,,,,,,,,,,,,,,,,,,,0,1,1,1,0,16,16,16,,,,,,,,,,,,,,,,,,,559.8224354169797,p,0.8885885409545153,560.7835345000494,,,,,,,6,B,2024-07-25_09h18.18.175,EPIDM,2023.1.2,59.94645269905009,
8350.jpg,7190.jpg,5 Points,5 Points,114 points,PS2_L2.csv,,,,,,,,,,,,,,,,,,,,,,,,,,,,,0,1,1,1,0,17,17,17,,,,,,,,,,,,,,,,,,,565.0215851250105,q,0.9220122499391437,566.020083750016,,,,,,,6,B,2024-07-25_09h18.18.175,EPIDM,2023.1.2,59.94645269905009,
6211.jpg,9611.jpg,3 Points,3 Points,117 points ,PS2_L2.csv,,,,,,,,,,,,,,,,,,,,,,,,,,,,,0,1,1,1,0,18,18,18,,,,,,,,,,,,,,,,,,,570.2557767500402,p,0.7992752499412745,571.131624083966,,,,,,,6,B,2024-07-25_09h18.18.175,EPIDM,2023.1.2,59.94645269905009,
2053.jpg,9415.jpg,4 Points,4 Points,121 points,PS2_L2.csv,,,,,,,,,,,,,,,,,,,,,,,,,,,,,0,1,1,1,0,19,19,19,,,,,,,,,,,,,,,,,,,575.3814216250321,q,1.016660291934386,576.4610269169789,,,,,,,6,B,2024-07-25_09h18.18.175,EPIDM,2023.1.2,59.94645269905009,
2110.jpg,7260.jpg,5 Points,5 Points,126 points,PS2_L2.csv,,,,,,,,,,,,,,,,,,,,,,,,,,,,,0,1,1,1,0,20,20,20,,,,,,,,,,,,,,,,,,,580.704438042012,p,0.6225958750583231,581.394922583946,,,,,,,6,B,2024-07-25_09h18.18.175,EPIDM,2023.1.2,59.94645269905009,
2030.jpg,2495.jpg,0 Points,0 Points,126 points,PS2_L2.csv,,,,,,,,,,,,,,,,,,,,,,,,,,,,,0,1,1,1,0,21,21,21,,,,,,,,,,,,,,,,,,,585.636204999988,q,0.7060937919886783,586.412942584022,,,,,,,6,B,2024-07-25_09h18.18.175,EPIDM,2023.1.2,59.94645269905009,
1302.jpg,2700.jpg,3 Points,3 Points,129 points,PS2_L2.csv,,,,,,,,,,,,,,,,,,,,,,,,,,,,,0,1,1,1,0,22,22,22,,,,,,,,,,,,,,,,,,,590.6472278339788,p,0.7113578328862786,591.4286359590478,,,,,,,6,B,2024-07-25_09h18.18.175,EPIDM,2023.1.2,59.94645269905009,
9010.jpg,9253.jpg,0 Points,0 Points,129 points,PS2_L2.csv,,,,,,,,,,,,,,,,,,,,,,,,,,,,,0,1,1,1,0,23,23,23,,,,,,,,,,,,,,,,,,,595.6708040840458,p,1.3037266250466928,597.0442679999396,,,607.5284984169994,space,6.860469999955967,,6,B,2024-07-25_09h18.18.175,EPIDM,2023.1.2,59.94645269905009,
1303.jpg,2000.jpg,0 Points,0 Points,129 points,PS2_L3.csv,,,,,,,,,,,,,,,,,,,,,,,,,,,,,0,2,2,2,0,0,0,0,,,,,,,,,,,,,,,,,,,617.6962859999621,q,0.9728985839756206,618.7384825840127,,,,,,,6,B,2024-07-25_09h18.18.175,EPIDM,2023.1.2,59.94645269905009,
2200.jpg,4598.jpg,1 Point,1 Point,130 points,PS2_L3.csv,,,,,,,,,,,,,,,,,,,,,,,,,,,,,0,2,2,2,0,1,1,1,,,,,,,,,,,,,,,,,,,622.9939061669866,p,0.6520168749848381,623.7234089999693,1,1.4874074580147862,,,,,6,B,2024-07-25_09h18.18.175,EPIDM,2023.1.2,59.94645269905009,
6190.jpg,3120.jpg,5 Points,5 Points,135 points,PS2_L3.csv,,,,,,,,,,,,,,,,,,,,,,,,,,,,,0,2,2,2,0,2,2,2,,,,,,,,,,,,,,,,,,,629.5348043750273,p,1.0384850000264123,630.6544507920044,,,,,,,6,B,2024-07-25_09h18.18.175,EPIDM,2023.1.2,59.94645269905009,
2570.jpg,5500.jpg,3 Points,3 Points,138 points,PS2_L3.csv,,,,,,,,,,,,,,,,,,,,,,,,,,,,,0,2,2,2,0,3,3,3,,,,,,,,,,,,,,,,,,,634.8842660839437,p,1.4815944170113653,636.4375229169382,,,,,,,6,B,2024-07-25_09h18.18.175,EPIDM,2023.1.2,59.94645269905009,
8460.jpg,8330.jpg,0 Points,0 Points,138 points,PS2_L3.csv,,,,,,,,,,,,,,,,,,,,,,,,,,,,,0,2,2,2,0,4,4,4,,,,,,,,,,,,,,,,,,,640.6696589170024,q,0.7351896249456331,641.4702736670151,,,,,,,6,B,2024-07-25_09h18.18.175,EPIDM,2023.1.2,59.94645269905009,
9320.jpg,9007.jpg,0 Points,0 Points,138 points,PS2_L3.csv,,,,,,,,,,,,,,,,,,,,,,,,,,,,,0,2,2,2,0,5,5,5,,,,,,,,,,,,,,,,,,,645.7138387919404,p,0.578734791954048,646.3605025419965,,,,,,,6,B,2024-07-25_09h18.18.175,EPIDM,2023.1.2,59.94645269905009,
2650.jpg,4531.jpg,5 Points,5 Points,143 points,PS2_L3.csv,,,,,,,,,,,,,,,,,,,,,,,,,,,,,0,2,2,2,0,6,6,6,,,,,,,,,,,,,,,,,,,650.5991245419718,q,0.6619792500277981,651.3426926670363,,,,,,,6,B,2024-07-25_09h18.18.175,EPIDM,2023.1.2,59.94645269905009,
4100.jpg,6570.2.jpg,3 Points,3 Points,146 points,PS2_L3.csv,,,,,,,,,,,,,,,,,,,,,,,,,,,,,0,2,2,2,0,7,7,7,,,,,,,,,,,,,,,,,,,655.5858500839677,q,0.8994012089679018,656.5761127920123,,,,,,,6,B,2024-07-25_09h18.18.175,EPIDM,2023.1.2,59.94645269905009,
3102.jpg,F032.jpg,1 Point,1 Point,147 points,PS2_L3.csv,,,,,,,,,,,,,,,,,,,,,,,,,,,,,0,2,2,2,0,8,8,8,,,,,,,,,,,,,,,,,,,660.806812374969,p,0.5272289579734206,661.4453027920099,,,,,,,6,B,2024-07-25_09h18.18.175,EPIDM,2023.1.2,59.94645269905009,
2240.jpg,5010.jpg,5 Points,5 Points,152 points,PS2_L3.csv,,,,,,,,,,,,,,,,,,,,,,,,,,,,,0,2,2,2,0,9,9,9,,,,,,,,,,,,,,,,,,,665.6483126670355,p,0.812950958032161,666.5325681249378,,,,,,,6,B,2024-07-25_09h18.18.175,EPIDM,2023.1.2,59.94645269905009,
4605.jpg,1510.jpg,4 Points,4 Points,156 points,PS2_L3.csv,,,,,,,,,,,,,,,,,,,,,,,,,,,,,0,2,2,2,0,10,10,10,,,,,,,,,,,,,,,,,,,670.7700166669674,p,0.8016161659033969,671.651851875009,,,,,,,6,B,2024-07-25_09h18.18.175,EPIDM,2023.1.2,59.94645269905009,
9490.jpg,9210.jpg,1 Point,1 Point,157 points,PS2_L3.csv,,,,,,,,,,,,,,,,,,,,,,,,,,,,,0,2,2,2,0,11,11,11,,,,,,,,,,,,,,,,,,,675.8858503339579,p,0.6944558329414576,676.641203999985,,,,,,,6,B,2024-07-25_09h18.18.175,EPIDM,2023.1.2,59.94645269905009,
6821.jpg,9622.jpg,2 Points,2 Points,159 points,PS2_L3.csv,,,,,,,,,,,,,,,,,,,,,,,,,,,,,0,2,2,2,0,12,12,12,,,,,,,,,,,,,,,,,,,680.8949543340132,p,1.0130194169469178,681.97206512501,,,,,,,6,B,2024-07-25_09h18.18.175,EPIDM,2023.1.2,59.94645269905009,
2681.jpg,7100.jpg,3 Points,3 Points,162 points,PS2_L3.csv,,,,,,,,,,,,,,,,,,,,,,,,,,,,,0,2,2,2,0,13,13,13,,,,,,,,,,,,,,,,,,,686.2193942919839,p,0.720687709050253,687.0089900000021,3,1.4319759999634698,,,,,6,B,2024-07-25_09h18.18.175,EPIDM,2023.1.2,59.94645269905009,
5622.jpg,9156.jpg,4 Points,4 Points,166 points,PS2_L3.csv,,,,,,,,,,,,,,,,,,,,,,,,,,,,,0,2,2,2,0,14,14,14,,,,,,,,,,,,,,,,,,,692.7486893340247,q,1.4384367080638185,694.2709847500082,,,,,,,6,B,2024-07-25_09h18.18.175,EPIDM,2023.1.2,59.94645269905009,
1111.jpg,1040.jpg,0 Points,0 Points,166 points,PS2_L3.csv,,,,,,,,,,,,,,,,,,,,,,,,,,,,,0,2,2,2,0,15,15,15,,,,,,,,,,,,,,,,,,,698.505170749966,p,1.1868025829317048,699.7626096250024,,,,,,,6,B,2024-07-25_09h18.18.175,EPIDM,2023.1.2,59.94645269905009,
1112.jpg,6230.jpg,3 Points,3 Points,169 points,PS2_L3.csv,,,,,,,,,,,,,,,,,,,,,,,,,,,,,0,2,2,2,0,16,16,16,,,,,,,,,,,,,,,,,,,704.0056664999574,q,0.8465229169232771,704.9256818339927,,,,,,,6,B,2024-07-25_09h18.18.175,EPIDM,2023.1.2,59.94645269905009,
8161.jpg,1900.jpg,4 Points,4 Points,173 points,PS2_L3.csv,,,,,,,,,,,,,,,,,,,,,,,,,,,,,0,2,2,2,0,17,17,17,,,,,,,,,,,,,,,,,,,709.1686913749436,p,0.9786609580041841,710.2225096250186,,,,,,,6,B,2024-07-25_09h18.18.175,EPIDM,2023.1.2,59.94645269905009,
9800.jpg,9433.jpg,1 Point,1 Point,174 points,PS2_L3.csv,,,,,,,,,,,,,,,,,,,,,,,,,,,,,0,2,2,2,0,18,18,18,,,,,,,,,,,,,,,,,,,714.4631693749689,p,0.7320574999321252,715.2592922500335,,,,,,,6,B,2024-07-25_09h18.18.175,EPIDM,2023.1.2,59.94645269905009,
1390.jpg,9421.jpg,2 Points,2 Points,176 points,PS2_L3.csv,,,,,,,,,,,,,,,,,,,,,,,,,,,,,0,2,2,2,0,19,19,19,,,,,,,,,,,,,,,,,,,719.4941154590342,q,0.9091733339009807,720.4694364590105,,,,,,,6,B,2024-07-25_09h18.18.175,EPIDM,2023.1.2,59.94645269905009,
2850.jpg,4532.jpg,3 Points,3 Points,179 points,PS2_L3.csv,,,,,,,,,,,,,,,,,,,,,,,,,,,,,0,2,2,2,0,20,20,20,,,,,,,,,,,,,,,,,,,724.7135617500171,q,0.9294675419805571,725.7114438340068,,,,,,,6,B,2024-07-25_09h18.18.175,EPIDM,2023.1.2,59.94645269905009,
1560.jpg,8185.jpg,0 Points,0 Points,179 points,PS2_L3.csv,,,,,,,,,,,,,,,,,,,,,,,,,,,,,0,2,2,2,0,21,21,21,,,,,,,,,,,,,,,,,,,729.9681798339589,p,1.2586392080411315,731.2966556249885,,,,,,,6,B,2024-07-25_09h18.18.175,EPIDM,2023.1.2,59.94645269905009,
6314.jpg,O022.jpg,2 Points,2 Points,181 points,PS2_L3.csv,,,,,,,,,,,,,,,,,,,,,,,,,,,,,0,2,2,2,0,22,22,22,,,,,,,,,,,,,,,,,,,735.5476897920016,q,0.9852495410013944,736.6360783339478,,,,,,,6,B,2024-07-25_09h18.18.175,EPIDM,2023.1.2,59.94645269905009,
4274.jpg,8160.jpg,2 Points,2 Points,183 points,PS2_L3.csv,,,,,,,,,,,,,,,,,,,,,,,,,,,,,0,2,2,2,0,23,23,23,,,,,,,,,,,,,,,,,,,740.8406645420473,q,0.8743950419593602,741.8189294169424,,,752.2553659169935,space,4.395138583960943,,6,B,2024-07-25_09h18.18.175,EPIDM,2023.1.2,59.94645269905009,
8117.jpg,2880.jpg,5 Points,5 Points,188 points,PS2_L4.csv,,,,,,,,,,,,,,,,,,,,,,,,,,,,,0,3,3,3,0,0,0,0,,,,,,,,,,,,,,,,,,,759.9604536669794,q,1.5538355000317097,761.5875463340199,,,,,,,6,B,2024-07-25_09h18.18.175,EPIDM,2023.1.2,59.94645269905009,
3220.jpg,3063.jpg,5 Points,5 Points,193 points,PS2_L4.csv,,,,,,,,,,,,,,,,,,,,,,,,,,,,,0,3,3,3,0,1,1,1,,,,,,,,,,,,,,,,,,,765.8312637089984,q,0.6904462079983205,766.5827012920054,5,1.3877762079937384,,,,,6,B,2024-07-25_09h18.18.175,EPIDM,2023.1.2,59.94645269905009,
9040.jpg,1120.jpg,3 Points,3 Points,196 points,PS2_L4.csv,,,,,,,,,,,,,,,,,,,,,,,,,,,,,0,3,3,3,0,2,2,2,,,,,,,,,,,,,,,,,,,772.2798892919673,p,1.321788749890402,773.6722895420389,,,,,,,6,B,2024-07-25_09h18.18.175,EPIDM,2023.1.2,59.94645269905009,
5030.jpg,1670.jpg,3 Points,3 Points,199 points,PS2_L4.csv,,,,,,,,,,,,,,,,,,,,,,,,,,,,,0,3,3,3,0,3,3,3,,,,,,,,,,,,,,,,,,,777.9167122499784,q,0.9967954999301583,778.9861196250422,,,,,,,6,B,2024-07-25_09h18.18.175,EPIDM,2023.1.2,59.94645269905009,
2276.jpg,6540.jpg,3 Points,3 Points,202 points,PS2_L4.csv,,,,,,,,,,,,,,,,,,,,,,,,,,,,,0,3,3,3,0,4,4,4,,,,,,,,,,,,,,,,,,,783.2328400840051,q,0.6982826669700444,783.9788804589771,,,,,,,6,B,2024-07-25_09h18.18.175,EPIDM,2023.1.2,59.94645269905009,
1540.jpg,2600.jpg,1 Point,1 Point,203 points,PS2_L4.csv,,,,,,,,,,,,,,,,,,,,,,,,,,,,,0,3,3,3,0,5,5,5,,,,,,,,,,,,,,,,,,,788.2359692089958,q,0.7020107919815928,789.0111094999593,,,,,,,6,B,2024-07-25_09h18.18.175,EPIDM,2023.1.2,59.94645269905009,
8465.jpg,8400.jpg,1 Point,1 Point,204 points,PS2_L4.csv,,,,,,,,,,,,,,,,,,,,,,,,,,,,,0,3,3,3,0,6,6,6,,,,,,,,,,,,,,,,,,,793.2527498339768,q,1.1242269580252469,794.4411849169992,,,,,,,6,B,2024-07-25_09h18.18.175,EPIDM,2023.1.2,59.94645269905009,
3110.jpg,9000.jpg,4 Points,4 Points,208 points,PS2_L4.csv,,,,,,,,,,,,,,,,,,,,,,,,,,,,,0,3,3,3,0,7,7,7,,,,,,,,,,,,,,,,,,,798.6783623340307,p,0.5935590829467401,799.3395703339484,,,,,,,6,B,2024-07-25_09h18.18.175,EPIDM,2023.1.2,59.94645269905009,
9570.jpg,6610.jpg,0 Points,0 Points,208 points,PS2_L4.csv,,,,,,,,,,,,,,,,,,,,,,,,,,,,,0,3,3,3,0,8,8,8,,,,,,,,,,,,,,,,,,,803.586102041998,p,0.49576608289498836,804.1486658339854,,,,,,,6,B,2024-07-25_09h18.18.175,EPIDM,2023.1.2,59.94645269905009,
2690.jpg,9360.jpg,1 Point,1 Point,209 points,PS2_L4.csv,,,,,,,,,,,,,,,,,,,,,,,,,,,,,0,3,3,3,0,9,9,9,,,,,,,,,,,,,,,,,,,808.3988794590114,p,0.44973708293400705,808.9163578340085,,,,,,,6,B,2024-07-25_09h18.18.175,EPIDM,2023.1.2,59.94645269905009,
8250.jpg,1313.jpg,4 Points,4 Points,213 points,PS2_L4.csv,,,,,,,,,,,,,,,,,,,,,,,,,,,,,0,3,3,3,0,10,10,10,,,,,,,,,,,,,,,,,,,813.1625176670495,q,0.7511292080162093,813.9843140000012,,,,,,,6,B,2024-07-25_09h18.18.175,EPIDM,2023.1.2,59.94645269905009,
3022.jpg,2352.2.jpg,0 Points,0 Points,213 points,PS2_L4.csv,,,,,,,,,,,,,,,,,,,,,,,,,,,,,0,3,3,3,0,11,11,11,,,,,,,,,,,,,,,,,,,818.2223437089706,q,0.5142345420317724,818.8058282090351,,,,,,,6,B,2024-07-25_09h18.18.175,EPIDM,2023.1.2,59.94645269905009,
9920.jpg,3068.jpg,5 Points,5 Points,218 points,PS2_L4.csv,,,,,,,,,,,,,,,,,,,,,,,,,,,,,0,3,3,3,0,12,12,12,,,,,,,,,,,,,,,,,,,823.0491881249472,q,0.6157480840338394,823.7268294999376,,,,,,,6,B,2024-07-25_09h18.18.175,EPIDM,2023.1.2,59.94645269905009,
7234.jpg,5533.jpg,3 Points,3 Points,221 points,PS2_L4.csv,,,,,,,,,,,,,,,,,,,,,,,,,,,,,0,3,3,3,0,13,13,13,,,,,,,,,,,,,,,,,,,827.9691832499811,p,0.934723874903284,828.9784090840258,3,1.6480226659914479,,,,,6,B,2024-07-25_09h18.18.175,EPIDM,2023.1.2,59.94645269905009,
6250.1.jpg,3301.jpg,0 Points,0 Points,221 points,PS2_L4.csv,,,,,,,,,,,,,,,,,,,,,,,,,,,,,0,3,3,3,0,14,14,14,,,,,,,,,,,,,,,,,,,834.9318559169769,q,1.1643427918897942,836.1670276250225,,,,,,,6,B,2024-07-25_09h18.18.175,EPIDM,2023.1.2,59.94645269905009,
2518.jpg,2381.jpg,1 Point,1 Point,222 points,PS2_L4.csv,,,,,,,,,,,,,,,,,,,,,,,,,,,,,0,3,3,3,0,15,15,15,,,,,,,,,,,,,,,,,,,840.4044285420096,q,1.0912776249460876,841.5526349589927,,,,,,,6,B,2024-07-25_09h18.18.175,EPIDM,2023.1.2,59.94645269905009,
1910.jpg,2575.jpg,2 Points,2 Points,224 points,PS2_L4.csv,,,,,,,,,,,,,,,,,,,,,,,,,,,,,0,3,3,3,0,16,16,16,,,,,,,,,,,,,,,,,,,845.813888042001,q,0.8740454580402002,846.745320374961,,,,,,,6,B,2024-07-25_09h18.18.175,EPIDM,2023.1.2,59.94645269905009,
1275.jpg,3150.jpg,1 Point,1 Point,225 points,PS2_L4.csv,,,,,,,,,,,,,,,,,,,,,,,,,,,,,0,3,3,3,0,17,17,17,,,,,,,,,,,,,,,,,,,850.9935218340252,q,0.6307034170022234,851.6997477089753,,,,,,,6,B,2024-07-25_09h18.18.175,EPIDM,2023.1.2,59.94645269905009,
2702.jpg,1590.jpg,5 Points,5 Points,230 points,PS2_L4.csv,,,,,,,,,,,,,,,,,,,,,,,,,,,,,0,3,3,3,0,18,18,18,,,,,,,,,,,,,,,,,,,855.9441652919631,q,0.7686096669640392,856.7857567089377,,,,,,,6,B,2024-07-25_09h18.18.175,EPIDM,2023.1.2,59.94645269905009,
8480.jpg,6410.jpg,1 Point,1 Point,231 points,PS2_L4.csv,,,,,,,,,,,,,,,,,,,,,,,,,,,,,0,3,3,3,0,19,19,19,,,,,,,,,,,,,,,,,,,861.0230283340206,q,1.3119622920639813,862.4147245839704,,,,,,,6,B,2024-07-25_09h18.18.175,EPIDM,2023.1.2,59.94645269905009,
5621.jpg,5534.jpg,3 Points,3 Points,234 points,PS2_L4.csv,,,,,,,,,,,,,,,,,,,,,,,,,,,,,0,3,3,3,0,20,20,20,,,,,,,,,,,,,,,,,,,866.6647582090227,q,0.7825736668892205,867.5233102090424,,,,,,,6,B,2024-07-25_09h18.18.175,EPIDM,2023.1.2,59.94645269905009,
5972.jpg,6838.jpg,5 Points,5 Points,239 points,PS2_L4.csv,,,,,,,,,,,,,,,,,,,,,,,,,,,,,0,3,3,3,0,21,21,21,,,,,,,,,,,,,,,,,,,871.7551942500286,q,1.1087754999753088,872.9456324169878,,,,,,,6,B,2024-07-25_09h18.18.175,EPIDM,2023.1.2,59.94645269905009,
2580.jpg,8300.jpg,3 Points,3 Points,242 points,PS2_L4.csv,,,,,,,,,,,,,,,,,,,,,,,,,,,,,0,3,3,3,0,22,22,22,,,,,,,,,,,,,,,,,,,877.1884871670045,p,1.226307624951005,878.4982795839896,,,,,,,6,B,2024-07-25_09h18.18.175,EPIDM,2023.1.2,59.94645269905009,
7280.jpg,7160.jpg,0 Points,0 Points,242 points,PS2_L4.csv,,,,,,,,,,,,,,,,,,,,,,,,,,,,,0,3,3,3,0,23,23,23,,,,,,,,,,,,,,,,,,,882.7304104169598,q,0.8530666249571368,883.6752638750477,,,894.1152140420163,space,3.5231742908945307,,6,B,2024-07-25_09h18.18.175,EPIDM,2023.1.2,59.94645269905009,
6243.jpg,2752.jpg,2 Points,2 Points,244 points,PS2_L5.csv,,,,,,,,,,,,,,,,,,,,,,,,,,,,,0,4,4,4,0,0,0,0,,,,,,,,,,,,,,,,,,,900.9533471249742,p,1.1657478340202942,902.191374041955,,,,,,,6,B,2024-07-25_09h18.18.175,EPIDM,2023.1.2,59.94645269905009,
8340.jpg,7546.jpg,2 Points,2 Points,246 points,PS2_L5.csv,,,,,,,,,,,,,,,,,,,,,,,,,,,,,0,4,4,4,0,1,1,1,,,,,,,,,,,,,,,,,,,906.4336159999948,p,0.8209267919883132,907.316165874945,2,1.303741499898024,,,,,6,B,2024-07-25_09h18.18.175,EPIDM,2023.1.2,59.94645269905009,
1022.jpg,6930.jpg,1 Point,1 Point,247 points,PS2_L5.csv,,,,,,,,,,,,,,,,,,,,,,,,,,,,,0,4,4,4,0,2,2,2,,,,,,,,,,,,,,,,,,,912.9401587919565,p,1.1467451669741422,914.1537204999477,,,,,,,6,B,2024-07-25_09h18.18.175,EPIDM,2023.1.2,59.94645269905009,
7230.jpg,7570.jpg,5 Points,5 Points,252 points,PS2_L5.csv,,,,,,,,,,,,,,,,,,,,,,,,,,,,,0,4,4,4,0,3,3,3,,,,,,,,,,,,,,,,,,,918.3864114170428,q,0.9074556670384482,919.3739772919798,,,,,,,6,B,2024-07-25_09h18.18.175,EPIDM,2023.1.2,59.94645269905009,
5760.jpg,1602.jpg,1 Point,1 Point,253 points,PS2_L5.csv,,,,,,,,,,,,,,,,,,,,,,,,,,,,,0,4,4,4,0,4,4,4,,,,,,,,,,,,,,,,,,,923.6127526250202,q,0.6659940839745104,924.3520637919428,,,,,,,6,B,2024-07-25_09h18.18.175,EPIDM,2023.1.2,59.94645269905009,
9584.jpg,3400.jpg,2 Points,2 Points,255 points,PS2_L5.csv,,,,,,,,,,,,,,,,,,,,,,,,,,,,,0,4,4,4,0,5,5,5,,,,,,,,,,,,,,,,,,,928.5890885000117,q,0.48001633398234844,929.1415311669698,,,,,,,6,B,2024-07-25_09h18.18.175,EPIDM,2023.1.2,59.94645269905009,
2560.jpg,5270.jpg,4 Points,4 Points,259 points,PS2_L5.csv,,,,,,,,,,,,,,,,,,,,,,,,,,,,,0,4,4,4,0,6,6,6,,,,,,,,,,,,,,,,,,,933.3860020840075,q,0.8750640409998596,934.3326347919647,,,,,,,6,B,2024-07-25_09h18.18.175,EPIDM,2023.1.2,59.94645269905009,
3350.jpg,3210.jpg,1 Point,1 Point,260 points,PS2_L5.csv,,,,,,,,,,,,,,,,,,,,,,,,,,,,,0,4,4,4,0,7,7,7,,,,,,,,,,,,,,,,,,,938.5669624169823,p,0.6550733330659568,939.2794275420019,,,,,,,6,B,2024-07-25_09h18.18.175,EPIDM,2023.1.2,59.94645269905009,
5455.jpg,5220.jpg,0 Points,0 Points,260 points,PS2_L5.csv,,,,,,,,,,,,,,,,,,,,,,,,,,,,,0,4,4,4,0,8,8,8,,,,,,,,,,,,,,,,,,,943.5294190839631,p,0.9235814589774236,944.5131928749615,,,,,,,6,B,2024-07-25_09h18.18.175,EPIDM,2023.1.2,59.94645269905009,
7920.jpg,9102.jpg,3 Points,3 Points,263 points,PS2_L5.csv,,,,,,,,,,,,,,,,,,,,,,,,,,,,,0,4,4,4,0,9,9,9,,,,,,,,,,,,,,,,,,,948.7648758339928,q,0.7520361669594422,949.5913833340164,,,,,,,6,B,2024-07-25_09h18.18.175,EPIDM,2023.1.2,59.94645269905009,
1301.jpg,1070.jpg,2 Points,2 Points,265 points,PS2_L5.csv,,,,,,,,,,,,,,,,,,,,,,,,,,,,,0,4,4,4,0,10,10,10,,,,,,,,,,,,,,,,,,,953.8210384999402,q,0.4732405829709023,954.3678482919931,,,,,,,6,B,2024-07-25_09h18.18.175,EPIDM,2023.1.2,59.94645269905009,
5982.jpg,5260.jpg,5 Points,5 Points,270 points,PS2_L5.csv,,,,,,,,,,,,,,,,,,,,,,,,,,,,,0,4,4,4,0,11,11,11,,,,,,,,,,,,,,,,,,,958.595119250007,p,1.1546949169132859,959.8243491250323,,,,,,,6,B,2024-07-25_09h18.18.175,EPIDM,2023.1.2,59.94645269905009,
5000.jpg,8180.jpg,4 Points,4 Points,274 points,PS2_L5.csv,,,,,,,,,,,,,,,,,,,,,,,,,,,,,0,4,4,4,0,12,12,12,,,,,,,,,,,,,,,,,,,964.0544664589688,q,0.5184840000001714,964.6483935420401,,,,,,,6,B,2024-07-25_09h18.18.175,EPIDM,2023.1.2,59.94645269905009,
6244.jpg,9265.jpg,0 Points,0 Points,274 points,PS2_L5.csv,,,,,,,,,,,,,,,,,,,,,,,,,,,,,0,4,4,4,0,13,13,13,,,,,,,,,,,,,,,,,,,968.8813031669706,q,1.1238709579920396,970.0771198750008,0,1.8004770829575136,,,,,6,B,2024-07-25_09h18.18.175,EPIDM,2023.1.2,59.94645269905009,
5990.jpg,5780.jpg,3 Points,3 Points,277 points,PS2_L5.csv,,,,,,,,,,,,,,,,,,,,,,,,,,,,,0,4,4,4,0,14,14,14,,,,,,,,,,,,,,,,,,,976.1869934590068,p,0.8339299169601873,977.0923367500072,,,,,,,6,B,2024-07-25_09h18.18.175,EPIDM,2023.1.2,59.94645269905009,
9440.jpg,6350.jpg,4 Points,4 Points,281 points,PS2_L5.csv,,,,,,,,,,,,,,,,,,,,,,,,,,,,,0,4,4,4,0,15,15,15,,,,,,,,,,,,,,,,,,,981.3369593749521,p,0.9720754579175264,982.3718824170064,,,,,,,6,B,2024-07-25_09h18.18.175,EPIDM,2023.1.2,59.94645269905009,
1850.jpg,5623.jpg,5 Points,5 Points,286 points,PS2_L5.csv,,,,,,,,,,,,,,,,,,,,,,,,,,,,,0,4,4,4,0,16,16,16,,,,,,,,,,,,,,,,,,,986.6148554170504,q,0.7418924169614911,987.4237147920066,,,,,,,6,B,2024-07-25_09h18.18.175,EPIDM,2023.1.2,59.94645269905009,
5200.jpg,5020.jpg,0 Points,0 Points,286 points,PS2_L5.csv,,,,,,,,,,,,,,,,,,,,,,,,,,,,,0,4,4,4,0,17,17,17,,,,,,,,,,,,,,,,,,,991.6642256249906,p,1.2516689168987796,992.9846844590502,,,,,,,6,B,2024-07-25_09h18.18.175,EPIDM,2023.1.2,59.94645269905009,
P211.jpg,9041.jpg,4 Points,4 Points,290 points,PS2_L5.csv,,,,,,,,,,,,,,,,,,,,,,,,,,,,,0,4,4,4,0,18,18,18,,,,,,,,,,,,,,,,,,,997.2273559169844,p,0.3845895000267774,997.7180822499795,,,,,,,6,B,2024-07-25_09h18.18.175,EPIDM,2023.1.2,59.94645269905009,
5600.jpg,9080.jpg,5 Points,5 Points,295 points,PS2_L5.csv,,,,,,,,,,,,,,,,,,,,,,,,,,,,,0,4,4,4,0,19,19,19,,,,,,,,,,,,,,,,,,,1001.9174589170143,q,0.6705876669147983,1002.6610957500525,,,,,,,6,B,2024-07-25_09h18.18.175,EPIDM,2023.1.2,59.94645269905009,
6800.jpg,9190.jpg,0 Points,0 Points,295 points,PS2_L5.csv,,,,,,,,,,,,,,,,,,,,,,,,,,,,,0,4,4,4,0,20,20,20,,,,,,,,,,,,,,,,,,,1006.8973613750422,p,1.162650250014849,1008.1327125000535,,,,,,,6,B,2024-07-25_09h18.18.175,EPIDM,2023.1.2,59.94645269905009,
3280.jpg,9270.jpg,0 Points,0 Points,295 points,PS2_L5.csv,,,,,,,,,,,,,,,,,,,,,,,,,,,,,0,4,4,4,0,21,21,21,,,,,,,,,,,,,,,,,,,1012.3760370420059,q,0.940177374985069,1013.3768227919936,,,,,,,6,B,2024-07-25_09h18.18.175,EPIDM,2023.1.2,59.94645269905009,
4613.jpg,2720.jpg,4 Points,4 Points,299 points,PS2_L5.csv,,,,,,,,,,,,,,,,,,,,,,,,,,,,,0,4,4,4,0,22,22,22,,,,,,,,,,,,,,,,,,,1017.6415312499739,q,0.9615583328995854,1018.6716926250374,,,,,,,6,B,2024-07-25_09h18.18.175,EPIDM,2023.1.2,59.94645269905009,
1930.jpg,9008.jpg,1 Point,1 Point,300 points,PS2_L5.csv,,,,,,,,,,,,,,,,,,,,,,,,,,,,,0,4,4,4,0,23,23,23,,,,,,,,,,,,,,,,,,,1022.9194880840369,p,0.6050171249080449,1023.6082774590468,,,1034.087418250041,space,19.267327957903035,,6,B,2024-07-25_09h18.18.175,EPIDM,2023.1.2,59.94645269905009,
2190.jpg,7503.jpg,2 Points,2 Points,302 points,PS2_L6.csv,,,,,,,,,,,,,,,,,,,,,,,,,,,,,0,5,5,5,0,0,0,0,,,,,,,,,,,,,,,,,,,1056.6611795839854,q,0.9739532920066267,1057.7081767499913,,,,,,,6,B,2024-07-25_09h18.18.175,EPIDM,2023.1.2,59.94645269905009,
2490.jpg,2590.jpg,4 Points,4 Points,306 points,PS2_L6.csv,,,,,,,,,,,,,,,,,,,,,,,,,,,,,0,5,5,5,0,1,1,1,,,,,,,,,,,,,,,,,,,1061.9422340419842,p,1.4357092500431463,1063.4538283339934,4,1.6008343750145286,,,,,6,B,2024-07-25_09h18.18.175,EPIDM,2023.1.2,59.94645269905009,
9592.jpg,1300.jpg,2 Points,2 Points,308 points,PS2_L6.csv,,,,,,,,,,,,,,,,,,,,,,,,,,,,,0,5,5,5,0,2,2,2,,,,,,,,,,,,,,,,,,,1069.342390249949,q,0.8434395829681307,1070.2552757499507,,,,,,,6,B,2024-07-25_09h18.18.175,EPIDM,2023.1.2,59.94645269905009,
8230.jpg,2682.jpg,5 Points,5 Points,313 points,PS2_L6.csv,,,,,,,,,,,,,,,,,,,,,,,,,,,,,0,5,5,5,0,3,3,3,,,,,,,,,,,,,,,,,,,1074.4991745420266,p,0.7104666669620201,1075.2736269589514,,,,,,,6,B,2024-07-25_09h18.18.175,EPIDM,2023.1.2,59.94645269905009,
9090.jpg,7580.jpg,3 Points,3 Points,316 points,PS2_L6.csv,,,,,,,,,,,,,,,,,,,,,,,,,,,,,0,5,5,5,0,4,4,4,,,,,,,,,,,,,,,,,,,1079.5213330000406,q,0.802032915991731,1080.4076273340033,,,,,,,6,B,2024-07-25_09h18.18.175,EPIDM,2023.1.2,59.94645269905009,
3530.jpg,6213.jpg,1 Point,1 Point,317 points,PS2_L6.csv,,,,,,,,,,,,,,,,,,,,,,,,,,,,,0,5,5,5,0,5,5,5,,,,,,,,,,,,,,,,,,,1084.6455261249794,p,0.7642417079769075,1085.4822344999993,,,,,,,6,B,2024-07-25_09h18.18.175,EPIDM,2023.1.2,59.94645269905009,
1640.jpg,5531.jpg,3 Points,3 Points,320 points,PS2_L6.csv,,,,,,,,,,,,,,,,,,,,,,,,,,,,,0,5,5,5,0,6,6,6,,,,,,,,,,,,,,,,,,,1089.7156488749897,q,0.669575166888535,1090.4698691669619,,,,,,,6,B,2024-07-25_09h18.18.175,EPIDM,2023.1.2,59.94645269905009,
3064.jpg,3168.jpg,4 Points,4 Points,324 points,PS2_L6.csv,,,,,,,,,,,,,,,,,,,,,,,,,,,,,0,5,5,5,0,7,7,7,,,,,,,,,,,,,,,,,,,1094.7090699590044,p,0.3888186670374125,1095.1619111249456,,,,,,,6,B,2024-07-25_09h18.18.175,EPIDM,2023.1.2,59.94645269905009,
2710.jpg,9252.jpg,1 Point,1 Point,325 points,PS2_L6.csv,,,,,,,,,,,,,,,,,,,,,,,,,,,,,0,5,5,5,0,8,8,8,,,,,,,,,,,,,,,,,,,1099.408214666997,p,1.2895650409627706,1100.7637530419743,,,,,,,6,B,2024-07-25_09h18.18.175,EPIDM,2023.1.2,59.94645269905009,
2260.jpg,2830.jpg,5 Points,5 Points,330 points,PS2_L6.csv,,,,,,,,,,,,,,,,,,,,,,,,,,,,,0,5,5,5,0,9,9,9,,,,,,,,,,,,,,,,,,,1105.0063498750096,p,1.1865712499711663,1106.2709371669916,,,,,,,6,B,2024-07-25_09h18.18.175,EPIDM,2023.1.2,59.94645269905009,
6510.jpg,A074.jpg,2 Points,2 Points,332 points,PS2_L6.csv,,,,,,,,,,,,,,,,,,,,,,,,,,,,,0,5,5,5,0,10,10,10,,,,,,,,,,,,,,,,,,,1110.5074444169877,p,1.1004781669471413,1111.7240044999635,,,,,,,6,B,2024-07-25_09h18.18.175,EPIDM,2023.1.2,59.94645269905009,
5300.jpg,2372.jpg,1 Point,1 Point,333 points,PS2_L6.csv,,,,,,,,,,,,,,,,,,,,,,,,,,,,,0,5,5,5,0,11,11,11,,,,,,,,,,,,,,,,,,,1115.9251903749537,q,0.9084091250551865,1116.9418626249535,,,,,,,6,B,2024-07-25_09h18.18.175,EPIDM,2023.1.2,59.94645269905009,
2749.jpg,7282.jpg,3 Points,3 Points,336 points,PS2_L6.csv,,,,,,,,,,,,,,,,,,,,,,,,,,,,,0,5,5,5,0,12,12,12,,,,,,,,,,,,,,,,,,,1121.1344469590113,p,1.3711623329436406,1122.5793426249875,,,,,,,6,B,2024-07-25_09h18.18.175,EPIDM,2023.1.2,59.94645269905009,
3130.jpg,3500.jpg,4 Points,4 Points,340 points,PS2_L6.csv,,,,,,,,,,,,,,,,,,,,,,,,,,,,,0,5,5,5,0,13,13,13,,,,,,,,,,,,,,,,,,,1126.8073757919483,p,0.5450733329635113,1127.4232438750332,4,1.4090785830048844,,,,,6,B,2024-07-25_09h18.18.175,EPIDM,2023.1.2,59.94645269905009,
6312.jpg,3230.jpg,2 Points,2 Points,342 points,PS2_L6.csv,,,,,,,,,,,,,,,,,,,,,,,,,,,,,0,5,5,5,0,14,14,14,,,,,,,,,,,,,,,,,,,1133.1358811670216,p,1.2090927920071408,1134.4147823749809,,,,,,,6,B,2024-07-25_09h18.18.175,EPIDM,2023.1.2,59.94645269905009,
2597.jpg,5870.jpg,5 Points,5 Points,347 points,PS2_L6.csv,,,,,,,,,,,,,,,,,,,,,,,,,,,,,0,5,5,5,0,15,15,15,,,,,,,,,,,,,,,,,,,1138.6497085420415,q,1.1747431670082733,1139.8883447919507,,,,,,,6,B,2024-07-25_09h18.18.175,EPIDM,2023.1.2,59.94645269905009,
8033.jpg,7270.jpg,3 Points,3 Points,350 points,PS2_L6.csv,,,,,,,,,,,,,,,,,,,,,,,,,,,,,0,5,5,5,0,16,16,16,,,,,,,,,,,,,,,,,,,1144.1327860419406,p,1.1146840000292286,1145.3187955419999,,,,,,,6,B,2024-07-25_09h18.18.175,EPIDM,2023.1.2,59.94645269905009,
3170.jpg,6560.jpg,2 Points,2 Points,352 points,PS2_L6.csv,,,,,,,,,,,,,,,,,,,,,,,,,,,,,0,5,5,5,0,17,17,17,,,,,,,,,,,,,,,,,,,1149.5654270419618,p,0.4588744160719216,1150.0881771669956,,,,,,,6,B,2024-07-25_09h18.18.175,EPIDM,2023.1.2,59.94645269905009,
6242.jpg,F034.jpg,4 Points,4 Points,356 points,PS2_L6.csv,,,,,,,,,,,,,,,,,,,,,,,,,,,,,0,5,5,5,0,18,18,18,,,,,,,,,,,,,,,,,,,1154.33643174998,q,0.785672583966516,1155.2359429589706,,,,,,,6,B,2024-07-25_09h18.18.175,EPIDM,2023.1.2,59.94645269905009,
2485.jpg,7350.jpg,0 Points,0 Points,356 points,PS2_L6.csv,,,,,,,,,,,,,,,,,,,,,,,,,,,,,0,5,5,5,0,19,19,19,,,,,,,,,,,,,,,,,,,1159.4378355840454,p,0.8500371250556782,1160.3594755840022,,,,,,,6,B,2024-07-25_09h18.18.175,EPIDM,2023.1.2,59.94645269905009,
2900.jpg,1101.jpg,3 Points,3 Points,359 points,PS2_L6.csv,,,,,,,,,,,,,,,,,,,,,,,,,,,,,0,5,5,5,0,20,20,20,,,,,,,,,,,,,,,,,,,1164.6072466670303,q,0.7610852919751778,1165.4432009169832,,,,,,,6,B,2024-07-25_09h18.18.175,EPIDM,2023.1.2,59.94645269905009,
7002.jpg,4660.jpg,4 Points,4 Points,363 points,PS2_L6.csv,,,,,,,,,,,,,,,,,,,,,,,,,,,,,0,5,5,5,0,21,21,21,,,,,,,,,,,,,,,,,,,1169.6767623750493,p,0.5552870830288157,1170.315114374971,,,,,,,6,B,2024-07-25_09h18.18.175,EPIDM,2023.1.2,59.94645269905009,
A025.jpg,1051.jpg,0 Points,0 Points,363 points,PS2_L6.csv,,,,,,,,,,,,,,,,,,,,,,,,,,,,,0,5,5,5,0,22,22,22,,,,,,,,,,,,,,,,,,,1174.5559234590037,q,1.1963461249833927,1175.879040000029,,,,,,,6,B,2024-07-25_09h18.18.175,EPIDM,2023.1.2,59.94645269905009,
4510.jpg,2230.jpg,5 Points,5 Points,368 points,PS2_L6.csv,,,,,,,,,,,,,,,,,,,,,,,,,,,,,0,5,5,5,0,23,23,23,,,,,,,,,,,,,,,,,,,1180.076169625041,q,0.9717121249996126,1181.1258305000374,,,1191.565736874938,space,8.065164541010745,,6,B,2024-07-25_09h18.18.175,EPIDM,2023.1.2,59.94645269905009,
2383.jpg,1616.jpg,2 Points,2 Points,370 points,PS2_L7.csv,,,,,,,,,,,,,,,,,,,,,,,,,,,,,0,6,6,6,0,0,0,0,,,,,,,,,,,,,,,,,,,1202.9488723339746,q,0.8496704158606008,1203.8682669169502,,,,,,,6,B,2024-07-25_09h18.18.175,EPIDM,2023.1.2,59.94645269905009,
1310.jpg,3181.jpg,4 Points,4 Points,374 points,PS2_L7.csv,,,,,,,,,,,,,,,,,,,,,,,,,,,,,0,6,6,6,0,1,1,1,,,,,,,,,,,,,,,,,,,1208.0980051669758,p,0.884875874966383,1209.0419257089961,4,1.4624179999809712,,,,,6,B,2024-07-25_09h18.18.175,EPIDM,2023.1.2,59.94645269905009,
7289.jpg,4534.jpg,0 Points,0 Points,374 points,PS2_L7.csv,,,,,,,,,,,,,,,,,,,,,,,,,,,,,0,6,6,6,0,2,2,2,,,,,,,,,,,,,,,,,,,1214.8050637090346,q,0.8172274170210585,1215.6994560839375,,,,,,,6,B,2024-07-25_09h18.18.175,EPIDM,2023.1.2,59.94645269905009,
6010.jpg,7361.jpg,2 Points,2 Points,376 points,PS2_L7.csv,,,,,,,,,,,,,,,,,,,,,,,,,,,,,0,6,6,6,0,3,3,3,,,,,,,,,,,,,,,,,,,1219.9378784999717,q,0.6605085829505697,1220.6708486670395,,,,,,,6,B,2024-07-25_09h18.18.175,EPIDM,2023.1.2,59.94645269905009,
2661.jpg,2870.jpg,5 Points,5 Points,381 points,PS2_L7.csv,,,,,,,,,,,,,,,,,,,,,,,,,,,,,0,6,6,6,0,4,4,4,,,,,,,,,,,,,,,,,,,1224.90438416705,p,0.7824999999720603,1225.7474821669748,,,,,,,6,B,2024-07-25_09h18.18.175,EPIDM,2023.1.2,59.94645269905009,
7220.jpg,8090.jpg,2 Points,2 Points,383 points,PS2_L7.csv,,,,,,,,,,,,,,,,,,,,,,,,,,,,,0,6,6,6,0,5,5,5,,,,,,,,,,,,,,,,,,,1229.9922937089577,q,0.5261204170528799,1230.5917175839422,,,,,,,6,B,2024-07-25_09h18.18.175,EPIDM,2023.1.2,59.94645269905009,
9140.jpg,2810.jpg,3 Points,3 Points,386 points,PS2_L7.csv,,,,,,,,,,,,,,,,,,,,,,,,,,,,,0,6,6,6,0,6,6,6,,,,,,,,,,,,,,,,,,,1234.8284305840498,p,0.6406839588889852,1235.533782250015,,,,,,,6,B,2024-07-25_09h18.18.175,EPIDM,2023.1.2,59.94645269905009,
2516.jpg,8500.jpg,4 Points,4 Points,390 points,PS2_L7.csv,,,,,,,,,,,,,,,,,,,,,,,,,,,,,0,6,6,6,0,7,7,7,,,,,,,,,,,,,,,,,,,1239.7873453339562,p,0.6750080829951912,1240.5283725840272,,,,,,,6,B,2024-07-25_09h18.18.175,EPIDM,2023.1.2,59.94645269905009,
9070.jpg,9420.jpg,2 Points,2 Points,392 points,PS2_L7.csv,,,,,,,,,,,,,,,,,,,,,,,,,,,,,0,6,6,6,0,8,8,8,,,,,,,,,,,,,,,,,,,1244.7681226249551,q,0.8444358750712126,1245.6917519590352,,,,,,,6,B,2024-07-25_09h18.18.175,EPIDM,2023.1.2,59.94645269905009,
6561.jpg,1525.jpg,2 Points,2 Points,394 points,PS2_L7.csv,,,,,,,,,,,,,,,,,,,,,,,,,,,,,0,6,6,6,0,9,9,9,,,,,,,,,,,,,,,,,,,1249.9363811250078,q,0.5896517919609323,1250.580096208956,,,,,,,6,B,2024-07-25_09h18.18.175,EPIDM,2023.1.2,59.94645269905009,
7175.jpg,7490.jpg,2 Points,2 Points,396 points,PS2_L7.csv,,,,,,,,,,,,,,,,,,,,,,,,,,,,,0,6,6,6,0,10,10,10,,,,,,,,,,,,,,,,,,,1254.8373579999898,q,0.7442088749958202,1255.652703833999,,,,,,,6,B,2024-07-25_09h18.18.175,EPIDM,2023.1.2,59.94645269905009,
8010.jpg,2630.jpg,0 Points,0 Points,396 points,PS2_L7.csv,,,,,,,,,,,,,,,,,,,,,,,,,,,,,0,6,6,6,0,11,11,11,,,,,,,,,,,,,,,,,,,1259.9039803339401,p,0.6773575829574838,1260.6482225840446,,,,,,,6,B,2024-07-25_09h18.18.175,EPIDM,2023.1.2,59.94645269905009,
F174.jpg,9404.jpg,5 Points,5 Points,401 points,PS2_L7.csv,,,,,,,,,,,,,,,,,,,,,,,,,,,,,0,6,6,6,0,12,12,12,,,,,,,,,,,,,,,,,,,1264.887949291966,p,0.3894223750103265,1265.3811517920112,,,,,,,6,B,2024-07-25_09h18.18.175,EPIDM,2023.1.2,59.94645269905009,
2692.jpg,8231.jpg,4 Points,4 Points,405 points,PS2_L7.csv,,,,,,,,,,,,,,,,,,,,,,,,,,,,,0,6,6,6,0,13,13,13,,,,,,,,,,,,,,,,,,,1269.5874960420188,p,0.8164691670099273,1270.5133952089818,4,1.418000707984902,,,,,6,B,2024-07-25_09h18.18.175,EPIDM,2023.1.2,59.94645269905009,
5994.jpg,5390.jpg,0 Points,0 Points,405 points,PS2_L7.csv,,,,,,,,,,,,,,,,,,,,,,,,,,,,,0,6,6,6,0,14,14,14,,,,,,,,,,,,,,,,,,,1276.2043392920168,q,0.8802934580016881,1277.140291000018,,,,,,,6,B,2024-07-25_09h18.18.175,EPIDM,2023.1.2,59.94645269905009,
9560.jpg,3071.jpg,1 Point,1 Point,406 points,PS2_L7.csv,,,,,,,,,,,,,,,,,,,,,,,,,,,,,0,6,6,6,0,15,15,15,,,,,,,,,,,,,,,,,,,1281.3963896250352,q,0.4648927499074489,1281.9290389999514,,,,,,,6,B,2024-07-25_09h18.18.175,EPIDM,2023.1.2,59.94645269905009,
9330.jpg,3015.jpg,5 Points,5 Points,411 points,PS2_L7.csv,,,,,,,,,,,,,,,,,,,,,,,,,,,,,0,6,6,6,0,16,16,16,,,,,,,,,,,,,,,,,,,1286.171871916973,q,0.4889555419795215,1286.7329240000108,,,,,,,6,B,2024-07-25_09h18.18.175,EPIDM,2023.1.2,59.94645269905009,
2389.jpg,7320.jpg,0 Points,0 Points,411 points,PS2_L7.csv,,,,,,,,,,,,,,,,,,,,,,,,,,,,,0,6,6,6,0,17,17,17,,,,,,,,,,,,,,,,,,,1290.973297583987,p,0.6708933749468997,1291.7247893339954,,,,,,,6,B,2024-07-25_09h18.18.175,EPIDM,2023.1.2,59.94645269905009,
6570.1.jpg,9432.jpg,5 Points,5 Points,416 points,PS2_L7.csv,,,,,,,,,,,,,,,,,,,,,,,,,,,,,0,6,6,6,0,18,18,18,,,,,,,,,,,,,,,,,,,1295.969910625019,p,0.5232654999708757,1296.557970709051,,,,,,,6,B,2024-07-25_09h18.18.175,EPIDM,2023.1.2,59.94645269905009,
9452.jpg,7184.jpg,4 Points,4 Points,420 points,PS2_L7.csv,,,,,,,,,,,,,,,,,,,,,,,,,,,,,0,6,6,6,0,19,19,19,,,,,,,,,,,,,,,,,,,1300.7956664999947,p,0.8001447090646252,1301.6684207919752,,,,,,,6,B,2024-07-25_09h18.18.175,EPIDM,2023.1.2,59.94645269905009,
5120.jpg,5520.jpg,2 Points,2 Points,422 points,PS2_L7.csv,,,,,,,,,,,,,,,,,,,,,,,,,,,,,0,6,6,6,0,20,20,20,,,,,,,,,,,,,,,,,,,1305.9102392919594,p,0.6769725410267711,1306.6655899999896,,,,,,,6,B,2024-07-25_09h18.18.175,EPIDM,2023.1.2,59.94645269905009,
5970.jpg,3300.jpg,0 Points,0 Points,422 points,PS2_L7.csv,,,,,,,,,,,,,,,,,,,,,,,,,,,,,0,6,6,6,0,21,21,21,,,,,,,,,,,,,,,,,,,1310.9095107499743,q,0.599007916986011,1311.5798151670024,,,,,,,6,B,2024-07-25_09h18.18.175,EPIDM,2023.1.2,59.94645269905009,
7620.jpg,5395.jpg,1 Point,1 Point,423 points,PS2_L7.csv,,,,,,,,,,,,,,,,,,,,,,,,,,,,,0,6,6,6,0,22,22,22,,,,,,,,,,,,,,,,,,,1315.8230731670046,p,0.6527604999719188,1316.541729458957,,,,,,,6,B,2024-07-25_09h18.18.175,EPIDM,2023.1.2,59.94645269905009,
P019.jpg,F158.jpg,3 Points,3 Points,426 points,PS2_L7.csv,,,,,,,,,,,,,,,,,,,,,,,,,,,,,0,6,6,6,0,23,23,23,,,,,,,,,,,,,,,,,,,1320.7858383340063,p,0.49061254190746695,1321.4070860419888,,,1331.8176523749717,space,16.753646290977485,,6,B,2024-07-25_09h18.18.175,EPIDM,2023.1.2,59.94645269905009,
2620.jpg,2594.jpg,0 Points,0 Points,426 points,PS2_L8.csv,,,,,,,,,,,,,,,,,,,,,,,,,,,,,0,7,7,7,0,0,0,0,,,,,,,,,,,,,,,,,,,1351.8812969999854,q,1.1782548750052229,1353.1628298750147,,,,,,,6,B,2024-07-25_09h18.18.175,EPIDM,2023.1.2,59.94645269905009,
F369.jpg,3100.jpg,2 Points,2 Points,428 points,PS2_L8.csv,,,,,,,,,,,,,,,,,,,,,,,,,,,,,0,7,7,7,0,1,1,1,,,,,,,,,,,,,,,,,,,1357.3749100420391,q,0.35545687505509704,1357.8271372499876,2,1.273462292039767,,,,,6,B,2024-07-25_09h18.18.175,EPIDM,2023.1.2,59.94645269905009,
1052.jpg,1201.jpg,3 Points,3 Points,431 points,PS2_L8.csv,,,,,,,,,,,,,,,,,,,,,,,,,,,,,0,7,7,7,0,2,2,2,,,,,,,,,,,,,,,,,,,1363.4165754589485,p,1.0010029580444098,1364.5151287500048,,,,,,,6,B,2024-07-25_09h18.18.175,EPIDM,2023.1.2,59.94645269905009,
2606.jpg,2480.jpg,1 Point,1 Point,432 points,PS2_L8.csv,,,,,,,,,,,,,,,,,,,,,,,,,,,,,0,7,7,7,0,3,3,3,,,,,,,,,,,,,,,,,,,1368.7182342089945,q,0.8770209590438753,1369.6662414589664,,,,,,,6,B,2024-07-25_09h18.18.175,EPIDM,2023.1.2,59.94645269905009,
9594.jpg,1080.jpg,4 Points,4 Points,436 points,PS2_L8.csv,,,,,,,,,,,,,,,,,,,,,,,,,,,,,0,7,7,7,0,4,4,4,,,,,,,,,,,,,,,,,,,1373.9085222500144,p,0.7657195830252022,1374.7471316669835,,,,,,,6,B,2024-07-25_09h18.18.175,EPIDM,2023.1.2,59.94645269905009,
4770.jpg,4275.jpg,3 Points,3 Points,439 points,PS2_L8.csv,,,,,,,,,,,,,,,,,,,,,,,,,,,,,0,7,7,7,0,5,5,5,,,,,,,,,,,,,,,,,,,1378.9753004170489,p,0.7236122499452904,1379.7718604590045,,,,,,,6,B,2024-07-25_09h18.18.175,EPIDM,2023.1.2,59.94645269905009,
P077.jpg,A041.jpg,1 Point,1 Point,440 points,PS2_L8.csv,,,,,,,,,,,,,,,,,,,,,,,,,,,,,0,7,7,7,0,6,6,6,,,,,,,,,,,,,,,,,,,1384.003509833943,p,0.3898964999243617,1384.5350097500486,,,,,,,6,B,2024-07-25_09h18.18.175,EPIDM,2023.1.2,59.94645269905009,
6550.jpg,9582.jpg,5 Points,5 Points,445 points,PS2_L8.csv,,,,,,,,,,,,,,,,,,,,,,,,,,,,,0,7,7,7,0,7,7,7,,,,,,,,,,,,,,,,,,,1388.7078124999534,q,0.9496527079027146,1389.7605995419435,,,,,,,6,B,2024-07-25_09h18.18.175,EPIDM,2023.1.2,59.94645269905009,
8040.jpg,7185.jpg,1 Point,1 Point,446 points,PS2_L8.csv,,,,,,,,,,,,,,,,,,,,,,,,,,,,,0,7,7,7,0,8,8,8,,,,,,,,,,,,,,,,,,,1393.964082416962,q,0.7583253749180585,1394.8055239169626,,,,,,,6,B,2024-07-25_09h18.18.175,EPIDM,2023.1.2,59.94645269905009,
P233.jpg,3060.jpg,1 Point,1 Point,447 points,PS2_L8.csv,,,,,,,,,,,,,,,,,,,,,,,,,,,,,0,7,7,7,0,9,9,9,,,,,,,,,,,,,,,,,,,1399.0381808340317,q,0.9155832920223475,1400.0747812920017,,,,,,,6,B,2024-07-25_09h18.18.175,EPIDM,2023.1.2,59.94645269905009,
1090.jpg,P217.jpg,5 Points,5 Points,452 points,PS2_L8.csv,,,,,,,,,,,,,,,,,,,,,,,,,,,,,0,7,7,7,0,10,10,10,,,,,,,,,,,,,,,,,,,1404.273994624964,q,0.8576113749295473,1405.247700250009,,,,,,,6,B,2024-07-25_09h18.18.175,EPIDM,2023.1.2,59.94645269905009,
9405.jpg,6250.2.jpg,3 Points,3 Points,455 points,PS2_L8.csv,,,,,,,,,,,,,,,,,,,,,,,,,,,,,0,7,7,7,0,11,11,11,,,,,,,,,,,,,,,,,,,1409.4406441670144,p,0.4912767498753965,1410.0167378749466,,,,,,,6,B,2024-07-25_09h18.18.175,EPIDM,2023.1.2,59.94645269905009,
1610.jpg,F203.jpg,0 Points,0 Points,455 points,PS2_L8.csv,,,,,,,,,,,,,,,,,,,,,,,,,,,,,0,7,7,7,0,12,12,12,,,,,,,,,,,,,,,,,,,1414.266843792051,q,0.7666183329420164,1415.148984584026,,,,,,,6,B,2024-07-25_09h18.18.175,EPIDM,2023.1.2,59.94645269905009,
P222.jpg,9401.jpg,2 Points,2 Points,457 points,PS2_L8.csv,,,,,,,,,,,,,,,,,,,,,,,,,,,,,0,7,7,7,0,13,13,13,,,,,,,,,,,,,,,,,,,1419.3411649169866,p,0.37418812490068376,1419.8231462090043,2,0.984181624953635,,,,,6,B,2024-07-25_09h18.18.175,EPIDM,2023.1.2,59.94645269905009,
5471.jpg,7352.jpg,2 Points,2 Points,459 points,PS2_L8.csv,,,,,,,,,,,,,,,,,,,,,,,,,,,,,0,7,7,7,0,14,14,14,,,,,,,,,,,,,,,,,,,1425.1129536250373,p,0.6397697919746861,1425.8514495419804,,,,,,,6,B,2024-07-25_09h18.18.175,EPIDM,2023.1.2,59.94645269905009,
9042.jpg,2753.jpg,0 Points,0 Points,459 points,PS2_L8.csv,,,,,,,,,,,,,,,,,,,,,,,,,,,,,0,7,7,7,0,15,15,15,,,,,,,,,,,,,,,,,,,1430.0573610840365,p,0.5748610839946195,1430.6914746670518,,,,,,,6,B,2024-07-25_09h18.18.175,EPIDM,2023.1.2,59.94645269905009,
8311.jpg,4609.jpg,2 Points,2 Points,461 points,PS2_L8.csv,,,,,,,,,,,,,,,,,,,,,,,,,,,,,0,7,7,7,0,16,16,16,,,,,,,,,,,,,,,,,,,1434.9475935420487,p,0.9973811248783022,1436.0166706669843,,,,,,,6,B,2024-07-25_09h18.18.175,EPIDM,2023.1.2,59.94645269905009,
2320.jpg,2791.jpg,4 Points,4 Points,465 points,PS2_L8.csv,,,,,,,,,,,,,,,,,,,,,,,,,,,,,0,7,7,7,0,17,17,17,,,,,,,,,,,,,,,,,,,1440.2672594999894,p,0.7901754589984193,1441.1217299170094,,,,,,,6,B,2024-07-25_09h18.18.175,EPIDM,2023.1.2,59.94645269905009,
F365.jpg,3180.jpg,5 Points,5 Points,470 points,PS2_L8.csv,,,,,,,,,,,,,,,,,,,,,,,,,,,,,0,7,7,7,0,18,18,18,,,,,,,,,,,,,,,,,,,1445.3728965000482,p,0.36378695897292346,1445.8349411250092,,,,,,,6,B,2024-07-25_09h18.18.175,EPIDM,2023.1.2,59.94645269905009,
9300.jpg,1050.jpg,4 Points,4 Points,474 points,PS2_L8.csv,,,,,,,,,,,,,,,,,,,,,,,,,,,,,0,7,7,7,0,19,19,19,,,,,,,,,,,,,,,,,,,1450.0422236670274,p,0.655188582953997,1450.7934765840182,,,,,,,6,B,2024-07-25_09h18.18.175,EPIDM,2023.1.2,59.94645269905009,
6150.jpg,2206.jpg,0 Points,0 Points,474 points,PS2_L8.csv,,,,,,,,,,,,,,,,,,,,,,,,,,,,,0,7,7,7,0,20,20,20,,,,,,,,,,,,,,,,,,,1455.0063660419546,p,0.7140231250086799,1455.7909605000168,,,,,,,6,B,2024-07-25_09h18.18.175,EPIDM,2023.1.2,59.94645269905009,
6260.jpg,3062.jpg,3 Points,3 Points,477 points,PS2_L8.csv,,,,,,,,,,,,,,,,,,,,,,,,,,,,,0,7,7,7,0,21,21,21,,,,,,,,,,,,,,,,,,,1460.0289037500042,q,0.34645191696472466,1460.4487438340439,,,,,,,6,B,2024-07-25_09h18.18.175,EPIDM,2023.1.2,59.94645269905009,
6571.jpg,P237.jpg,2 Points,2 Points,479 points,PS2_L8.csv,,,,,,,,,,,,,,,,,,,,,,,,,,,,,0,7,7,7,0,22,22,22,,,,,,,,,,,,,,,,,,,1464.6923701249762,q,0.5478809579508379,1465.3506680839928,,,,,,,6,B,2024-07-25_09h18.18.175,EPIDM,2023.1.2,59.94645269905009,
7283.jpg,1720.jpg,4 Points,4 Points,483 points,PS2_L8.csv,,,,,,,,,,,,,,,,,,,,,,,,,,,,,0,7,7,7,0,23,23,23,,,,,,,,,,,,,,,,,,,1469.552474208991,p,1.207226708997041,1470.8359433750156,,,1481.2806332500186,space,2.6397276669740677,,6,B,2024-07-25_09h18.18.175,EPIDM,2023.1.2,59.94645269905009,
3160.jpg,6210.jpg,1 Point,1 Point,484 points,PS2_L9.csv,,,,,,,,,,,,,,,,,,,,,,,,,,,,,0,8,8,8,0,0,0,0,,,,,,,,,,,,,,,,,,,1487.2280885420041,p,0.38781454192940146,1487.6946188339498,,,,,,,6,B,2024-07-25_09h18.18.175,EPIDM,2023.1.2,59.94645269905009,
2100.jpg,7205.jpg,5 Points,5 Points,489 points,PS2_L9.csv,,,,,,,,,,,,,,,,,,,,,,,,,,,,,0,8,8,8,0,1,1,1,,,,,,,,,,,,,,,,,,,1491.9482866670005,p,0.6996192500228062,1492.731955833966,5,1.3810051250038669,,,,,6,B,2024-07-25_09h18.18.175,EPIDM,2023.1.2,59.94645269905009,
9110.jpg,3051.jpg,1 Point,1 Point,490 points,PS2_L9.csv,,,,,,,,,,,,,,,,,,,,,,,,,,,,,0,8,8,8,0,2,2,2,,,,,,,,,,,,,,,,,,,1498.4314872500254,q,0.4489584589609876,1498.96731008403,,,,,,,6,B,2024-07-25_09h18.18.175,EPIDM,2023.1.2,59.94645269905009,
9101.jpg,9571.jpg,2 Points,2 Points,492 points,PS2_L9.csv,,,,,,,,,,,,,,,,,,,,,,,,,,,,,0,8,8,8,0,3,3,3,,,,,,,,,,,,,,,,,,,1503.1953330000397,q,0.6040921249659732,1503.8678456250345,,,,,,,6,B,2024-07-25_09h18.18.175,EPIDM,2023.1.2,59.94645269905009,
5410.jpg,1450.jpg,5 Points,5 Points,497 points,PS2_L9.csv,,,,,,,,,,,,,,,,,,,,,,,,,,,,,0,8,8,8,0,4,4,4,,,,,,,,,,,,,,,,,,,1508.1015441250056,q,0.7296572498744354,1508.8950504589593,,,,,,,6,B,2024-07-25_09h18.18.175,EPIDM,2023.1.2,59.94645269905009,
F149.jpg,3030.jpg,0 Points,0 Points,497 points,PS2_L9.csv,,,,,,,,,,,,,,,,,,,,,,,,,,,,,0,8,8,8,0,5,5,5,,,,,,,,,,,,,,,,,,,1513.1389940000372,q,1.1162156669888645,1514.3642410419416,,,,,,,6,B,2024-07-25_09h18.18.175,EPIDM,2023.1.2,59.94645269905009,
3266.jpg,7360.jpg,1 Point,1 Point,498 points,PS2_L9.csv,,,,,,,,,,,,,,,,,,,,,,,,,,,,,0,8,8,8,0,6,6,6,,,,,,,,,,,,,,,,,,,1518.5707532089436,p,0.4526590419700369,1519.1410374590196,,,,,,,6,B,2024-07-25_09h18.18.175,EPIDM,2023.1.2,59.94645269905009,
5660.jpg,5201.jpg,0 Points,0 Points,498 points,PS2_L9.csv,,,,,,,,,,,,,,,,,,,,,,,,,,,,,0,8,8,8,0,7,7,7,,,,,,,,,,,,,,,,,,,1523.3433732499834,q,0.5592413749545813,1523.9842224169988,,,,,,,6,B,2024-07-25_09h18.18.175,EPIDM,2023.1.2,59.94645269905009,
1945.jpg,2800.jpg,4 Points,4 Points,502 points,PS2_L9.csv,,,,,,,,,,,,,,,,,,,,,,,,,,,,,0,8,8,8,0,8,8,8,,,,,,,,,,,,,,,,,,,1528.2096152500017,p,0.4530242499895394,1528.7344654999906,,,,,,,6,B,2024-07-25_09h18.18.175,EPIDM,2023.1.2,59.94645269905009,
3000.jpg,6200.jpg,5 Points,5 Points,507 points,PS2_L9.csv,,,,,,,,,,,,,,,,,,,,,,,,,,,,,0,8,8,8,0,9,9,9,,,,,,,,,,,,,,,,,,,1532.9682389999507,p,0.24626858299598098,1533.2874537919415,,,,,,,6,B,2024-07-25_09h18.18.175,EPIDM,2023.1.2,59.94645269905009,
2215.jpg,2512.jpg,1 Point,1 Point,508 points,PS2_L9.csv,,,,,,,,,,,,,,,,,,,,,,,,,,,,,0,8,8,8,0,10,10,10,,,,,,,,,,,,,,,,,,,1537.5268418750493,p,0.8641402079956606,1538.458403042052,,,,,,,6,B,2024-07-25_09h18.18.175,EPIDM,2023.1.2,59.94645269905009,
5460.jpg,5800.jpg,0 Points,0 Points,508 points,PS2_L9.csv,,,,,,,,,,,,,,,,,,,,,,,,,,,,,0,8,8,8,0,11,11,11,,,,,,,,,,,,,,,,,,,1542.6945042089792,p,0.8333022079896182,1543.6083262090106,,,,,,,6,B,2024-07-25_09h18.18.175,EPIDM,2023.1.2,59.94645269905009,
3061.jpg,2717.jpg,4 Points,4 Points,512 points,PS2_L9.csv,,,,,,,,,,,,,,,,,,,,,,,,,,,,,0,8,8,8,0,12,12,12,,,,,,,,,,,,,,,,,,,1547.8337038339814,p,0.3728081249864772,1548.2738860419486,,,,,,,6,B,2024-07-25_09h18.18.175,EPIDM,2023.1.2,59.94645269905009,
7380.jpg,1220.jpg,1 Point,1 Point,513 points,PS2_L9.csv,,,,,,,,,,,,,,,,,,,,,,,,,,,,,0,8,8,8,0,13,13,13,,,,,,,,,,,,,,,,,,,1552.5163765839534,p,0.9624961670488119,1553.5313562919619,1,1.1916181249544024,,,,,6,B,2024-07-25_09h18.18.175,EPIDM,2023.1.2,59.94645269905009,
1740.jpg,7480.jpg,0 Points,0 Points,513 points,PS2_L9.csv,,,,,,,,,,,,,,,,,,,,,,,,,,,,,0,8,8,8,0,14,14,14,,,,,,,,,,,,,,,,,,,1559.0493307920406,p,0.8840128330048174,1559.9990581669845,,,,,,,6,B,2024-07-25_09h18.18.175,EPIDM,2023.1.2,59.94645269905009,
7285.jpg,4233.jpg,5 Points,5 Points,518 points,PS2_L9.csv,,,,,,,,,,,,,,,,,,,,,,,,,,,,,0,8,8,8,0,15,15,15,,,,,,,,,,,,,,,,,,,1564.2467685419833,q,0.7105509579414502,1565.0505891670473,,,,,,,6,B,2024-07-25_09h18.18.175,EPIDM,2023.1.2,59.94645269905009,
6830.jpg,6212.jpg,4 Points,4 Points,522 points,PS2_L9.csv,,,,,,,,,,,,,,,,,,,,,,,,,,,,,0,8,8,8,0,16,16,16,,,,,,,,,,,,,,,,,,,1569.2867881249404,q,0.7900108339963481,1570.1599063340109,,,,,,,6,B,2024-07-25_09h18.18.175,EPIDM,2023.1.2,59.94645269905009,
7830.jpg,2499.jpg,3 Points,3 Points,525 points,PS2_L9.csv,,,,,,,,,,,,,,,,,,,,,,,,,,,,,0,8,8,8,0,17,17,17,,,,,,,,,,,,,,,,,,,1574.3957488749875,p,0.8252894579200074,1575.2884260839783,,,,,,,6,B,2024-07-25_09h18.18.175,EPIDM,2023.1.2,59.94645269905009,
9520.jpg,1931.jpg,3 Points,3 Points,528 points,PS2_L9.csv,,,,,,,,,,,,,,,,,,,,,,,,,,,,,0,8,8,8,0,18,18,18,,,,,,,,,,,,,,,,,,,1579.5219860839425,p,0.6673555410234258,1580.2556141250534,,,,,,,6,B,2024-07-25_09h18.18.175,EPIDM,2023.1.2,59.94645269905009,
9160.jpg,1200.jpg,4 Points,4 Points,532 points,PS2_L9.csv,,,,,,,,,,,,,,,,,,,,,,,,,,,,,0,8,8,8,0,19,19,19,,,,,,,,,,,,,,,,,,,1584.5065203340491,q,0.6427275419700891,1585.2316808339674,,,,,,,6,B,2024-07-25_09h18.18.175,EPIDM,2023.1.2,59.94645269905009,
2020.jpg,1947.jpg,5 Points,5 Points,537 points,PS2_L9.csv,,,,,,,,,,,,,,,,,,,,,,,,,,,,,0,8,8,8,0,20,20,20,,,,,,,,,,,,,,,,,,,1589.4692185419844,p,0.7685378328897059,1590.3066434999928,,,,,,,6,B,2024-07-25_09h18.18.175,EPIDM,2023.1.2,59.94645269905009,
4535.jpg,1811.jpg,1 Point,1 Point,538 points,PS2_L9.csv,,,,,,,,,,,,,,,,,,,,,,,,,,,,,0,8,8,8,0,21,21,21,,,,,,,,,,,,,,,,,,,1594.5433454590384,q,0.5174608749803156,1595.1318427500082,,,,,,,6,B,2024-07-25_09h18.18.175,EPIDM,2023.1.2,59.94645269905009,
9910.jpg,6940.jpg,2 Points,2 Points,540 points,PS2_L9.csv,,,,,,,,,,,,,,,,,,,,,,,,,,,,,0,8,8,8,0,22,22,22,,,,,,,,,,,,,,,,,,,1599.3668975839391,p,0.5653952090069652,1599.9984879590338,,,,,,,6,B,2024-07-25_09h18.18.175,EPIDM,2023.1.2,59.94645269905009,
9480.jpg,9250.jpg,0 Points,0 Points,540 points,PS2_L9.csv,,,,,,,,,,,,,,,,,,,,,,,,,,,,,0,8,8,8,0,23,23,23,,,,,,,,,,,,,,,,,,,1604.2415114169708,p,0.9553889589151368,1605.2653512089746,,,1615.7621480840025,space,8.37744708394166,,6,B,2024-07-25_09h18.18.175,EPIDM,2023.1.2,59.94645269905009,
1660.jpg,2840.jpg,2 Points,2 Points,542 points,PS2_L10.csv,,,,,,,,,,,,,,,,,,,,,,,,,,,,,0,9,9,9,0,0,0,0,,,,,,,,,,,,,,,,,,,1627.464225542033,p,0.6624969580443576,1628.198731084005,,,,,,,6,B,2024-07-25_09h18.18.175,EPIDM,2023.1.2,59.94645269905009,
2691.jpg,7640.jpg,0 Points,0 Points,542 points,PS2_L10.csv,,,,,,,,,,,,,,,,,,,,,,,,,,,,,0,9,9,9,0,1,1,1,,,,,,,,,,,,,,,,,,,1632.4450968749588,p,1.1035657919710502,1633.613722500042,0,1.4904612919781357,,,,,6,B,2024-07-25_09h18.18.175,EPIDM,2023.1.2,59.94645269905009,
9180.jpg,9046.jpg,3 Points,3 Points,545 points,PS2_L10.csv,,,,,,,,,,,,,,,,,,,,,,,,,,,,,0,9,9,9,0,2,2,2,,,,,,,,,,,,,,,,,,,1639.4087503750343,q,1.4669851660728455,1640.9584927499527,,,,,,,6,B,2024-07-25_09h18.18.175,EPIDM,2023.1.2,59.94645269905009,
8041.jpg,2271.jpg,2 Points,2 Points,547 points,PS2_L10.csv,,,,,,,,,,,,,,,,,,,,,,,,,,,,,0,9,9,9,0,3,3,3,,,,,,,,,,,,,,,,,,,1645.1923662089976,q,0.9141839169897139,1646.183132541948,,,,,,,6,B,2024-07-25_09h18.18.175,EPIDM,2023.1.2,59.94645269905009,
1661.jpg,1321.jpg,3 Points,3 Points,550 points,PS2_L10.csv,,,,,,,,,,,,,,,,,,,,,,,,,,,,,0,9,9,9,0,4,4,4,,,,,,,,,,,,,,,,,,,1650.4182107090019,q,0.6331123749259859,1651.1159002919449,,,,,,,6,B,2024-07-25_09h18.18.175,EPIDM,2023.1.2,59.94645269905009,
9430.jpg,3010.jpg,5 Points,5 Points,555 points,PS2_L10.csv,,,,,,,,,,,,,,,,,,,,,,,,,,,,,0,9,9,9,0,5,5,5,,,,,,,,,,,,,,,,,,,1655.3590107499622,q,0.5638419579481706,1655.9811353340046,,,,,,,6,B,2024-07-25_09h18.18.175,EPIDM,2023.1.2,59.94645269905009,
2616.jpg,7238.jpg,4 Points,4 Points,559 points,PS2_L10.csv,,,,,,,,,,,,,,,,,,,,,,,,,,,,,0,9,9,9,0,6,6,6,,,,,,,,,,,,,,,,,,,1660.2446647499455,q,0.6951369169401005,1661.0058278340148,,,,,,,6,B,2024-07-25_09h18.18.175,EPIDM,2023.1.2,59.94645269905009,
9470.jpg,9400.jpg,3 Points,3 Points,562 points,PS2_L10.csv,,,,,,,,,,,,,,,,,,,,,,,,,,,,,0,9,9,9,0,7,7,7,,,,,,,,,,,,,,,,,,,1665.2525077919709,q,0.8302758330246434,1666.1488893750357,,,,,,,6,B,2024-07-25_09h18.18.175,EPIDM,2023.1.2,59.94645269905009,
8260.jpg,8280.jpg,3 Points,3 Points,565 points,PS2_L10.csv,,,,,,,,,,,,,,,,,,,,,,,,,,,,,0,9,9,9,0,8,8,8,,,,,,,,,,,,,,,,,,,1670.3943768750178,p,0.7138347920263186,1671.1692294590175,,,,,,,6,B,2024-07-25_09h18.18.175,EPIDM,2023.1.2,59.94645269905009,
9230.jpg,9181.jpg,0 Points,0 Points,565 points,PS2_L10.csv,,,,,,,,,,,,,,,,,,,,,,,,,,,,,0,9,9,9,0,9,9,9,,,,,,,,,,,,,,,,,,,1675.4225422920426,q,0.6685405409662053,1676.1487248749472,,,,,,,6,B,2024-07-25_09h18.18.175,EPIDM,2023.1.2,59.94645269905009,
6834.jpg,9120.jpg,5 Points,5 Points,570 points,PS2_L10.csv,,,,,,,,,,,,,,,,,,,,,,,,,,,,,0,9,9,9,0,10,10,10,,,,,,,,,,,,,,,,,,,1680.4028094169917,p,0.9112279169494286,1681.371992041939,,,,,,,6,B,2024-07-25_09h18.18.175,EPIDM,2023.1.2,59.94645269905009,
2440.jpg,7351.jpg,4 Points,4 Points,574 points,PS2_L10.csv,,,,,,,,,,,,,,,,,,,,,,,,,,,,,0,9,9,9,0,11,11,11,,,,,,,,,,,,,,,,,,,1685.6438926670235,p,0.6154037499800324,1686.3387049590237,,,,,,,6,B,2024-07-25_09h18.18.175,EPIDM,2023.1.2,59.94645269905009,
9280.jpg,9390.jpg,1 Point,1 Point,575 points,PS2_L10.csv,,,,,,,,,,,,,,,,,,,,,,,,,,,,,0,9,9,9,0,12,12,12,,,,,,,,,,,,,,,,,,,1690.5763543340145,p,0.515391124994494,1691.1772737089777,,,,,,,6,B,2024-07-25_09h18.18.175,EPIDM,2023.1.2,59.94645269905009,
7186.jpg,9182.jpg,2 Points,2 Points,577 points,PS2_L10.csv,,,,,,,,,,,,,,,,,,,,,,,,,,,,,0,9,9,9,0,13,13,13,,,,,,,,,,,,,,,,,,,1695.416301124962,q,0.5142992499750108,1696.0179624169832,2,1.2798998329089954,,,,,6,B,2024-07-25_09h18.18.175,EPIDM,2023.1.2,59.94645269905009,
7820.jpg,1121.jpg,0 Points,0 Points,577 points,PS2_L10.csv,,,,,,,,,,,,,,,,,,,,,,,,,,,,,0,9,9,9,0,14,14,14,,,,,,,,,,,,,,,,,,,1701.6021283749724,q,0.879663374973461,1702.5554939589929,,,,,,,6,B,2024-07-25_09h18.18.175,EPIDM,2023.1.2,59.94645269905009,
1110.jpg,9331.jpg,2 Points,2 Points,579 points,PS2_L10.csv,,,,,,,,,,,,,,,,,,,,,,,,,,,,,0,9,9,9,0,15,15,15,,,,,,,,,,,,,,,,,,,1706.7878857499454,p,0.6143925829092041,1707.477282625041,,,,,,,6,B,2024-07-25_09h18.18.175,EPIDM,2023.1.2,59.94645269905009,
9001.jpg,9620.jpg,1 Point,1 Point,580 points,PS2_L10.csv,,,,,,,,,,,,,,,,,,,,,,,,,,,,,0,9,9,9,0,16,16,16,,,,,,,,,,,,,,,,,,,1711.716808917001,p,1.0292620409745723,1712.8259546669433,,,,,,,6,B,2024-07-25_09h18.18.175,EPIDM,2023.1.2,59.94645269905009,
5535.jpg,8210.jpg,3 Points,3 Points,583 points,PS2_L10.csv,,,,,,,,,,,,,,,,,,,,,,,,,,,,,0,9,9,9,0,17,17,17,,,,,,,,,,,,,,,,,,,1717.0545941250166,p,0.7231328339548782,1717.8551741249394,,,,,,,6,B,2024-07-25_09h18.18.175,EPIDM,2023.1.2,59.94645269905009,
7950.jpg,7187.jpg,1 Point,1 Point,584 points,PS2_L10.csv,,,,,,,,,,,,,,,,,,,,,,,,,,,,,0,9,9,9,0,18,18,18,,,,,,,,,,,,,,,,,,,1722.0958681249758,p,0.9773285408737138,1723.1442197089782,,,,,,,6,B,2024-07-25_09h18.18.175,EPIDM,2023.1.2,59.94645269905009,
3250.jpg,A053.jpg,3 Points,3 Points,587 points,PS2_L10.csv,,,,,,,,,,,,,,,,,,,,,,,,,,,,,0,9,9,9,0,19,19,19,,,,,,,,,,,,,,,,,,,1727.3958845840534,p,0.3253120839362964,1727.8204911249923,,,,,,,6,B,2024-07-25_09h18.18.175,EPIDM,2023.1.2,59.94645269905009,
2205.jpg,3053.jpg,4 Points,4 Points,591 points,PS2_L10.csv,,,,,,,,,,,,,,,,,,,,,,,,,,,,,0,9,9,9,0,20,20,20,,,,,,,,,,,,,,,,,,,1732.0260474589886,q,0.3193675420479849,1732.4473095419817,,,,,,,6,B,2024-07-25_09h18.18.175,EPIDM,2023.1.2,59.94645269905009,
5594.jpg,5750.jpg,5 Points,5 Points,596 points,PS2_L10.csv,,,,,,,,,,,,,,,,,,,,,,,,,,,,,0,9,9,9,0,21,21,21,,,,,,,,,,,,,,,,,,,1736.6753428339725,p,0.47756191599182785,1737.2474576249951,,,,,,,6,B,2024-07-25_09h18.18.175,EPIDM,2023.1.2,59.94645269905009,
6900.jpg,8531.jpg,4 Points,4 Points,600 points,PS2_L10.csv,,,,,,,,,,,,,,,,,,,,,,,,,,,,,0,9,9,9,0,22,22,22,,,,,,,,,,,,,,,,,,,1741.4830240419833,p,0.8855546249542385,1742.4379708749475,,,,,,,6,B,2024-07-25_09h18.18.175,EPIDM,2023.1.2,59.94645269905009,
1019.jpg,2120.jpg,0 Points,0 Points,600 points,PS2_L10.csv,,,,,,,,,,,,,,,,,,,,,,,,,,,,,0,9,9,9,0,23,23,23,,,,,,,,,,,,,,,,,,,1746.6753897919552,p,0.36511150002479553,1747.1100309169851,,,1757.5689280000515,space,6.143572665983811,,6,B,2024-07-25_09h18.18.175,EPIDM,2023.1.2,59.94645269905009,
