L_Scene,R_Scene,Points_L,Points_R,PtTotal,blockFile,Instructions_Loop.thisRepN,Instructions_Loop.thisTrialN,Instructions_Loop.thisN,Instructions_Loop.thisIndex,Redo_Instructions_Loop.thisRepN,Redo_Instructions_Loop.thisTrialN,Redo_Instructions_Loop.thisN,Redo_Instructions_Loop.thisIndex,Practice_Encoding_Loop.thisRepN,Practice_Encoding_Loop.thisTrialN,Practice_Encoding_Loop.thisN,Practice_Encoding_Loop.thisIndex,Practice_Response_Fail_Loop.thisRepN,Practice_Response_Fail_Loop.thisTrialN,Practice_Response_Fail_Loop.thisN,Practice_Response_Fail_Loop.thisIndex,Practice_FB_Loop.thisRepN,Practice_FB_Loop.thisTrialN,Practice_FB_Loop.thisN,Practice_FB_Loop.thisIndex,Practice_Attention_Loop.thisRepN,Practice_Attention_Loop.thisTrialN,Practice_Attention_Loop.thisN,Practice_Attention_Loop.thisIndex,Practice_EncBrk_Loop.thisRepN,Practice_EncBrk_Loop.thisTrialN,Practice_EncBrk_Loop.thisN,Practice_EncBrk_Loop.thisIndex,Encoding_Loop.thisRepN,Encoding_Loop.thisTrialN,Encoding_Loop.thisN,Encoding_Loop.thisIndex,EncStim_Loop.thisRepN,EncStim_Loop.thisTrialN,EncStim_Loop.thisN,EncStim_Loop.thisIndex,Response_Fail_Loop.thisRepN,Response_Fail_Loop.thisTrialN,Response_Fail_Loop.thisN,Response_Fail_Loop.thisIndex,FB_Loop.thisRepN,FB_Loop.thisTrialN,FB_Loop.thisN,FB_Loop.thisIndex,Attention_Loop.thisRepN,Attention_Loop.thisTrialN,Attention_Loop.thisN,Attention_Loop.thisIndex,EncBrk_Loop.thisRepN,EncBrk_Loop.thisTrialN,EncBrk_Loop.thisN,EncBrk_Loop.thisIndex,Transition_Enc.keys,Transition_Enc.rt,Encoding_Resp.started,Encoding_Resp.keys,Encoding_Resp.rt,R_Point_FB_Stim.started,Encoding_Resp.stopped,Attn_resp.keys,Attn_resp.rt,Progress_Tracker.started,EncBrk_Resp.keys,EncBrk_Resp.rt,participant,Group,date,expName,psychopyVersion,frameRate,
,,,,,,,,,,,,,,,,,,,,,,,,,,,,,,,,,,,,,,,,,,,,,,,,,,,,,,,,,,space,5.896822458016686,,,,,,,,,,,270868,A,2024-07-25_14h17.30.285,EPIDM,2023.1.2,None,
A060.jpg,F041.jpg,5 Points,5 Points,5 Points,,,,,,,,,,0,0,0,0,,,,,,,,,,,,,,,,,,,,,,,,,,,,,,,,,,,,,,,,,,,287.09455954201985,p,3.460370291955769,290.7016717089573,,,,,,,270868,A,2024-07-25_14h17.30.285,EPIDM,2023.1.2,None,
O161.jpg,1812.jpg,2 Points,2 Points,7 Points,,,,,,,,,,0,1,1,1,,,,,,,,,,,,,,,,,,,,,,,,,,,,,,,,,,,,,,,,,,,294.8745182090206,p,1.7211323750671,296.7438508749474,,,,,,,270868,A,2024-07-25_14h17.30.285,EPIDM,2023.1.2,None,
O013.jpg,A001.jpg,3 Points,3 Points,10 Points,,,,,,,,,,0,2,2,2,,,,,,,,,,,,,,,,,,,,,,,,,,,,,,,,,,,,,,,,,,,300.90774154197425,None,,,304.6124791249167,,,,,,270868,A,2024-07-25_14h17.30.285,EPIDM,2023.1.2,None,
P036.jpg,F273.jpg,5 Points,5 Points,15 Points,,,,,,,,,,0,3,3,3,,,,,,,,,,,,,,,,,,,,,,,,,,,,,,,,,,,,,,,,,,,308.40237216698006,p,1.906473624985665,310.48440074990503,,,,,,,270868,A,2024-07-25_14h17.30.285,EPIDM,2023.1.2,None,
L130.jpg,2393.jpg,0 Points,0 Points,15 Points,,,,,,,,,,0,4,4,4,,,,,,,,,,,,,,,,,,,,,,,,,,,,,,,,,,,,,,,,,,,314.62022366700694,p,1.2785014170221984,316.0379847919103,,0,6.32550000003539,,,,270868,A,2024-07-25_14h17.30.285,EPIDM,2023.1.2,None,
F279.jpg,P033.jpg,3 Points,3 Points,18 Points,,,,,,,,,,0,5,5,5,,,,,,,,,,,,,,,,,,,,,,,,,,,,,,,,,,,,,,,,,,,326.6442710419651,q,2.4228785830782726,329.2112479999196,,,,,,,270868,A,2024-07-25_14h17.30.285,EPIDM,2023.1.2,None,
A104.jpg,2593.jpg,2 Points,2 Points,20 Points,,,,,,,,,,0,6,6,6,,,,,,,,,,,,,,,,,,,,,,,,,,,,,,,,,,,,,,,,,,,333.3889559999807,q,1.5488424580544233,335.0804602919379,,,,,,,270868,A,2024-07-25_14h17.30.285,EPIDM,2023.1.2,None,
2598.jpg,2605.jpg,0 Points,0 Points,20 Points,,,,,,,,,,0,7,7,7,,,,,,,,,,,,,,,,,,,,,,,,,,,,,,,,,,,,,,,,,,,339.25477454194333,q,2.6995243340497836,342.0209475000156,,,,,,,270868,A,2024-07-25_14h17.30.285,EPIDM,2023.1.2,None,
L005.jpg,O011.jpg,1 Points,1 Points,21 Points,,,,,,,,,,0,8,8,8,,,,,,,,,,,,,,,,,,,,,,,,,,,,,,,,,,,,,,,,,,,346.26477820891887,p,1.8093725001672283,348.2139382089954,,,,,,,270868,A,2024-07-25_14h17.30.285,EPIDM,2023.1.2,None,
8186.jpg,F078.jpg,2 Points,2 Points,23 Points,,,,,,,,,,0,9,9,9,,,,,,,,,,,,,,,,,,,,,,,,,,,,,,,,,,,,,,,,,,,352.3938930419972,q,1.0643827080493793,353.6010290419217,,2,6.029635792132467,369.92929491691757,space,30.751982750138268,270868,A,2024-07-25_14h17.30.285,EPIDM,2023.1.2,None,
,,,,,,,,,,,,,,,,,,,,,,,,,,,,,,,,,,,,,,,,,,,,,,,,,,,,,,,,,,space,3.4008365001063794,,,,,,,,,,,270868,A,2024-07-25_14h17.30.285,EPIDM,2023.1.2,None,
1019.jpg,2120.jpg,0 Points,0 Points,0 Points,PS1_L1.csv,,,,,,,,,,,,,,,,,,,,,,,,,,,,,0,0,0,0,0,0,0,0,,,,,,,,,,,,,,,,,,,415.1663909169147,q,1.7398684590589255,417.02143733401317,,,,,,,270868,A,2024-07-25_14h17.30.285,EPIDM,2023.1.2,None,
6900.jpg,8531.jpg,4 Points,4 Points,4 Points,PS1_L1.csv,,,,,,,,,,,,,,,,,,,,,,,,,,,,,0,0,0,0,0,1,1,1,,,,,,,,,,,,,,,,,,,421.21494712494314,p,1.378104375093244,422.6747523340164,,4,2.977484333096072,,,,270868,A,2024-07-25_14h17.30.285,EPIDM,2023.1.2,None,
5594.jpg,5750.jpg,5 Points,5 Points,9 Points,PS1_L1.csv,,,,,,,,,,,,,,,,,,,,,,,,,,,,,0,0,0,0,0,2,2,2,,,,,,,,,,,,,,,,,,,429.96235233393963,q,1.2769481670111418,431.3153371249791,,,,,,,270868,A,2024-07-25_14h17.30.285,EPIDM,2023.1.2,None,
2205.jpg,3053.jpg,4 Points,4 Points,13 Points,PS1_L1.csv,,,,,,,,,,,,,,,,,,,,,,,,,,,,,0,0,0,0,0,3,3,3,,,,,,,,,,,,,,,,,,,435.5482969589066,q,1.6921097500016913,437.3093779999763,,,,,,,270868,A,2024-07-25_14h17.30.285,EPIDM,2023.1.2,None,
3250.jpg,A053.jpg,3 Points,3 Points,16 Points,PS1_L1.csv,,,,,,,,,,,,,,,,,,,,,,,,,,,,,0,0,0,0,0,4,4,4,,,,,,,,,,,,,,,,,,,441.5480690000113,p,2.0924955420196056,443.7448847090127,,,,,,,270868,A,2024-07-25_14h17.30.285,EPIDM,2023.1.2,None,
7950.jpg,7187.jpg,1 Point,1 Point,17 Points,PS1_L1.csv,,,,,,,,,,,,,,,,,,,,,,,,,,,,,0,0,0,0,0,5,5,5,,,,,,,,,,,,,,,,,,,447.944568292005,q,1.6632987080374733,449.719326084014,,,,,,,270868,A,2024-07-25_14h17.30.285,EPIDM,2023.1.2,None,
5535.jpg,8210.jpg,3 Points,3 Points,20 Points,PS1_L1.csv,,,,,,,,,,,,,,,,,,,,,,,,,,,,,0,0,0,0,0,6,6,6,,,,,,,,,,,,,,,,,,,453.9234312499175,p,1.596204583067447,455.6028669589432,,,,,,,270868,A,2024-07-25_14h17.30.285,EPIDM,2023.1.2,None,
9001.jpg,9620.jpg,1 Point,1 Point,21 Points,PS1_L1.csv,,,,,,,,,,,,,,,,,,,,,,,,,,,,,0,0,0,0,0,7,7,7,,,,,,,,,,,,,,,,,,,459.8548887500074,q,2.7458506660768762,462.6870019589551,,,,,,,270868,A,2024-07-25_14h17.30.285,EPIDM,2023.1.2,None,
1110.jpg,9331.jpg,2 Points,2 Points,23 Points,PS1_L1.csv,,,,,,,,,,,,,,,,,,,,,,,,,,,,,0,0,0,0,0,8,8,8,,,,,,,,,,,,,,,,,,,466.9110328339739,p,0.7602507920237258,467.7542772089364,,,,,,,270868,A,2024-07-25_14h17.30.285,EPIDM,2023.1.2,None,
7820.jpg,1121.jpg,0 Points,0 Points,23 Points,PS1_L1.csv,,,,,,,,,,,,,,,,,,,,,,,,,,,,,0,0,0,0,0,9,9,9,,,,,,,,,,,,,,,,,,,471.9890875419369,p,0.8424405830446631,472.91103737498634,,,,,,,270868,A,2024-07-25_14h17.30.285,EPIDM,2023.1.2,None,
7186.jpg,9182.jpg,2 Points,2 Points,25 Points,PS1_L1.csv,,,,,,,,,,,,,,,,,,,,,,,,,,,,,0,0,0,0,0,10,10,10,,,,,,,,,,,,,,,,,,,477.1476123749744,q,1.2111242499668151,478.4377161669545,,,,,,,270868,A,2024-07-25_14h17.30.285,EPIDM,2023.1.2,None,
9280.jpg,9390.jpg,1 Point,1 Point,26 Points,PS1_L1.csv,,,,,,,,,,,,,,,,,,,,,,,,,,,,,0,0,0,0,0,11,11,11,,,,,,,,,,,,,,,,,,,482.6660081249429,q,1.7413256249856204,484.4920100419549,,,,,,,270868,A,2024-07-25_14h17.30.285,EPIDM,2023.1.2,None,
2440.jpg,7351.jpg,4 Points,4 Points,30 Points,PS1_L1.csv,,,,,,,,,,,,,,,,,,,,,,,,,,,,,0,0,0,0,0,12,12,12,,,,,,,,,,,,,,,,,,,488.7233211249113,q,0.8682612091070041,489.6670828339411,,,,,,,270868,A,2024-07-25_14h17.30.285,EPIDM,2023.1.2,None,
6834.jpg,9120.jpg,5 Points,5 Points,35 Points,PS1_L1.csv,,,,,,,,,,,,,,,,,,,,,,,,,,,,,0,0,0,0,0,13,13,13,,,,,,,,,,,,,,,,,,,493.89468170900363,q,2.3208398750284687,496.2867961250013,,5,2.5364057910628617,,,,270868,A,2024-07-25_14h17.30.285,EPIDM,2023.1.2,None,
9230.jpg,9181.jpg,0 Points,0 Points,35 Points,PS1_L1.csv,,,,,,,,,,,,,,,,,,,,,,,,,,,,,0,0,0,0,0,14,14,14,,,,,,,,,,,,,,,,,,,503.12500641692895,p,1.8488200841238722,505.0382187499199,,,,,,,270868,A,2024-07-25_14h17.30.285,EPIDM,2023.1.2,None,
8260.jpg,8280.jpg,3 Points,3 Points,38 Points,PS1_L1.csv,,,,,,,,,,,,,,,,,,,,,,,,,,,,,0,0,0,0,0,15,15,15,,,,,,,,,,,,,,,,,,,509.2826623339206,q,0.5799071250949055,509.93265716696624,,,,,,,270868,A,2024-07-25_14h17.30.285,EPIDM,2023.1.2,None,
9470.jpg,9400.jpg,3 Points,3 Points,41 Points,PS1_L1.csv,,,,,,,,,,,,,,,,,,,,,,,,,,,,,0,0,0,0,0,16,16,16,,,,,,,,,,,,,,,,,,,514.1767459169496,q,1.3329386671539396,515.5733494169544,,,,,,,270868,A,2024-07-25_14h17.30.285,EPIDM,2023.1.2,None,
2616.jpg,7238.jpg,4 Points,4 Points,45 Points,PS1_L1.csv,,,,,,,,,,,,,,,,,,,,,,,,,,,,,0,0,0,0,0,17,17,17,,,,,,,,,,,,,,,,,,,519.8265525419265,p,0.5954630000051111,520.4925675839186,,,,,,,270868,A,2024-07-25_14h17.30.285,EPIDM,2023.1.2,None,
9430.jpg,3010.jpg,5 Points,5 Points,50 Points,PS1_L1.csv,,,,,,,,,,,,,,,,,,,,,,,,,,,,,0,0,0,0,0,18,18,18,,,,,,,,,,,,,,,,,,,524.7323368339567,q,1.2579125000629574,526.0613965420052,,,,,,,270868,A,2024-07-25_14h17.30.285,EPIDM,2023.1.2,None,
1661.jpg,1321.jpg,3 Points,3 Points,53 Points,PS1_L1.csv,,,,,,,,,,,,,,,,,,,,,,,,,,,,,0,0,0,0,0,19,19,19,,,,,,,,,,,,,,,,,,,530.2985687499167,p,1.8116442920872942,532.1766246249899,,,,,,,270868,A,2024-07-25_14h17.30.285,EPIDM,2023.1.2,None,
8041.jpg,2271.jpg,2 Points,2 Points,55 Points,PS1_L1.csv,,,,,,,,,,,,,,,,,,,,,,,,,,,,,0,0,0,0,0,20,20,20,,,,,,,,,,,,,,,,,,,536.4309676249977,q,1.4317440000595525,537.9324932089075,,,,,,,270868,A,2024-07-25_14h17.30.285,EPIDM,2023.1.2,None,
9180.jpg,9046.jpg,3 Points,3 Points,58 Points,PS1_L1.csv,,,,,,,,,,,,,,,,,,,,,,,,,,,,,0,0,0,0,0,21,21,21,,,,,,,,,,,,,,,,,,,542.1798768750159,p,0.8743872081395239,543.1183144169627,,,,,,,270868,A,2024-07-25_14h17.30.285,EPIDM,2023.1.2,None,
2691.jpg,7640.jpg,0 Points,0 Points,58 Points,PS1_L1.csv,,,,,,,,,,,,,,,,,,,,,,,,,,,,,0,0,0,0,0,22,22,22,,,,,,,,,,,,,,,,,,,547.3589007089613,q,0.6307559170527384,548.052386916941,,,,,,,270868,A,2024-07-25_14h17.30.285,EPIDM,2023.1.2,None,
1660.jpg,2840.jpg,2 Points,2 Points,60 Points,PS1_L1.csv,,,,,,,,,,,,,,,,,,,,,,,,,,,,,0,0,0,0,0,23,23,23,,,,,,,,,,,,,,,,,,,552.2894212499959,p,1.0046627920819446,553.3613351249369,,,,563.8466659169644,space,9.007030750042759,270868,A,2024-07-25_14h17.30.285,EPIDM,2023.1.2,None,
9480.jpg,9250.jpg,0 Points,0 Points,60 Points,PS1_L2.csv,,,,,,,,,,,,,,,,,,,,,,,,,,,,,0,1,1,1,0,0,0,0,,,,,,,,,,,,,,,,,,,576.1635582919698,p,0.8426589170703664,577.0686581669142,,,,,,,270868,A,2024-07-25_14h17.30.285,EPIDM,2023.1.2,None,
9910.jpg,6940.jpg,2 Points,2 Points,62 Points,PS1_L2.csv,,,,,,,,,,,,,,,,,,,,,,,,,,,,,0,1,1,1,0,1,1,1,,,,,,,,,,,,,,,,,,,581.3044291249244,q,0.6213684170506895,581.9892915419769,,2,2.8341812080470845,,,,270868,A,2024-07-25_14h17.30.285,EPIDM,2023.1.2,None,
4535.jpg,1811.jpg,1 Point,1 Point,63 Points,PS1_L2.csv,,,,,,,,,,,,,,,,,,,,,,,,,,,,,0,1,1,1,0,2,2,2,,,,,,,,,,,,,,,,,,,589.1412689170102,q,0.8557161249918863,590.0684631669428,,,,,,,270868,A,2024-07-25_14h17.30.285,EPIDM,2023.1.2,None,
2020.jpg,1947.jpg,5 Points,5 Points,68 Points,PS1_L2.csv,,,,,,,,,,,,,,,,,,,,,,,,,,,,,0,1,1,1,0,3,3,3,,,,,,,,,,,,,,,,,,,594.3119865419576,p,0.6289976250845939,595.0077436249703,,,,,,,270868,A,2024-07-25_14h17.30.285,EPIDM,2023.1.2,None,
9160.jpg,1200.jpg,4 Points,4 Points,72 Points,PS1_L2.csv,,,,,,,,,,,,,,,,,,,,,,,,,,,,,0,1,1,1,0,4,4,4,,,,,,,,,,,,,,,,,,,599.2417134999996,q,0.5954753330443054,599.9085132499458,,,,,,,270868,A,2024-07-25_14h17.30.285,EPIDM,2023.1.2,None,
9520.jpg,1931.jpg,3 Points,3 Points,75 Points,PS1_L2.csv,,,,,,,,,,,,,,,,,,,,,,,,,,,,,0,1,1,1,0,5,5,5,,,,,,,,,,,,,,,,,,,604.1478974589845,p,0.5457383750472218,604.7611253339564,,,,,,,270868,A,2024-07-25_14h17.30.285,EPIDM,2023.1.2,None,
7830.jpg,2499.jpg,3 Points,3 Points,78 Points,PS1_L2.csv,,,,,,,,,,,,,,,,,,,,,,,,,,,,,0,1,1,1,0,6,6,6,,,,,,,,,,,,,,,,,,,609.0067122499458,q,0.8466807920485735,609.9114688339178,,,,,,,270868,A,2024-07-25_14h17.30.285,EPIDM,2023.1.2,None,
6830.jpg,6212.jpg,4 Points,4 Points,82 Points,PS1_L2.csv,,,,,,,,,,,,,,,,,,,,,,,,,,,,,0,1,1,1,0,7,7,7,,,,,,,,,,,,,,,,,,,614.15896766691,p,0.4368481660494581,614.6624980840134,,,,,,,270868,A,2024-07-25_14h17.30.285,EPIDM,2023.1.2,None,
7285.jpg,4233.jpg,5 Points,5 Points,87 Points,PS1_L2.csv,,,,,,,,,,,,,,,,,,,,,,,,,,,,,0,1,1,1,0,8,8,8,,,,,,,,,,,,,,,,,,,618.9049244589405,p,0.6362262080656365,619.6128222090192,,,,,,,270868,A,2024-07-25_14h17.30.285,EPIDM,2023.1.2,None,
1740.jpg,7480.jpg,0 Points,0 Points,87 Points,PS1_L2.csv,,,,,,,,,,,,,,,,,,,,,,,,,,,,,0,1,1,1,0,9,9,9,,,,,,,,,,,,,,,,,,,623.8515330839437,q,0.42512650007847697,624.3475534169702,,,,,,,270868,A,2024-07-25_14h17.30.285,EPIDM,2023.1.2,None,
7380.jpg,1220.jpg,1 Point,1 Point,88 Points,PS1_L2.csv,,,,,,,,,,,,,,,,,,,,,,,,,,,,,0,1,1,1,0,10,10,10,,,,,,,,,,,,,,,,,,,628.5789268749068,p,0.4583153750281781,629.0930067499867,,,,,,,270868,A,2024-07-25_14h17.30.285,EPIDM,2023.1.2,None,
3061.jpg,2717.jpg,4 Points,4 Points,92 Points,PS1_L2.csv,,,,,,,,,,,,,,,,,,,,,,,,,,,,,0,1,1,1,0,11,11,11,,,,,,,,,,,,,,,,,,,633.3374065839453,p,0.46700720908120275,633.8563578749308,,,,,,,270868,A,2024-07-25_14h17.30.285,EPIDM,2023.1.2,None,
5460.jpg,5800.jpg,0 Points,0 Points,92 Points,PS1_L2.csv,,,,,,,,,,,,,,,,,,,,,,,,,,,,,0,1,1,1,0,12,12,12,,,,,,,,,,,,,,,,,,,638.1115005839383,q,0.30905604106374085,638.4973563340027,,,,,,,270868,A,2024-07-25_14h17.30.285,EPIDM,2023.1.2,None,
2215.jpg,2512.jpg,1 Point,1 Point,93 Points,PS1_L2.csv,,,,,,,,,,,,,,,,,,,,,,,,,,,,,0,1,1,1,0,13,13,13,,,,,,,,,,,,,,,,,,,642.737195166992,p,0.3652308750897646,643.1842472499702,,1,1.6267234170809388,,,,270868,A,2024-07-25_14h17.30.285,EPIDM,2023.1.2,None,
3000.jpg,6200.jpg,5 Points,5 Points,98 Points,PS1_L2.csv,,,,,,,,,,,,,,,,,,,,,,,,,,,,,0,1,1,1,0,14,14,14,,,,,,,,,,,,,,,,,,,649.1297154169297,p,0.8425794170470908,650.0486761250068,,,,,,,270868,A,2024-07-25_14h17.30.285,EPIDM,2023.1.2,None,
1945.jpg,2800.jpg,4 Points,4 Points,102 Points,PS1_L2.csv,,,,,,,,,,,,,,,,,,,,,,,,,,,,,0,1,1,1,0,15,15,15,,,,,,,,,,,,,,,,,,,654.2801165839192,q,0.8749892910709605,655.2353186249966,,,,,,,270868,A,2024-07-25_14h17.30.285,EPIDM,2023.1.2,None,
5660.jpg,5201.jpg,0 Points,0 Points,102 Points,PS1_L2.csv,,,,,,,,,,,,,,,,,,,,,,,,,,,,,0,1,1,1,0,16,16,16,,,,,,,,,,,,,,,,,,,659.4634072919143,p,0.41247616708278656,659.9473407500191,,,,,,,270868,A,2024-07-25_14h17.30.285,EPIDM,2023.1.2,None,
3266.jpg,7360.jpg,1 Point,1 Point,103 Points,PS1_L2.csv,,,,,,,,,,,,,,,,,,,,,,,,,,,,,0,1,1,1,0,17,17,17,,,,,,,,,,,,,,,,,,,664.1835268340074,p,0.48333466600161046,664.7484282499645,,,,,,,270868,A,2024-07-25_14h17.30.285,EPIDM,2023.1.2,None,
F149.jpg,3030.jpg,0 Points,0 Points,103 Points,PS1_L2.csv,,,,,,,,,,,,,,,,,,,,,,,,,,,,,0,1,1,1,0,18,18,18,,,,,,,,,,,,,,,,,,,668.982207416906,p,1.0051656250143424,670.091963334009,,,,,,,270868,A,2024-07-25_14h17.30.285,EPIDM,2023.1.2,None,
5410.jpg,1450.jpg,5 Points,5 Points,108 Points,PS1_L2.csv,,,,,,,,,,,,,,,,,,,,,,,,,,,,,0,1,1,1,0,19,19,19,,,,,,,,,,,,,,,,,,,674.2958638339769,q,0.7239605000941083,675.0786783340154,,,,,,,270868,A,2024-07-25_14h17.30.285,EPIDM,2023.1.2,None,
9101.jpg,9571.jpg,2 Points,2 Points,110 Points,PS1_L2.csv,,,,,,,,,,,,,,,,,,,,,,,,,,,,,0,1,1,1,0,20,20,20,,,,,,,,,,,,,,,,,,,679.3289322499186,p,0.6183134160237387,680.0191260419087,,,,,,,270868,A,2024-07-25_14h17.30.285,EPIDM,2023.1.2,None,
9110.jpg,3051.jpg,1 Point,1 Point,111 Points,PS1_L2.csv,,,,,,,,,,,,,,,,,,,,,,,,,,,,,0,1,1,1,0,21,21,21,,,,,,,,,,,,,,,,,,,684.2702630839776,q,1.1166237090947106,685.4596817919519,,,,,,,270868,A,2024-07-25_14h17.30.285,EPIDM,2023.1.2,None,
2100.jpg,7205.jpg,5 Points,5 Points,116 Points,PS1_L2.csv,,,,,,,,,,,,,,,,,,,,,,,,,,,,,0,1,1,1,0,22,22,22,,,,,,,,,,,,,,,,,,,689.6934001250193,p,0.7182660420658067,690.4848403339274,,,,,,,270868,A,2024-07-25_14h17.30.285,EPIDM,2023.1.2,None,
3160.jpg,6210.jpg,1 Point,1 Point,117 Points,PS1_L2.csv,,,,,,,,,,,,,,,,,,,,,,,,,,,,,0,1,1,1,0,23,23,23,,,,,,,,,,,,,,,,,,,694.7232359999325,p,0.6484561250545084,695.4435932089109,,,,705.9165599999251,space,10.51770591607783,270868,A,2024-07-25_14h17.30.285,EPIDM,2023.1.2,None,
7283.jpg,1720.jpg,4 Points,4 Points,121 Points,PS1_L3.csv,,,,,,,,,,,,,,,,,,,,,,,,,,,,,0,2,2,2,0,0,0,0,,,,,,,,,,,,,,,,,,,719.7452467089752,p,2.154916875064373,721.9759093339089,,,,,,,270868,A,2024-07-25_14h17.30.285,EPIDM,2023.1.2,None,
6571.jpg,P237.jpg,2 Points,2 Points,123 Points,PS1_L3.csv,,,,,,,,,,,,,,,,,,,,,,,,,,,,,0,2,2,2,0,1,1,1,,,,,,,,,,,,,,,,,,,726.2097904590191,q,1.2017521670786664,727.5311786669772,,2,2.1581448330543935,,,,270868,A,2024-07-25_14h17.30.285,EPIDM,2023.1.2,None,
6260.jpg,3062.jpg,3 Points,3 Points,126 Points,PS1_L3.csv,,,,,,,,,,,,,,,,,,,,,,,,,,,,,0,2,2,2,0,2,2,2,,,,,,,,,,,,,,,,,,,733.9792043749476,q,0.7114531670231372,734.8102124169236,,,,,,,270868,A,2024-07-25_14h17.30.285,EPIDM,2023.1.2,None,
6150.jpg,2206.jpg,0 Points,0 Points,126 Points,PS1_L3.csv,,,,,,,,,,,,,,,,,,,,,,,,,,,,,0,2,2,2,0,3,3,3,,,,,,,,,,,,,,,,,,,739.0060961669078,q,1.9799986251164228,741.0601239589741,,,,,,,270868,A,2024-07-25_14h17.30.285,EPIDM,2023.1.2,None,
9300.jpg,1050.jpg,4 Points,4 Points,130 Points,PS1_L3.csv,,,,,,,,,,,,,,,,,,,,,,,,,,,,,0,2,2,2,0,4,4,4,,,,,,,,,,,,,,,,,,,745.2925739589846,p,0.3817189580295235,745.7380196249578,,,,,,,270868,A,2024-07-25_14h17.30.285,EPIDM,2023.1.2,None,
F365.jpg,3180.jpg,5 Points,5 Points,135 Points,PS1_L3.csv,,,,,,,,,,,,,,,,,,,,,,,,,,,,,0,2,2,2,0,5,5,5,,,,,,,,,,,,,,,,,,,749.976410958916,p,0.497405375004746,750.5708239169326,,,,,,,270868,A,2024-07-25_14h17.30.285,EPIDM,2023.1.2,None,
2320.jpg,2791.jpg,4 Points,4 Points,139 Points,PS1_L3.csv,,,,,,,,,,,,,,,,,,,,,,,,,,,,,0,2,2,2,0,6,6,6,,,,,,,,,,,,,,,,,,,754.7831410419894,p,0.9467646670527756,755.8317880419781,,,,,,,270868,A,2024-07-25_14h17.30.285,EPIDM,2023.1.2,None,
8311.jpg,4609.jpg,2 Points,2 Points,141 Points,PS1_L3.csv,,,,,,,,,,,,,,,,,,,,,,,,,,,,,0,2,2,2,0,7,7,7,,,,,,,,,,,,,,,,,,,760.0442059169291,q,0.49372741708066314,760.6016646670178,,,,,,,270868,A,2024-07-25_14h17.30.285,EPIDM,2023.1.2,None,
9042.jpg,2753.jpg,0 Points,0 Points,141 Points,PS1_L3.csv,,,,,,,,,,,,,,,,,,,,,,,,,,,,,0,2,2,2,0,8,8,8,,,,,,,,,,,,,,,,,,,764.8503906669794,p,0.3109597919974476,765.2253438339103,,,,,,,270868,A,2024-07-25_14h17.30.285,EPIDM,2023.1.2,None,
5471.jpg,7352.jpg,2 Points,2 Points,143 Points,PS1_L3.csv,,,,,,,,,,,,,,,,,,,,,,,,,,,,,0,2,2,2,0,9,9,9,,,,,,,,,,,,,,,,,,,769.4714432499604,p,0.16161741712130606,769.6953682919266,,,,,,,270868,A,2024-07-25_14h17.30.285,EPIDM,2023.1.2,None,
P222.jpg,9401.jpg,2 Points,2 Points,145 Points,PS1_L3.csv,,,,,,,,,,,,,,,,,,,,,,,,,,,,,0,2,2,2,0,10,10,10,,,,,,,,,,,,,,,,,,,773.9376200420083,p,0.6397508340887725,774.6760776250158,,,,,,,270868,A,2024-07-25_14h17.30.285,EPIDM,2023.1.2,None,
1610.jpg,F203.jpg,0 Points,0 Points,145 Points,PS1_L3.csv,,,,,,,,,,,,,,,,,,,,,,,,,,,,,0,2,2,2,0,11,11,11,,,,,,,,,,,,,,,,,,,778.8843901249347,p,0.6522947500925511,779.6808895419817,,,,,,,270868,A,2024-07-25_14h17.30.285,EPIDM,2023.1.2,None,
9405.jpg,6250.2.jpg,3 Points,3 Points,148 Points,PS1_L3.csv,,,,,,,,,,,,,,,,,,,,,,,,,,,,,0,2,2,2,0,12,12,12,,,,,,,,,,,,,,,,,,,783.8513533339137,p,0.9811914160382003,784.9146873339778,,,,,,,270868,A,2024-07-25_14h17.30.285,EPIDM,2023.1.2,None,
1090.jpg,P217.jpg,5 Points,5 Points,153 Points,PS1_L3.csv,,,,,,,,,,,,,,,,,,,,,,,,,,,,,0,2,2,2,0,13,13,13,,,,,,,,,,,,,,,,,,,789.1514491669368,q,1.113636124995537,790.3790548749967,,5,2.60926741710864,,,,270868,A,2024-07-25_14h17.30.285,EPIDM,2023.1.2,None,
P233.jpg,3060.jpg,1 Point,1 Point,154 Points,PS1_L3.csv,,,,,,,,,,,,,,,,,,,,,,,,,,,,,0,2,2,2,0,14,14,14,,,,,,,,,,,,,,,,,,,797.288132000016,p,1.120896750013344,798.5229719589697,,,,,,,270868,A,2024-07-25_14h17.30.285,EPIDM,2023.1.2,None,
8040.jpg,7185.jpg,1 Point,1 Point,155 Points,PS1_L3.csv,,,,,,,,,,,,,,,,,,,,,,,,,,,,,0,2,2,2,0,15,15,15,,,,,,,,,,,,,,,,,,,802.7133834999986,p,0.42330920905806124,803.2562366250204,,,,,,,270868,A,2024-07-25_14h17.30.285,EPIDM,2023.1.2,None,
6550.jpg,9582.jpg,5 Points,5 Points,160 Points,PS1_L3.csv,,,,,,,,,,,,,,,,,,,,,,,,,,,,,0,2,2,2,0,16,16,16,,,,,,,,,,,,,,,,,,,807.457374208956,p,0.1671694170217961,807.7029406249058,,,,,,,270868,A,2024-07-25_14h17.30.285,EPIDM,2023.1.2,None,
P077.jpg,A041.jpg,1 Point,1 Point,161 Points,PS1_L3.csv,,,,,,,,,,,,,,,,,,,,,,,,,,,,,0,2,2,2,0,17,17,17,,,,,,,,,,,,,,,,,,,811.9472857089713,q,0.6764939579879865,812.7644578339532,,,,,,,270868,A,2024-07-25_14h17.30.285,EPIDM,2023.1.2,None,
4770.jpg,4275.jpg,3 Points,3 Points,164 Points,PS1_L3.csv,,,,,,,,,,,,,,,,,,,,,,,,,,,,,0,2,2,2,0,18,18,18,,,,,,,,,,,,,,,,,,,816.937184624956,q,0.5031545830424875,817.553523916984,,,,,,,270868,A,2024-07-25_14h17.30.285,EPIDM,2023.1.2,None,
9594.jpg,1080.jpg,4 Points,4 Points,168 Points,PS1_L3.csv,,,,,,,,,,,,,,,,,,,,,,,,,,,,,0,2,2,2,0,19,19,19,,,,,,,,,,,,,,,,,,,821.7536858340027,p,1.7425686250207946,823.5904214169132,,,,,,,270868,A,2024-07-25_14h17.30.285,EPIDM,2023.1.2,None,
2606.jpg,2480.jpg,1 Point,1 Point,169 Points,PS1_L3.csv,,,,,,,,,,,,,,,,,,,,,,,,,,,,,0,2,2,2,0,20,20,20,,,,,,,,,,,,,,,,,,,827.823573083966,p,0.11272866604849696,828.0099039169727,,,,,,,270868,A,2024-07-25_14h17.30.285,EPIDM,2023.1.2,None,
1052.jpg,1201.jpg,3 Points,3 Points,172 Points,PS1_L3.csv,,,,,,,,,,,,,,,,,,,,,,,,,,,,,0,2,2,2,0,21,21,21,,,,,,,,,,,,,,,,,,,832.2567031249637,q,1.4244882080238312,833.7488834999967,,,,,,,270868,A,2024-07-25_14h17.30.285,EPIDM,2023.1.2,None,
F369.jpg,3100.jpg,2 Points,2 Points,174 Points,PS1_L3.csv,,,,,,,,,,,,,,,,,,,,,,,,,,,,,0,2,2,2,0,22,22,22,,,,,,,,,,,,,,,,,,,837.9875196670182,q,1.2364318340551108,839.3228466669098,,,,,,,270868,A,2024-07-25_14h17.30.285,EPIDM,2023.1.2,None,
2620.jpg,2594.jpg,0 Points,0 Points,174 Points,PS1_L3.csv,,,,,,,,,,,,,,,,,,,,,,,,,,,,,0,2,2,2,0,23,23,23,,,,,,,,,,,,,,,,,,,843.5281868749298,p,1.3601460000500083,844.982622792013,,,,855.4473999169422,space,106.18938145798165,270868,A,2024-07-25_14h17.30.285,EPIDM,2023.1.2,None,
P019.jpg,F158.jpg,3 Points,3 Points,177 Points,PS1_L4.csv,,,,,,,,,,,,,,,,,,,,,,,,,,,,,0,3,3,3,0,0,0,0,,,,,,,,,,,,,,,,,,,964.9371751250001,p,1.8276210831245407,966.9096131669357,,,,,,,270868,A,2024-07-25_14h17.30.285,EPIDM,2023.1.2,None,
7620.jpg,5395.jpg,1 Point,1 Point,178 Points,PS1_L4.csv,,,,,,,,,,,,,,,,,,,,,,,,,,,,,0,3,3,3,0,1,1,1,,,,,,,,,,,,,,,,,,,971.0797070419649,q,1.885635833023116,973.0656822089804,,1,2.8547584160696715,,,,270868,A,2024-07-25_14h17.30.285,EPIDM,2023.1.2,None,
5970.jpg,3300.jpg,0 Points,0 Points,178 Points,PS1_L4.csv,,,,,,,,,,,,,,,,,,,,,,,,,,,,,0,3,3,3,0,2,2,2,,,,,,,,,,,,,,,,,,,980.1832444169559,q,2.829370792140253,983.0823969999328,,,,,,,270868,A,2024-07-25_14h17.30.285,EPIDM,2023.1.2,None,
5120.jpg,5520.jpg,2 Points,2 Points,180 Points,PS1_L4.csv,,,,,,,,,,,,,,,,,,,,,,,,,,,,,0,3,3,3,0,3,3,3,,,,,,,,,,,,,,,,,,,987.3228267920204,p,1.690325582982041,989.0842275419272,,,,,,,270868,A,2024-07-25_14h17.30.285,EPIDM,2023.1.2,None,
9452.jpg,7184.jpg,4 Points,4 Points,184 Points,PS1_L4.csv,,,,,,,,,,,,,,,,,,,,,,,,,,,,,0,3,3,3,0,4,4,4,,,,,,,,,,,,,,,,,,,993.3224910419667,p,0.9056508749490604,994.3019031250151,,,,,,,270868,A,2024-07-25_14h17.30.285,EPIDM,2023.1.2,None,
6570.1.jpg,9432.jpg,5 Points,5 Points,189 Points,PS1_L4.csv,,,,,,,,,,,,,,,,,,,,,,,,,,,,,0,3,3,3,0,5,5,5,,,,,,,,,,,,,,,,,,,998.5397254999261,p,0.9520566670689732,999.5638770419173,,,,,,,270868,A,2024-07-25_14h17.30.285,EPIDM,2023.1.2,None,
2389.jpg,7320.jpg,0 Points,0 Points,189 Points,PS1_L4.csv,,,,,,,,,,,,,,,,,,,,,,,,,,,,,0,3,3,3,0,6,6,6,,,,,,,,,,,,,,,,,,,1003.8127440419048,q,2.599915541126393,1006.4822018749546,,,,,,,270868,A,2024-07-25_14h17.30.285,EPIDM,2023.1.2,None,
9330.jpg,3015.jpg,5 Points,5 Points,194 Points,PS1_L4.csv,,,,,,,,,,,,,,,,,,,,,,,,,,,,,0,3,3,3,0,7,7,7,,,,,,,,,,,,,,,,,,,1010.7195947089931,q,2.1073194589698687,1012.8964154589921,,,,,,,270868,A,2024-07-25_14h17.30.285,EPIDM,2023.1.2,None,
9560.jpg,3071.jpg,1 Point,1 Point,195 Points,PS1_L4.csv,,,,,,,,,,,,,,,,,,,,,,,,,,,,,0,3,3,3,0,8,8,8,,,,,,,,,,,,,,,,,,,1017.1361180419335,q,1.4192751250229776,1018.6285623339936,,,,,,,270868,A,2024-07-25_14h17.30.285,EPIDM,2023.1.2,None,
5994.jpg,5390.jpg,0 Points,0 Points,195 Points,PS1_L4.csv,,,,,,,,,,,,,,,,,,,,,,,,,,,,,0,3,3,3,0,9,9,9,,,,,,,,,,,,,,,,,,,1022.8758930839831,p,1.5436944160610437,1024.4817273339722,,,,,,,270868,A,2024-07-25_14h17.30.285,EPIDM,2023.1.2,None,
2692.jpg,8231.jpg,4 Points,4 Points,199 Points,PS1_L4.csv,,,,,,,,,,,,,,,,,,,,,,,,,,,,,0,3,3,3,0,10,10,10,,,,,,,,,,,,,,,,,,,1028.726372291916,q,1.284867334063165,1030.082876416971,,,,,,,270868,A,2024-07-25_14h17.30.285,EPIDM,2023.1.2,None,
F174.jpg,9404.jpg,5 Points,5 Points,204 Points,PS1_L4.csv,,,,,,,,,,,,,,,,,,,,,,,,,,,,,0,3,3,3,0,11,11,11,,,,,,,,,,,,,,,,,,,1034.3256522499723,p,0.6781277910340577,1035.1061858750181,,,,,,,270868,A,2024-07-25_14h17.30.285,EPIDM,2023.1.2,None,
8010.jpg,2630.jpg,0 Points,0 Points,204 Points,PS1_L4.csv,,,,,,,,,,,,,,,,,,,,,,,,,,,,,0,3,3,3,0,12,12,12,,,,,,,,,,,,,,,,,,,1039.3138155419147,p,1.0259832080919296,1040.4652609999757,,,,,,,270868,A,2024-07-25_14h17.30.285,EPIDM,2023.1.2,None,
7175.jpg,7490.jpg,2 Points,2 Points,206 Points,PS1_L4.csv,,,,,,,,,,,,,,,,,,,,,,,,,,,,,0,3,3,3,0,13,13,13,,,,,,,,,,,,,,,,,,,1044.6591688339831,q,1.4002217501401901,1046.1380706669297,,2,1.3580695000709966,,,,270868,A,2024-07-25_14h17.30.285,EPIDM,2023.1.2,None,
6561.jpg,1525.jpg,2 Points,2 Points,208 Points,PS1_L4.csv,,,,,,,,,,,,,,,,,,,,,,,,,,,,,0,3,3,3,0,14,14,14,,,,,,,,,,,,,,,,,,,1051.805925124907,q,1.4613229581154883,1053.3441239169333,,,,,,,270868,A,2024-07-25_14h17.30.285,EPIDM,2023.1.2,None,
9070.jpg,9420.jpg,2 Points,2 Points,210 Points,PS1_L4.csv,,,,,,,,,,,,,,,,,,,,,,,,,,,,,0,3,3,3,0,15,15,15,,,,,,,,,,,,,,,,,,,1057.579096667003,p,0.6710276250960305,1058.3172350840177,,,,,,,270868,A,2024-07-25_14h17.30.285,EPIDM,2023.1.2,None,
2516.jpg,8500.jpg,4 Points,4 Points,214 Points,PS1_L4.csv,,,,,,,,,,,,,,,,,,,,,,,,,,,,,0,3,3,3,0,16,16,16,,,,,,,,,,,,,,,,,,,1062.5611009999411,p,0.521674209041521,1063.1555724999635,,,,,,,270868,A,2024-07-25_14h17.30.285,EPIDM,2023.1.2,None,
9140.jpg,2810.jpg,3 Points,3 Points,217 Points,PS1_L4.csv,,,,,,,,,,,,,,,,,,,,,,,,,,,,,0,3,3,3,0,17,17,17,,,,,,,,,,,,,,,,,,,1067.3857478749705,p,0.6893449170747772,1068.1344484589063,,,,,,,270868,A,2024-07-25_14h17.30.285,EPIDM,2023.1.2,None,
7220.jpg,8090.jpg,2 Points,2 Points,219 Points,PS1_L4.csv,,,,,,,,,,,,,,,,,,,,,,,,,,,,,0,3,3,3,0,18,18,18,,,,,,,,,,,,,,,,,,,1072.381301999907,p,0.5331317919772118,1072.9781526669394,,,,,,,270868,A,2024-07-25_14h17.30.285,EPIDM,2023.1.2,None,
2661.jpg,2870.jpg,5 Points,5 Points,224 Points,PS1_L4.csv,,,,,,,,,,,,,,,,,,,,,,,,,,,,,0,3,3,3,0,19,19,19,,,,,,,,,,,,,,,,,,,1077.2150267090183,p,0.48226495808921754,1077.7619778749067,,,,,,,270868,A,2024-07-25_14h17.30.285,EPIDM,2023.1.2,None,
6010.jpg,7361.jpg,2 Points,2 Points,226 Points,PS1_L4.csv,,,,,,,,,,,,,,,,,,,,,,,,,,,,,0,3,3,3,0,20,20,20,,,,,,,,,,,,,,,,,,,1082.0178753749933,p,0.6961990830022842,1082.779133874923,,,,,,,270868,A,2024-07-25_14h17.30.285,EPIDM,2023.1.2,None,
7289.jpg,4534.jpg,0 Points,0 Points,226 Points,PS1_L4.csv,,,,,,,,,,,,,,,,,,,,,,,,,,,,,0,3,3,3,0,21,21,21,,,,,,,,,,,,,,,,,,,1087.0244291250128,p,0.49705633299890906,1087.6055040839128,,,,,,,270868,A,2024-07-25_14h17.30.285,EPIDM,2023.1.2,None,
1310.jpg,3181.jpg,4 Points,4 Points,230 Points,PS1_L4.csv,,,,,,,,,,,,,,,,,,,,,,,,,,,,,0,3,3,3,0,22,22,22,,,,,,,,,,,,,,,,,,,1091.8446562089957,p,0.7339520000386983,1092.6417234169785,,,,,,,270868,A,2024-07-25_14h17.30.285,EPIDM,2023.1.2,None,
2383.jpg,1616.jpg,2 Points,2 Points,232 Points,PS1_L4.csv,,,,,,,,,,,,,,,,,,,,,,,,,,,,,0,3,3,3,0,23,23,23,,,,,,,,,,,,,,,,,,,1096.8808283340186,p,0.1454660000745207,1097.0908222919097,,,,1107.568006958929,space,0.9461787911131978,270868,A,2024-07-25_14h17.30.285,EPIDM,2023.1.2,None,
4510.jpg,2230.jpg,5 Points,5 Points,237 Points,PS1_L5.csv,,,,,,,,,,,,,,,,,,,,,,,,,,,,,0,4,4,4,0,0,0,0,,,,,,,,,,,,,,,,,,,1111.8362469589338,p,1.0552240000106394,1112.9602350839414,,,,,,,270868,A,2024-07-25_14h17.30.285,EPIDM,2023.1.2,None,
A025.jpg,1051.jpg,0 Points,0 Points,237 Points,PS1_L5.csv,,,,,,,,,,,,,,,,,,,,,,,,,,,,,0,4,4,4,0,1,1,1,,,,,,,,,,,,,,,,,,,1117.2015230419347,p,2.3519145420286804,1119.6726252919761,,0,1.5654816251480952,,,,270868,A,2024-07-25_14h17.30.285,EPIDM,2023.1.2,None,
7002.jpg,4660.jpg,4 Points,4 Points,241 Points,PS1_L5.csv,,,,,,,,,,,,,,,,,,,,,,,,,,,,,0,4,4,4,0,2,2,2,,,,,,,,,,,,,,,,,,,1125.5337674169568,None,,,1129.2413739169715,,,,,,270868,A,2024-07-25_14h17.30.285,EPIDM,2023.1.2,None,
2900.jpg,1101.jpg,3 Points,3 Points,244 Points,PS1_L5.csv,,,,,,,,,,,,,,,,,,,,,,,,,,,,,0,4,4,4,0,3,3,3,,,,,,,,,,,,,,,,,,,1133.0338388750097,p,0.5353850000537932,1133.6855445419205,,,,,,,270868,A,2024-07-25_14h17.30.285,EPIDM,2023.1.2,None,
2485.jpg,7350.jpg,0 Points,0 Points,244 Points,PS1_L5.csv,,,,,,,,,,,,,,,,,,,,,,,,,,,,,0,4,4,4,0,4,4,4,,,,,,,,,,,,,,,,,,,1137.883172916947,p,0.23709825007244945,1138.1983129169093,,,,,,,270868,A,2024-07-25_14h17.30.285,EPIDM,2023.1.2,None,
6242.jpg,F034.jpg,4 Points,4 Points,248 Points,PS1_L5.csv,,,,,,,,,,,,,,,,,,,,,,,,,,,,,0,4,4,4,0,5,5,5,,,,,,,,,,,,,,,,,,,1142.4427702919347,p,0.42238279210869223,1142.9733404999133,,,,,,,270868,A,2024-07-25_14h17.30.285,EPIDM,2023.1.2,None,
3170.jpg,6560.jpg,2 Points,2 Points,250 Points,PS1_L5.csv,,,,,,,,,,,,,,,,,,,,,,,,,,,,,0,4,4,4,0,6,6,6,,,,,,,,,,,,,,,,,,,1147.176161875017,p,0.8167382910614833,1148.0654572920175,,,,,,,270868,A,2024-07-25_14h17.30.285,EPIDM,2023.1.2,None,
8033.jpg,7270.jpg,3 Points,3 Points,253 Points,PS1_L5.csv,,,,,,,,,,,,,,,,,,,,,,,,,,,,,0,4,4,4,0,7,7,7,,,,,,,,,,,,,,,,,,,1152.3100101249292,p,0.4430789171019569,1152.8154373340076,,,,,,,270868,A,2024-07-25_14h17.30.285,EPIDM,2023.1.2,None,
2597.jpg,5870.jpg,5 Points,5 Points,258 Points,PS1_L5.csv,,,,,,,,,,,,,,,,,,,,,,,,,,,,,0,4,4,4,0,8,8,8,,,,,,,,,,,,,,,,,,,1157.0621736670146,p,0.5392614580923691,1157.6603760420112,,,,,,,270868,A,2024-07-25_14h17.30.285,EPIDM,2023.1.2,None,
6312.jpg,3230.jpg,2 Points,2 Points,260 Points,PS1_L5.csv,,,,,,,,,,,,,,,,,,,,,,,,,,,,,0,4,4,4,0,9,9,9,,,,,,,,,,,,,,,,,,,1161.9101358340122,p,0.7066576661309227,1162.681731791934,,,,,,,270868,A,2024-07-25_14h17.30.285,EPIDM,2023.1.2,None,
3130.jpg,3500.jpg,4 Points,4 Points,264 Points,PS1_L5.csv,,,,,,,,,,,,,,,,,,,,,,,,,,,,,0,4,4,4,0,10,10,10,,,,,,,,,,,,,,,,,,,1166.9162388339173,p,0.18875454110093415,1167.1722292089835,,,,,,,270868,A,2024-07-25_14h17.30.285,EPIDM,2023.1.2,None,
2749.jpg,7282.jpg,3 Points,3 Points,267 Points,PS1_L5.csv,,,,,,,,,,,,,,,,,,,,,,,,,,,,,0,4,4,4,0,11,11,11,,,,,,,,,,,,,,,,,,,1171.4081425839104,p,0.31943162507377565,1171.8056488749571,,,,,,,270868,A,2024-07-25_14h17.30.285,EPIDM,2023.1.2,None,
5300.jpg,2372.jpg,1 Point,1 Point,268 Points,PS1_L5.csv,,,,,,,,,,,,,,,,,,,,,,,,,,,,,0,4,4,4,0,12,12,12,,,,,,,,,,,,,,,,,,,1176.034540249966,p,0.2936443331418559,1176.4000938750105,,,,,,,270868,A,2024-07-25_14h17.30.285,EPIDM,2023.1.2,None,
6510.jpg,A074.jpg,2 Points,2 Points,270 Points,PS1_L5.csv,,,,,,,,,,,,,,,,,,,,,,,,,,,,,0,4,4,4,0,13,13,13,,,,,,,,,,,,,,,,,,,1180.637536666938,p,0.03564000013284385,1180.7744038749952,,2,1.4297431249869987,,,,270868,A,2024-07-25_14h17.30.285,EPIDM,2023.1.2,None,
2260.jpg,2830.jpg,5 Points,5 Points,275 Points,PS1_L5.csv,,,,,,,,,,,,,,,,,,,,,,,,,,,,,0,4,4,4,0,14,14,14,,,,,,,,,,,,,,,,,,,1186.5151222089771,q,1.4207877080189064,1188.0420632919995,,,,,,,270868,A,2024-07-25_14h17.30.285,EPIDM,2023.1.2,None,
2710.jpg,9252.jpg,1 Point,1 Point,276 Points,PS1_L5.csv,,,,,,,,,,,,,,,,,,,,,,,,,,,,,0,4,4,4,0,15,15,15,,,,,,,,,,,,,,,,,,,1192.2492359589087,p,0.16643983405083418,1192.4781700000167,,,,,,,270868,A,2024-07-25_14h17.30.285,EPIDM,2023.1.2,None,
3064.jpg,3168.jpg,4 Points,4 Points,280 Points,PS1_L5.csv,,,,,,,,,,,,,,,,,,,,,,,,,,,,,0,4,4,4,0,16,16,16,,,,,,,,,,,,,,,,,,,1196.7180184589233,p,0.330349458148703,1197.1133811669424,,,,,,,270868,A,2024-07-25_14h17.30.285,EPIDM,2023.1.2,None,
1640.jpg,5531.jpg,3 Points,3 Points,283 Points,PS1_L5.csv,,,,,,,,,,,,,,,,,,,,,,,,,,,,,0,4,4,4,0,17,17,17,,,,,,,,,,,,,,,,,,,1201.3617383339442,p,0.46150741702876985,1201.9025983749889,,,,,,,270868,A,2024-07-25_14h17.30.285,EPIDM,2023.1.2,None,
3530.jpg,6213.jpg,1 Point,1 Point,284 Points,PS1_L5.csv,,,,,,,,,,,,,,,,,,,,,,,,,,,,,0,4,4,4,0,18,18,18,,,,,,,,,,,,,,,,,,,1206.1317521249875,p,0.8045321250101551,1207.0149906249717,,,,,,,270868,A,2024-07-25_14h17.30.285,EPIDM,2023.1.2,None,
9090.jpg,7580.jpg,3 Points,3 Points,287 Points,PS1_L5.csv,,,,,,,,,,,,,,,,,,,,,,,,,,,,,0,4,4,4,0,19,19,19,,,,,,,,,,,,,,,,,,,1211.2505749169504,p,0.5884236660785973,1211.9101225839695,,,,,,,270868,A,2024-07-25_14h17.30.285,EPIDM,2023.1.2,None,
8230.jpg,2682.jpg,5 Points,5 Points,292 Points,PS1_L5.csv,,,,,,,,,,,,,,,,,,,,,,,,,,,,,0,4,4,4,0,20,20,20,,,,,,,,,,,,,,,,,,,1216.1402415839257,p,0.5320652921218425,1216.7589831670048,,,,,,,270868,A,2024-07-25_14h17.30.285,EPIDM,2023.1.2,None,
9592.jpg,1300.jpg,2 Points,2 Points,294 Points,PS1_L5.csv,,,,,,,,,,,,,,,,,,,,,,,,,,,,,0,4,4,4,0,21,21,21,,,,,,,,,,,,,,,,,,,1220.9976887499215,p,0.9702393329935148,1222.0217049169587,,,,,,,270868,A,2024-07-25_14h17.30.285,EPIDM,2023.1.2,None,
2490.jpg,2590.jpg,4 Points,4 Points,298 Points,PS1_L5.csv,,,,,,,,,,,,,,,,,,,,,,,,,,,,,0,4,4,4,0,22,22,22,,,,,,,,,,,,,,,,,,,1226.2712202499388,p,0.4153592501534149,1226.7597531249048,,,,,,,270868,A,2024-07-25_14h17.30.285,EPIDM,2023.1.2,None,
2190.jpg,7503.jpg,2 Points,2 Points,300 Points,PS1_L5.csv,,,,,,,,,,,,,,,,,,,,,,,,,,,,,0,4,4,4,0,23,23,23,,,,,,,,,,,,,,,,,,,1230.9984753750032,p,0.2735724999802187,1231.335582666914,,,,1241.8129059169441,space,0.8811529580270872,270868,A,2024-07-25_14h17.30.285,EPIDM,2023.1.2,None,
1930.jpg,9008.jpg,1 Point,1 Point,301 Points,PS1_L6.csv,,,,,,,,,,,,,,,,,,,,,,,,,,,,,0,5,5,5,0,0,0,0,,,,,,,,,,,,,,,,,,,1245.997578667011,p,1.6651272079907358,1247.7505043339916,,,,,,,270868,A,2024-07-25_14h17.30.285,EPIDM,2023.1.2,None,
4613.jpg,2720.jpg,4 Points,4 Points,305 Points,PS1_L6.csv,,,,,,,,,,,,,,,,,,,,,,,,,,,,,0,5,5,5,0,1,1,1,,,,,,,,,,,,,,,,,,,1251.9734429999953,p,0.5043989999685436,1252.5579692500178,,4,1.3713743750704452,,,,270868,A,2024-07-25_14h17.30.285,EPIDM,2023.1.2,None,
3280.jpg,9270.jpg,0 Points,0 Points,305 Points,PS1_L6.csv,,,,,,,,,,,,,,,,,,,,,,,,,,,,,0,5,5,5,0,2,2,2,,,,,,,,,,,,,,,,,,,1258.2574469170067,p,0.5161733340937644,1258.8429853339912,,,,,,,270868,A,2024-07-25_14h17.30.285,EPIDM,2023.1.2,None,
6800.jpg,9190.jpg,0 Points,0 Points,305 Points,PS1_L6.csv,,,,,,,,,,,,,,,,,,,,,,,,,,,,,0,5,5,5,0,3,3,3,,,,,,,,,,,,,,,,,,,1263.086159999948,p,0.21665179100818932,1263.3603005419718,,,,,,,270868,A,2024-07-25_14h17.30.285,EPIDM,2023.1.2,None,
5600.jpg,9080.jpg,5 Points,5 Points,310 Points,PS1_L6.csv,,,,,,,,,,,,,,,,,,,,,,,,,,,,,0,5,5,5,0,4,4,4,,,,,,,,,,,,,,,,,,,1267.603830292006,p,0.25829525000881404,1267.9416978749214,,,,,,,270868,A,2024-07-25_14h17.30.285,EPIDM,2023.1.2,None,
P211.jpg,9041.jpg,4 Points,4 Points,314 Points,PS1_L6.csv,,,,,,,,,,,,,,,,,,,,,,,,,,,,,0,5,5,5,0,5,5,5,,,,,,,,,,,,,,,,,,,1272.1703062499873,p,0.9643378331093118,1273.2397385420045,,,,,,,270868,A,2024-07-25_14h17.30.285,EPIDM,2023.1.2,None,
5200.jpg,5020.jpg,0 Points,0 Points,314 Points,PS1_L6.csv,,,,,,,,,,,,,,,,,,,,,,,,,,,,,0,5,5,5,0,6,6,6,,,,,,,,,,,,,,,,,,,1277.4404525000136,p,0.23658275010529906,1277.792085833964,,,,,,,270868,A,2024-07-25_14h17.30.285,EPIDM,2023.1.2,None,
1850.jpg,5623.jpg,5 Points,5 Points,319 Points,PS1_L6.csv,,,,,,,,,,,,,,,,,,,,,,,,,,,,,0,5,5,5,0,7,7,7,,,,,,,,,,,,,,,,,,,1281.9893237089273,p,0.224450167035684,1282.292936792015,,,,,,,270868,A,2024-07-25_14h17.30.285,EPIDM,2023.1.2,None,
9440.jpg,6350.jpg,4 Points,4 Points,323 Points,PS1_L6.csv,,,,,,,,,,,,,,,,,,,,,,,,,,,,,0,5,5,5,0,8,8,8,,,,,,,,,,,,,,,,,,,1286.5306739589432,p,0.6348678329959512,1287.232806624961,,,,,,,270868,A,2024-07-25_14h17.30.285,EPIDM,2023.1.2,None,
5990.jpg,5780.jpg,3 Points,3 Points,326 Points,PS1_L6.csv,,,,,,,,,,,,,,,,,,,,,,,,,,,,,0,5,5,5,0,9,9,9,,,,,,,,,,,,,,,,,,,1291.4852872919291,p,0.33505804103333503,1291.885636958992,,,,,,,270868,A,2024-07-25_14h17.30.285,EPIDM,2023.1.2,None,
6244.jpg,9265.jpg,0 Points,0 Points,326 Points,PS1_L6.csv,,,,,,,,,,,,,,,,,,,,,,,,,,,,,0,5,5,5,0,10,10,10,,,,,,,,,,,,,,,,,,,1296.1297739169095,p,1.0664331670850515,1297.2682960419916,,,,,,,270868,A,2024-07-25_14h17.30.285,EPIDM,2023.1.2,None,
5000.jpg,8180.jpg,4 Points,4 Points,330 Points,PS1_L6.csv,,,,,,,,,,,,,,,,,,,,,,,,,,,,,0,5,5,5,0,11,11,11,,,,,,,,,,,,,,,,,,,1301.515498499968,p,0.0975923330988735,1301.6836689169286,,,,,,,270868,A,2024-07-25_14h17.30.285,EPIDM,2023.1.2,None,
5982.jpg,5260.jpg,5 Points,5 Points,335 Points,PS1_L6.csv,,,,,,,,,,,,,,,,,,,,,,,,,,,,,0,5,5,5,0,12,12,12,,,,,,,,,,,,,,,,,,,1305.9152192919282,p,0.21786495915148407,1306.2046444999287,,,,,,,270868,A,2024-07-25_14h17.30.285,EPIDM,2023.1.2,None,
1301.jpg,1070.jpg,2 Points,2 Points,337 Points,PS1_L6.csv,,,,,,,,,,,,,,,,,,,,,,,,,,,,,0,5,5,5,0,13,13,13,,,,,,,,,,,,,,,,,,,1310.4402709999122,p,0.6774776671081781,1311.1983705839375,,2,1.428301333100535,,,,270868,A,2024-07-25_14h17.30.285,EPIDM,2023.1.2,None,
7920.jpg,9102.jpg,3 Points,3 Points,340 Points,PS1_L6.csv,,,,,,,,,,,,,,,,,,,,,,,,,,,,,0,5,5,5,0,14,14,14,,,,,,,,,,,,,,,,,,,1316.946137666935,q,1.4669142089551315,1318.4864686249057,,,,,,,270868,A,2024-07-25_14h17.30.285,EPIDM,2023.1.2,None,
5455.jpg,5220.jpg,0 Points,0 Points,340 Points,PS1_L6.csv,,,,,,,,,,,,,,,,,,,,,,,,,,,,,0,5,5,5,0,15,15,15,,,,,,,,,,,,,,,,,,,1322.714057834004,p,0.8193407910875976,1323.6042338749394,,,,,,,270868,A,2024-07-25_14h17.30.285,EPIDM,2023.1.2,None,
3350.jpg,3210.jpg,1 Point,1 Point,341 Points,PS1_L6.csv,,,,,,,,,,,,,,,,,,,,,,,,,,,,,0,5,5,5,0,16,16,16,,,,,,,,,,,,,,,,,,,1327.8456892499235,p,0.0953027920331806,1328.006575708976,,,,,,,270868,A,2024-07-25_14h17.30.285,EPIDM,2023.1.2,None,
2560.jpg,5270.jpg,4 Points,4 Points,345 Points,PS1_L6.csv,,,,,,,,,,,,,,,,,,,,,,,,,,,,,0,5,5,5,0,17,17,17,,,,,,,,,,,,,,,,,,,1332.2548325000098,p,0.27773358405102044,1332.6068020419916,,,,,,,270868,A,2024-07-25_14h17.30.285,EPIDM,2023.1.2,None,
9584.jpg,3400.jpg,2 Points,2 Points,347 Points,PS1_L6.csv,,,,,,,,,,,,,,,,,,,,,,,,,,,,,0,5,5,5,0,18,18,18,,,,,,,,,,,,,,,,,,,1336.8476865839912,p,0.7325539591256529,1337.6557011249242,,,,,,,270868,A,2024-07-25_14h17.30.285,EPIDM,2023.1.2,None,
5760.jpg,1602.jpg,1 Point,1 Point,348 Points,PS1_L6.csv,,,,,,,,,,,,,,,,,,,,,,,,,,,,,0,5,5,5,0,19,19,19,,,,,,,,,,,,,,,,,,,1341.897855416988,p,0.41836054204031825,1342.3918356249342,,,,,,,270868,A,2024-07-25_14h17.30.285,EPIDM,2023.1.2,None,
7230.jpg,7570.jpg,5 Points,5 Points,353 Points,PS1_L6.csv,,,,,,,,,,,,,,,,,,,,,,,,,,,,,0,5,5,5,0,20,20,20,,,,,,,,,,,,,,,,,,,1346.6358187089209,p,0.5914415421430022,1347.3060257919133,,,,,,,270868,A,2024-07-25_14h17.30.285,EPIDM,2023.1.2,None,
1022.jpg,6930.jpg,1 Point,1 Point,354 Points,PS1_L6.csv,,,,,,,,,,,,,,,,,,,,,,,,,,,,,0,5,5,5,0,21,21,21,,,,,,,,,,,,,,,,,,,1351.5414713339414,p,0.39887933304999024,1352.021190041909,,,,,,,270868,A,2024-07-25_14h17.30.285,EPIDM,2023.1.2,None,
8340.jpg,7546.jpg,2 Points,2 Points,356 Points,PS1_L6.csv,,,,,,,,,,,,,,,,,,,,,,,,,,,,,0,5,5,5,0,22,22,22,,,,,,,,,,,,,,,,,,,1356.2709517920157,p,0.07608879206236452,1356.4221156249987,,,,,,,270868,A,2024-07-25_14h17.30.285,EPIDM,2023.1.2,None,
6243.jpg,2752.jpg,2 Points,2 Points,358 Points,PS1_L6.csv,,,,,,,,,,,,,,,,,,,,,,,,,,,,,0,5,5,5,0,23,23,23,,,,,,,,,,,,,,,,,,,1360.6612955419114,p,0.4786663750419393,1361.217811458977,,,,1371.707735333941,space,1.0802210001274943,270868,A,2024-07-25_14h17.30.285,EPIDM,2023.1.2,None,
7280.jpg,7160.jpg,0 Points,0 Points,358 Points,PS1_L7.csv,,,,,,,,,,,,,,,,,,,,,,,,,,,,,0,6,6,6,0,0,0,0,,,,,,,,,,,,,,,,,,,1376.087046291912,p,0.5884878339711577,1376.7508780839853,,,,,,,270868,A,2024-07-25_14h17.30.285,EPIDM,2023.1.2,None,
2580.jpg,8300.jpg,3 Points,3 Points,361 Points,PS1_L7.csv,,,,,,,,,,,,,,,,,,,,,,,,,,,,,0,6,6,6,0,1,1,1,,,,,,,,,,,,,,,,,,,1380.9906884999946,p,0.3245332920923829,1381.3842226249399,,3,1.6951591670513153,,,,270868,A,2024-07-25_14h17.30.285,EPIDM,2023.1.2,None,
5972.jpg,6838.jpg,5 Points,5 Points,366 Points,PS1_L7.csv,,,,,,,,,,,,,,,,,,,,,,,,,,,,,0,6,6,6,0,2,2,2,,,,,,,,,,,,,,,,,,,1387.3851830419153,p,1.6657586670480669,1389.1179436669918,,,,,,,270868,A,2024-07-25_14h17.30.285,EPIDM,2023.1.2,None,
5621.jpg,5534.jpg,3 Points,3 Points,369 Points,PS1_L7.csv,,,,,,,,,,,,,,,,,,,,,,,,,,,,,0,6,6,6,0,3,3,3,,,,,,,,,,,,,,,,,,,1393.358151958906,p,0.06957345805130899,1393.4996295839082,,,,,,,270868,A,2024-07-25_14h17.30.285,EPIDM,2023.1.2,None,
8480.jpg,6410.jpg,1 Point,1 Point,370 Points,PS1_L7.csv,,,,,,,,,,,,,,,,,,,,,,,,,,,,,0,6,6,6,0,4,4,4,,,,,,,,,,,,,,,,,,,1397.733642166946,p,0.957112125121057,1398.7630574170034,,,,,,,270868,A,2024-07-25_14h17.30.285,EPIDM,2023.1.2,None,
2702.jpg,1590.jpg,5 Points,5 Points,375 Points,PS1_L7.csv,,,,,,,,,,,,,,,,,,,,,,,,,,,,,0,6,6,6,0,5,5,5,,,,,,,,,,,,,,,,,,,1403.0197503339732,p,0.4781099590472877,1403.574898583931,,,,,,,270868,A,2024-07-25_14h17.30.285,EPIDM,2023.1.2,None,
1275.jpg,3150.jpg,1 Point,1 Point,376 Points,PS1_L7.csv,,,,,,,,,,,,,,,,,,,,,,,,,,,,,0,6,6,6,0,6,6,6,,,,,,,,,,,,,,,,,,,1407.8102992089698,p,0.791811375063844,1408.6759100420168,,,,,,,270868,A,2024-07-25_14h17.30.285,EPIDM,2023.1.2,None,
1910.jpg,2575.jpg,2 Points,2 Points,378 Points,PS1_L7.csv,,,,,,,,,,,,,,,,,,,,,,,,,,,,,0,6,6,6,0,7,7,7,,,,,,,,,,,,,,,,,,,1412.9198624169221,p,0.10667987505439669,1413.089040583931,,,,,,,270868,A,2024-07-25_14h17.30.285,EPIDM,2023.1.2,None,
2518.jpg,2381.jpg,1 Point,1 Point,382 Points,PS1_L7.csv,,,,,,,,,,,,,,,,,,,,,,,,,,,,,0,6,6,6,0,8,8,8,,,,,,,,,,,,,,,,,,,1417.3373965419596,p,0.2564405830344185,1417.6521382919746,,,,,,,270868,A,2024-07-25_14h17.30.285,EPIDM,2023.1.2,None,
6250.1.jpg,3301.jpg,0 Points,0 Points,382 Points,PS1_L7.csv,,,,,,,,,,,,,,,,,,,,,,,,,,,,,0,6,6,6,0,9,9,9,,,,,,,,,,,,,,,,,,,1421.8994315000018,p,0.1910175420343876,1422.156498458935,,,,,,,270868,A,2024-07-25_14h17.30.285,EPIDM,2023.1.2,None,
7234.jpg,5533.jpg,3 Points,3 Points,385 Points,PS1_L7.csv,,,,,,,,,,,,,,,,,,,,,,,,,,,,,0,6,6,6,0,10,10,10,,,,,,,,,,,,,,,,,,,1426.3954702919582,p,0.3584483750164509,1426.8277157919947,,,,,,,270868,A,2024-07-25_14h17.30.285,EPIDM,2023.1.2,None,
9920.jpg,3068.jpg,5 Points,5 Points,390 Points,PS1_L7.csv,,,,,,,,,,,,,,,,,,,,,,,,,,,,,0,6,6,6,0,11,11,11,,,,,,,,,,,,,,,,,,,1431.068636958953,p,0.36481154209468514,1431.49390695896,,,,,,,270868,A,2024-07-25_14h17.30.285,EPIDM,2023.1.2,None,
3022.jpg,2352.2.jpg,0 Points,0 Points,390 Points,PS1_L7.csv,,,,,,,,,,,,,,,,,,,,,,,,,,,,,0,6,6,6,0,12,12,12,,,,,,,,,,,,,,,,,,,1435.7391503750114,p,0.33483612502459437,1436.1438634169754,,,,,,,270868,A,2024-07-25_14h17.30.285,EPIDM,2023.1.2,None,
8250.jpg,1313.jpg,4 Points,4 Points,394 Points,PS1_L7.csv,,,,,,,,,,,,,,,,,,,,,,,,,,,,,0,6,6,6,0,13,13,13,,,,,,,,,,,,,,,,,,,1440.3820098339347,q,1.3465305840363726,1441.8140151669504,,4,2.077018875046633,,,,270868,A,2024-07-25_14h17.30.285,EPIDM,2023.1.2,None,
2690.jpg,9360.jpg,1 Point,1 Point,395 Points,PS1_L7.csv,,,,,,,,,,,,,,,,,,,,,,,,,,,,,0,6,6,6,0,14,14,14,,,,,,,,,,,,,,,,,,,1448.1999654999236,p,0.2730035000713542,1448.5536311669275,,,,,,,270868,A,2024-07-25_14h17.30.285,EPIDM,2023.1.2,None,
9570.jpg,6610.jpg,0 Points,0 Points,395 Points,PS1_L7.csv,,,,,,,,,,,,,,,,,,,,,,,,,,,,,0,6,6,6,0,15,15,15,,,,,,,,,,,,,,,,,,,1452.7890191669576,p,0.3322652920614928,1453.192658624961,,,,,,,270868,A,2024-07-25_14h17.30.285,EPIDM,2023.1.2,None,
3110.jpg,9000.jpg,4 Points,4 Points,399 Points,PS1_L7.csv,,,,,,,,,,,,,,,,,,,,,,,,,,,,,0,6,6,6,0,16,16,16,,,,,,,,,,,,,,,,,,,1457.4382727500051,p,0.3142632500967011,1457.8241663749795,,,,,,,270868,A,2024-07-25_14h17.30.285,EPIDM,2023.1.2,None,
8465.jpg,8400.jpg,1 Point,1 Point,400 Points,PS1_L7.csv,,,,,,,,,,,,,,,,,,,,,,,,,,,,,0,6,6,6,0,17,17,17,,,,,,,,,,,,,,,,,,,1462.077349875006,p,0.28374654112849385,1462.4292711669113,,,,,,,270868,A,2024-07-25_14h17.30.285,EPIDM,2023.1.2,None,
1540.jpg,2600.jpg,1 Point,1 Point,401 Points,PS1_L7.csv,,,,,,,,,,,,,,,,,,,,,,,,,,,,,0,6,6,6,0,18,18,18,,,,,,,,,,,,,,,,,,,1466.668290541973,p,0.28435625007841736,1467.0108988749562,,,,,,,270868,A,2024-07-25_14h17.30.285,EPIDM,2023.1.2,None,
2276.jpg,6540.jpg,3 Points,3 Points,404 Points,PS1_L7.csv,,,,,,,,,,,,,,,,,,,,,,,,,,,,,0,6,6,6,0,19,19,19,,,,,,,,,,,,,,,,,,,1471.2602644169237,p,0.29324545804411173,1471.6184344999492,,,,,,,270868,A,2024-07-25_14h17.30.285,EPIDM,2023.1.2,None,
5030.jpg,1670.jpg,3 Points,3 Points,407 Points,PS1_L7.csv,,,,,,,,,,,,,,,,,,,,,,,,,,,,,0,6,6,6,0,20,20,20,,,,,,,,,,,,,,,,,,,1475.8853719999315,p,0.3236259170807898,1476.2711534999544,,,,,,,270868,A,2024-07-25_14h17.30.285,EPIDM,2023.1.2,None,
9040.jpg,1120.jpg,3 Points,3 Points,410 Points,PS1_L7.csv,,,,,,,,,,,,,,,,,,,,,,,,,,,,,0,6,6,6,0,21,21,21,,,,,,,,,,,,,,,,,,,1480.5253691249527,p,0.4761372919892892,1481.0661336670164,,,,,,,270868,A,2024-07-25_14h17.30.285,EPIDM,2023.1.2,None,
3220.jpg,3063.jpg,5 Points,5 Points,415 Points,PS1_L7.csv,,,,,,,,,,,,,,,,,,,,,,,,,,,,,0,6,6,6,0,22,22,22,,,,,,,,,,,,,,,,,,,1485.3020334589528,p,0.03388491703663021,1485.3960170840146,,,,,,,270868,A,2024-07-25_14h17.30.285,EPIDM,2023.1.2,None,
8117.jpg,2880.jpg,5 Points,5 Points,420 Points,PS1_L7.csv,,,,,,,,,,,,,,,,,,,,,,,,,,,,,0,6,6,6,0,23,23,23,,,,,,,,,,,,,,,,,,,1489.6479832499754,p,1.128504166030325,1490.8413735419745,,,,1501.2982306249905,space,34.97426820802502,270868,A,2024-07-25_14h17.30.285,EPIDM,2023.1.2,None,
4274.jpg,8160.jpg,2 Points,2 Points,422 Points,PS1_L8.csv,,,,,,,,,,,,,,,,,,,,,,,,,,,,,0,7,7,7,0,0,0,0,,,,,,,,,,,,,,,,,,,1539.5869747089455,q,1.139967625029385,1540.8041621670127,,,,,,,270868,A,2024-07-25_14h17.30.285,EPIDM,2023.1.2,None,
6314.jpg,O022.jpg,2 Points,2 Points,424 Points,PS1_L8.csv,,,,,,,,,,,,,,,,,,,,,,,,,,,,,0,7,7,7,0,1,1,1,,,,,,,,,,,,,,,,,,,1545.0323559999233,p,0.3029762910446152,1545.4522190419957,,3,3.5871702920412645,,,,270868,A,2024-07-25_14h17.30.285,EPIDM,2023.1.2,None,
1560.jpg,8185.jpg,0 Points,0 Points,424 Points,PS1_L8.csv,,,,,,,,,,,,,,,,,,,,,,,,,,,,,0,7,7,7,0,2,2,2,,,,,,,,,,,,,,,,,,,1553.3320001249667,p,0.7707963751163334,1554.1671779999742,,,,,,,270868,A,2024-07-25_14h17.30.285,EPIDM,2023.1.2,None,
2850.jpg,4532.jpg,3 Points,3 Points,427 Points,PS1_L8.csv,,,,,,,,,,,,,,,,,,,,,,,,,,,,,0,7,7,7,0,3,3,3,,,,,,,,,,,,,,,,,,,1558.4039085839177,p,0.22778987500350922,1558.6914892499335,,,,,,,270868,A,2024-07-25_14h17.30.285,EPIDM,2023.1.2,None,
1390.jpg,9421.jpg,2 Points,2 Points,429 Points,PS1_L8.csv,,,,,,,,,,,,,,,,,,,,,,,,,,,,,0,7,7,7,0,4,4,4,,,,,,,,,,,,,,,,,,,1562.9398925419664,p,0.05169520806521177,1563.056904374971,,,,,,,270868,A,2024-07-25_14h17.30.285,EPIDM,2023.1.2,None,
9800.jpg,9433.jpg,1 Point,1 Point,430 Points,PS1_L8.csv,,,,,,,,,,,,,,,,,,,,,,,,,,,,,0,7,7,7,0,5,5,5,,,,,,,,,,,,,,,,,,,1567.2990407919278,p,0.01942666608374566,1567.3879486249061,,,,,,,270868,A,2024-07-25_14h17.30.285,EPIDM,2023.1.2,None,
8161.jpg,1900.jpg,4 Points,4 Points,434 Points,PS1_L8.csv,,,,,,,,,,,,,,,,,,,,,,,,,,,,,0,7,7,7,0,6,6,6,,,,,,,,,,,,,,,,,,,1571.649808999966,p,0.15606100007425994,1571.878536333912,,,,,,,270868,A,2024-07-25_14h17.30.285,EPIDM,2023.1.2,None,
1112.jpg,6230.jpg,3 Points,3 Points,437 Points,PS1_L8.csv,,,,,,,,,,,,,,,,,,,,,,,,,,,,,0,7,7,7,0,7,7,7,,,,,,,,,,,,,,,,,,,1576.1244563339278,p,0.8820638339966536,1577.0764669589698,,,,,,,270868,A,2024-07-25_14h17.30.285,EPIDM,2023.1.2,None,
1111.jpg,1040.jpg,0 Points,0 Points,437 Points,PS1_L8.csv,,,,,,,,,,,,,,,,,,,,,,,,,,,,,0,7,7,7,0,8,8,8,,,,,,,,,,,,,,,,,,,1581.311528292019,p,0.30299608304630965,1581.6967516669538,,,,,,,270868,A,2024-07-25_14h17.30.285,EPIDM,2023.1.2,None,
5622.jpg,9156.jpg,4 Points,4 Points,441 Points,PS1_L8.csv,,,,,,,,,,,,,,,,,,,,,,,,,,,,,0,7,7,7,0,9,9,9,,,,,,,,,,,,,,,,,,,1585.9315106669674,p,0.034457750036381185,1586.0418514589546,,,,,,,270868,A,2024-07-25_14h17.30.285,EPIDM,2023.1.2,None,
2681.jpg,7100.jpg,3 Points,3 Points,444 Points,PS1_L8.csv,,,,,,,,,,,,,,,,,,,,,,,,,,,,,0,7,7,7,0,10,10,10,,,,,,,,,,,,,,,,,,,1590.2784061249113,p,0.31916095910128206,1590.6734968340024,,,,,,,270868,A,2024-07-25_14h17.30.285,EPIDM,2023.1.2,None,
6821.jpg,9622.jpg,2 Points,2 Points,446 Points,PS1_L8.csv,,,,,,,,,,,,,,,,,,,,,,,,,,,,,0,7,7,7,0,11,11,11,,,,,,,,,,,,,,,,,,,1594.912927208934,p,0.07640224997885525,1595.0579586249078,,,,,,,270868,A,2024-07-25_14h17.30.285,EPIDM,2023.1.2,None,
9490.jpg,9210.jpg,1 Point,1 Point,447 Points,PS1_L8.csv,,,,,,,,,,,,,,,,,,,,,,,,,,,,,0,7,7,7,0,12,12,12,,,,,,,,,,,,,,,,,,,1599.2978982919594,p,0.6446800000267103,1600.0062323749298,,,,,,,270868,A,2024-07-25_14h17.30.285,EPIDM,2023.1.2,None,
4605.jpg,1510.jpg,4 Points,4 Points,451 Points,PS1_L8.csv,,,,,,,,,,,,,,,,,,,,,,,,,,,,,0,7,7,7,0,13,13,13,,,,,,,,,,,,,,,,,,,1604.266090292018,p,0.7641360419802368,1605.0959224170074,,4,1.7178331670584157,,,,270868,A,2024-07-25_14h17.30.285,EPIDM,2023.1.2,None,
2240.jpg,5010.jpg,5 Points,5 Points,456 Points,PS1_L8.csv,,,,,,,,,,,,,,,,,,,,,,,,,,,,,0,7,7,7,0,14,14,14,,,,,,,,,,,,,,,,,,,1611.1219914999092,p,0.9473920000018552,1612.1394956669537,,,,,,,270868,A,2024-07-25_14h17.30.285,EPIDM,2023.1.2,None,
3102.jpg,F032.jpg,1 Point,1 Point,457 Points,PS1_L8.csv,,,,,,,,,,,,,,,,,,,,,,,,,,,,,0,7,7,7,0,15,15,15,,,,,,,,,,,,,,,,,,,1616.381182958954,p,0.1277626659721136,1616.6204592499416,,,,,,,270868,A,2024-07-25_14h17.30.285,EPIDM,2023.1.2,None,
4100.jpg,6570.2.jpg,3 Points,3 Points,460 Points,PS1_L8.csv,,,,,,,,,,,,,,,,,,,,,,,,,,,,,0,7,7,7,0,16,16,16,,,,,,,,,,,,,,,,,,,1620.8219611669192,p,0.14299479103647172,1621.041739166947,,,,,,,270868,A,2024-07-25_14h17.30.285,EPIDM,2023.1.2,None,
2650.jpg,4531.jpg,5 Points,5 Points,465 Points,PS1_L8.csv,,,,,,,,,,,,,,,,,,,,,,,,,,,,,0,7,7,7,0,17,17,17,,,,,,,,,,,,,,,,,,,1625.2824642920168,p,0.323206500033848,1625.682975291973,,,,,,,270868,A,2024-07-25_14h17.30.285,EPIDM,2023.1.2,None,
9320.jpg,9007.jpg,0 Points,0 Points,465 Points,PS1_L8.csv,,,,,,,,,,,,,,,,,,,,,,,,,,,,,0,7,7,7,0,18,18,18,,,,,,,,,,,,,,,,,,,1629.9105682090158,p,0.4786263749701902,1630.4590236669173,,,,,,,270868,A,2024-07-25_14h17.30.285,EPIDM,2023.1.2,None,
8460.jpg,8330.jpg,0 Points,0 Points,465 Points,PS1_L8.csv,,,,,,,,,,,,,,,,,,,,,,,,,,,,,0,7,7,7,0,19,19,19,,,,,,,,,,,,,,,,,,,1634.6990138340043,p,0.31348308303859085,1635.0751883749617,,,,,,,270868,A,2024-07-25_14h17.30.285,EPIDM,2023.1.2,None,
2570.jpg,5500.jpg,3 Points,3 Points,468 Points,PS1_L8.csv,,,,,,,,,,,,,,,,,,,,,,,,,,,,,0,7,7,7,0,20,20,20,,,,,,,,,,,,,,,,,,,1639.3212784170173,p,0.24385479209013283,1639.6291027499828,,,,,,,270868,A,2024-07-25_14h17.30.285,EPIDM,2023.1.2,None,
6190.jpg,3120.jpg,5 Points,5 Points,473 Points,PS1_L8.csv,,,,,,,,,,,,,,,,,,,,,,,,,,,,,0,7,7,7,0,21,21,21,,,,,,,,,,,,,,,,,,,1643.8709045000141,p,0.09379145805723965,1644.0345454589697,,,,,,,270868,A,2024-07-25_14h17.30.285,EPIDM,2023.1.2,None,
2200.jpg,4598.jpg,1 Point,1 Point,474 Points,PS1_L8.csv,,,,,,,,,,,,,,,,,,,,,,,,,,,,,0,7,7,7,0,22,22,22,,,,,,,,,,,,,,,,,,,1648.2783901669318,p,0.25479350006207824,1648.6119083749363,,,,,,,270868,A,2024-07-25_14h17.30.285,EPIDM,2023.1.2,None,
1303.jpg,2000.jpg,0 Points,0 Points,474 Points,PS1_L8.csv,,,,,,,,,,,,,,,,,,,,,,,,,,,,,0,7,7,7,0,23,23,23,,,,,,,,,,,,,,,,,,,1652.8478040419286,p,0.11633241712115705,1653.0395652499283,,,,1663.49859366694,space,0.9063513751607388,270868,A,2024-07-25_14h17.30.285,EPIDM,2023.1.2,None,
9010.jpg,9253.jpg,0 Points,0 Points,474 Points,PS1_L9.csv,,,,,,,,,,,,,,,,,,,,,,,,,,,,,0,8,8,8,0,0,0,0,,,,,,,,,,,,,,,,,,,1667.713112999918,p,0.3875211251433939,1668.1694690419827,,,,,,,270868,A,2024-07-25_14h17.30.285,EPIDM,2023.1.2,None,
1302.jpg,2700.jpg,3 Points,3 Points,477 Points,PS1_L9.csv,,,,,,,,,,,,,,,,,,,,,,,,,,,,,0,8,8,8,0,1,1,1,,,,,,,,,,,,,,,,,,,1672.4130292090122,p,0.048474958166480064,1672.5373405419523,,3,1.583468416123651,,,,270868,A,2024-07-25_14h17.30.285,EPIDM,2023.1.2,None,
2030.jpg,2495.jpg,0 Points,0 Points,477 Points,PS1_L9.csv,,,,,,,,,,,,,,,,,,,,,,,,,,,,,0,8,8,8,0,2,2,2,,,,,,,,,,,,,,,,,,,1678.4296488339314,p,0.47115674999076873,1678.9716807919322,,,,,,,270868,A,2024-07-25_14h17.30.285,EPIDM,2023.1.2,None,
2110.jpg,7260.jpg,5 Points,5 Points,482 Points,PS1_L9.csv,,,,,,,,,,,,,,,,,,,,,,,,,,,,,0,8,8,8,0,3,3,3,,,,,,,,,,,,,,,,,,,1683.2215278339572,p,0.4464669161243364,1683.7472502919845,,,,,,,270868,A,2024-07-25_14h17.30.285,EPIDM,2023.1.2,None,
2053.jpg,9415.jpg,4 Points,4 Points,486 Points,PS1_L9.csv,,,,,,,,,,,,,,,,,,,,,,,,,,,,,0,8,8,8,0,4,4,4,,,,,,,,,,,,,,,,,,,1687.986572374939,p,0.0414634580956772,1688.1031422090018,,,,,,,270868,A,2024-07-25_14h17.30.285,EPIDM,2023.1.2,None,
6211.jpg,9611.jpg,3 Points,3 Points,489 Points,PS1_L9.csv,,,,,,,,,,,,,,,,,,,,,,,,,,,,,0,8,8,8,0,5,5,5,,,,,,,,,,,,,,,,,,,1692.3499334589578,p,0.1900271250633523,1692.5956513339188,,,,,,,270868,A,2024-07-25_14h17.30.285,EPIDM,2023.1.2,None,
8350.jpg,7190.jpg,5 Points,5 Points,494 Points,PS1_L9.csv,,,,,,,,,,,,,,,,,,,,,,,,,,,,,0,8,8,8,0,6,6,6,,,,,,,,,,,,,,,,,,,1696.8396751249675,p,0.29177979205269367,1697.2084591250168,,,,,,,270868,A,2024-07-25_14h17.30.285,EPIDM,2023.1.2,None,
9340.jpg,6910.jpg,0 Points,0 Points,494 Points,PS1_L9.csv,,,,,,,,,,,,,,,,,,,,,,,,,,,,,0,8,8,8,0,7,7,7,,,,,,,,,,,,,,,,,,,1701.4425318749854,p,0.06444850005209446,1701.5744106669445,,,,,,,270868,A,2024-07-25_14h17.30.285,EPIDM,2023.1.2,None,
4533.jpg,2385.jpg,3 Points,3 Points,497 Points,PS1_L9.csv,,,,,,,,,,,,,,,,,,,,,,,,,,,,,0,8,8,8,0,8,8,8,,,,,,,,,,,,,,,,,,,1705.8160019170027,p,0.018799792043864727,1705.9075592089212,,,,,,,270868,A,2024-07-25_14h17.30.285,EPIDM,2023.1.2,None,
5940.jpg,9411.jpg,0 Points,0 Points,497 Points,PS1_L9.csv,,,,,,,,,,,,,,,,,,,,,,,,,,,,,0,8,8,8,0,9,9,9,,,,,,,,,,,,,,,,,,,1710.1438814589055,p,0.17919470905326307,1710.3897043339675,,,,,,,270868,A,2024-07-25_14h17.30.285,EPIDM,2023.1.2,None,
2220.jpg,2010.jpg,5 Points,5 Points,502 Points,PS1_L9.csv,,,,,,,,,,,,,,,,,,,,,,,,,,,,,0,8,8,8,0,10,10,10,,,,,,,,,,,,,,,,,,,1714.632341708988,p,0.25068608310539275,1714.957656124956,,,,,,,270868,A,2024-07-25_14h17.30.285,EPIDM,2023.1.2,None,
9500.jpg,6360.jpg,1 Point,1 Point,503 Points,PS1_L9.csv,,,,,,,,,,,,,,,,,,,,,,,,,,,,,0,8,8,8,0,11,11,11,,,,,,,,,,,,,,,,,,,1719.1992737499531,p,0.11547375004738569,1719.3903980419273,,,,,,,270868,A,2024-07-25_14h17.30.285,EPIDM,2023.1.2,None,
2092.jpg,2210.jpg,0 Points,0 Points,503 Points,PS1_L9.csv,,,,,,,,,,,,,,,,,,,,,,,,,,,,,0,8,8,8,0,12,12,12,,,,,,,,,,,,,,,,,,,1723.6321507499088,p,0.1224367500981316,1723.8144059169572,,,,,,,270868,A,2024-07-25_14h17.30.285,EPIDM,2023.1.2,None,
9530.jpg,9220.jpg,1 Point,1 Point,504 Points,PS1_L9.csv,,,,,,,,,,,,,,,,,,,,,,,,,,,,,0,8,8,8,0,13,13,13,,,,,,,,,,,,,,,,,,,1728.069691792014,p,0.7977567500201985,1728.9265504999785,,1,1.4753478340571746,,,,270868,A,2024-07-25_14h17.30.285,EPIDM,2023.1.2,None,
9254.jpg,9290.jpg,2 Points,2 Points,506 Points,PS1_L9.csv,,,,,,,,,,,,,,,,,,,,,,,,,,,,,0,8,8,8,0,14,14,14,,,,,,,,,,,,,,,,,,,1734.702154458966,p,0.364061750122346,1735.1234431249322,,,,,,,270868,A,2024-07-25_14h17.30.285,EPIDM,2023.1.2,None,
4608.jpg,8320.jpg,1 Point,1 Point,507 Points,PS1_L9.csv,,,,,,,,,,,,,,,,,,,,,,,,,,,,,0,8,8,8,0,15,15,15,,,,,,,,,,,,,,,,,,,1739.374325791956,p,0.40484675008337945,1739.8505502089392,,,,,,,270868,A,2024-07-25_14h17.30.285,EPIDM,2023.1.2,None,
7237.jpg,8510.jpg,4 Points,4 Points,511 Points,PS1_L9.csv,,,,,,,,,,,,,,,,,,,,,,,,,,,,,0,8,8,8,0,16,16,16,,,,,,,,,,,,,,,,,,,1744.0926084999228,p,0.19852483307477087,1744.370167291956,,,,,,,270868,A,2024-07-25_14h17.30.285,EPIDM,2023.1.2,None,
9417.jpg,6530.jpg,1 Point,1 Point,512 Points,PS1_L9.csv,,,,,,,,,,,,,,,,,,,,,,,,,,,,,0,8,8,8,0,17,17,17,,,,,,,,,,,,,,,,,,,1748.610683041974,p,0.11950812500435859,1748.80318012496,,,,,,,270868,A,2024-07-25_14h17.30.285,EPIDM,2023.1.2,None,
6831.jpg,2141.jpg,5 Points,5 Points,517 Points,PS1_L9.csv,,,,,,,,,,,,,,,,,,,,,,,,,,,,,0,8,8,8,0,18,18,18,,,,,,,,,,,,,,,,,,,1753.0320034169126,p,0.20249625004362315,1753.3039924169425,,,,,,,270868,A,2024-07-25_14h17.30.285,EPIDM,2023.1.2,None,
4689.jpg,7009.jpg,5 Points,5 Points,522 Points,PS1_L9.csv,,,,,,,,,,,,,,,,,,,,,,,,,,,,,0,8,8,8,0,19,19,19,,,,,,,,,,,,,,,,,,,1757.5450187919196,p,0.0969738750718534,1757.7208521249704,,,,,,,270868,A,2024-07-25_14h17.30.285,EPIDM,2023.1.2,None,
2751.jpg,6313.jpg,3 Points,3 Points,525 Points,PS1_L9.csv,,,,,,,,,,,,,,,,,,,,,,,,,,,,,0,8,8,8,0,20,20,20,,,,,,,,,,,,,,,,,,,1761.9541600840166,p,0.0318690420826897,1762.0624296669848,,,,,,,270868,A,2024-07-25_14h17.30.285,EPIDM,2023.1.2,None,
4621.jpg,3550.jpg,2 Points,2 Points,527 Points,PS1_L9.csv,,,,,,,,,,,,,,,,,,,,,,,,,,,,,0,8,8,8,0,21,21,21,,,,,,,,,,,,,,,,,,,1766.3012723339489,p,0.2851933330530301,1766.6556495840196,,,,,,,270868,A,2024-07-25_14h17.30.285,EPIDM,2023.1.2,None,
8220.jpg,2410.jpg,4 Points,4 Points,531 Points,PS1_L9.csv,,,,,,,,,,,,,,,,,,,,,,,,,,,,,0,8,8,8,0,22,22,22,,,,,,,,,,,,,,,,,,,1770.8942847499857,p,0.19557837501633912,1771.1540975419339,,,,,,,270868,A,2024-07-25_14h17.30.285,EPIDM,2023.1.2,None,
1113.jpg,1240.jpg,3 Points,3 Points,534 Points,PS1_L9.csv,,,,,,,,,,,,,,,,,,,,,,,,,,,,,0,8,8,8,0,23,23,23,,,,,,,,,,,,,,,,,,,1775.3904399169842,p,0.18806412513367832,1775.665013458929,,,,1786.1585817089071,space,0.6824960830854252,270868,A,2024-07-25_14h17.30.285,EPIDM,2023.1.2,None,
2750.jpg,9050.jpg,4 Points,4 Points,538 Points,PS1_L10.csv,,,,,,,,,,,,,,,,,,,,,,,,,,,,,0,9,9,9,0,0,0,0,,,,,,,,,,,,,,,,,,,1790.1549080839613,q,0.3346695411019027,1790.5635024999501,,,,,,,270868,A,2024-07-25_14h17.30.285,EPIDM,2023.1.2,None,
2312.jpg,2722.jpg,1 Points,1 Points,539 Points,PS1_L10.csv,,,,,,,,,,,,,,,,,,,,,,,,,,,,,0,9,9,9,0,1,1,1,,,,,,,,,,,,,,,,,,,1794.8106180420145,q,0.04825104202609509,1794.926522374968,,1,1.3959966250695288,,,,270868,A,2024-07-25_14h17.30.285,EPIDM,2023.1.2,None,
8232.jpg,4279.jpg,5 Points,5 Points,544 Points,PS1_L10.csv,,,,,,,,,,,,,,,,,,,,,,,,,,,,,0,9,9,9,0,2,2,2,,,,,,,,,,,,,,,,,,,1800.640161458985,q,0.8733259580330923,1801.5872007919243,,,,,,,270868,A,2024-07-25_14h17.30.285,EPIDM,2023.1.2,None,
6000.jpg,6836.jpg,4 Points,4 Points,548 Points,PS1_L10.csv,,,,,,,,,,,,,,,,,,,,,,,,,,,,,0,9,9,9,0,3,3,3,,,,,,,,,,,,,,,,,,,1805.8265094589442,q,0.47752037504687905,1806.3823468749179,,,,,,,270868,A,2024-07-25_14h17.30.285,EPIDM,2023.1.2,None,
4536.jpg,2280.jpg,4 Points,4 Points,552 Points,PS1_L10.csv,,,,,,,,,,,,,,,,,,,,,,,,,,,,,0,9,9,9,0,4,4,4,,,,,,,,,,,,,,,,,,,1810.623568833922,p,0.21684545814059675,1810.9113749589305,,,,,,,270868,A,2024-07-25_14h17.30.285,EPIDM,2023.1.2,None,
6241.jpg,9561.jpg,3 Points,3 Points,555 Points,PS1_L10.csv,,,,,,,,,,,,,,,,,,,,,,,,,,,,,0,9,9,9,0,5,5,5,,,,,,,,,,,,,,,,,,,1815.1505126669072,p,0.16919708403293043,1815.3981741669122,,,,,,,270868,A,2024-07-25_14h17.30.285,EPIDM,2023.1.2,None,
1942.jpg,2890.jpg,1 Points,1 Points,556 Points,PS1_L10.csv,,,,,,,,,,,,,,,,,,,,,,,,,,,,,0,9,9,9,0,6,6,6,,,,,,,,,,,,,,,,,,,1819.63433349994,p,0.22383912513032556,1819.9313479999546,,,,,,,270868,A,2024-07-25_14h17.30.285,EPIDM,2023.1.2,None,
6020.jpg,6300.jpg,2 Points,2 Points,558 Points,PS1_L10.csv,,,,,,,,,,,,,,,,,,,,,,,,,,,,,0,9,9,9,0,7,7,7,,,,,,,,,,,,,,,,,,,1824.1769470839063,p,0.6974806251237169,1824.9422915839823,,,,,,,270868,A,2024-07-25_14h17.30.285,EPIDM,2023.1.2,None,
7170.jpg,2170.jpg,2 Points,2 Points,560 Points,PS1_L10.csv,,,,,,,,,,,,,,,,,,,,,,,,,,,,,0,9,9,9,0,8,8,8,,,,,,,,,,,,,,,,,,,1829.1834827499697,q,0.06478670809883624,1829.3151643750025,,,,,,,270868,A,2024-07-25_14h17.30.285,EPIDM,2023.1.2,None,
5510.jpg,2514.jpg,5 Points,5 Points,565 Points,PS1_L10.csv,,,,,,,,,,,,,,,,,,,,,,,,,,,,,0,9,9,9,0,9,9,9,,,,,,,,,,,,,,,,,,,1833.5765852089971,q,0.7118848749669269,1834.3599202089244,,,,,,,270868,A,2024-07-25_14h17.30.285,EPIDM,2023.1.2,None,
6840.jpg,3080.jpg,1 Points,1 Points,566 Points,PS1_L10.csv,,,,,,,,,,,,,,,,,,,,,,,,,,,,,0,9,9,9,0,10,10,10,,,,,,,,,,,,,,,,,,,1838.602448624908,q,0.06162683304864913,1838.7252806249307,,,,,,,270868,A,2024-07-25_14h17.30.285,EPIDM,2023.1.2,None,
7195.jpg,2487.jpg,2 Points,2 Points,568 Points,PS1_L10.csv,,,,,,,,,,,,,,,,,,,,,,,,,,,,,0,9,9,9,0,11,11,11,,,,,,,,,,,,,,,,,,,1842.9747269999934,q,0.06502820807509124,1843.1073742919834,,,,,,,270868,A,2024-07-25_14h17.30.285,EPIDM,2023.1.2,None,
5971.jpg,9912.jpg,5 Points,5 Points,573 Points,PS1_L10.csv,,,,,,,,,,,,,,,,,,,,,,,,,,,,,0,9,9,9,0,12,12,12,,,,,,,,,,,,,,,,,,,1847.3518219169928,q,0.2243291250197217,1847.6413742089644,,,,,,,270868,A,2024-07-25_14h17.30.285,EPIDM,2023.1.2,None,
2520.jpg,8503.jpg,2 Points,2 Points,575 Points,PS1_L10.csv,,,,,,,,,,,,,,,,,,,,,,,,,,,,,0,9,9,9,0,13,13,13,,,,,,,,,,,,,,,,,,,1851.8958817089442,q,0.18316033307928592,1852.1647104999283,,2,1.5948693330865353,,,,270868,A,2024-07-25_14h17.30.285,EPIDM,2023.1.2,None,
5480.jpg,8200.jpg,4 Points,4 Points,579 Points,PS1_L10.csv,,,,,,,,,,,,,,,,,,,,,,,,,,,,,0,9,9,9,0,14,14,14,,,,,,,,,,,,,,,,,,,1858.0624480419792,q,0.29689937515649945,1858.441078083939,,,,,,,270868,A,2024-07-25_14h17.30.285,EPIDM,2023.1.2,None,
6370.jpg,1270.jpg,4 Points,4 Points,583 Points,PS1_L10.csv,,,,,,,,,,,,,,,,,,,,,,,,,,,,,0,9,9,9,0,15,15,15,,,,,,,,,,,,,,,,,,,1862.6758329999866,q,0.6117047080770135,1863.3568799999775,,,,,,,270868,A,2024-07-25_14h17.30.285,EPIDM,2023.1.2,None,
5130.jpg,1810.jpg,3 Points,3 Points,586 Points,PS1_L10.csv,,,,,,,,,,,,,,,,,,,,,,,,,,,,,0,9,9,9,0,16,16,16,,,,,,,,,,,,,,,,,,,1867.6091309170006,p,0.5980860829586163,1868.2907732919557,,,,,,,270868,A,2024-07-25_14h17.30.285,EPIDM,2023.1.2,None,
4250.jpg,7060.jpg,5 Points,5 Points,591 Points,PS1_L10.csv,,,,,,,,,,,,,,,,,,,,,,,,,,,,,0,9,9,9,0,17,17,17,,,,,,,,,,,,,,,,,,,1872.5249141249806,p,0.05841500009410083,1872.6567593339132,,,,,,,270868,A,2024-07-25_14h17.30.285,EPIDM,2023.1.2,None,
9373.jpg,9410.jpg,0 Points,0 Points,591 Points,PS1_L10.csv,,,,,,,,,,,,,,,,,,,,,,,,,,,,,0,9,9,9,0,18,18,18,,,,,,,,,,,,,,,,,,,1876.888985583908,p,0.8146514580585063,1877.7806711669546,,,,,,,270868,A,2024-07-25_14h17.30.285,EPIDM,2023.1.2,None,
2221.jpg,2270.jpg,2 Points,2 Points,593 Points,PS1_L10.csv,,,,,,,,,,,,,,,,,,,,,,,,,,,,,0,9,9,9,0,19,19,19,,,,,,,,,,,,,,,,,,,1882.00664387492,p,0.3922065830556676,1882.47185141698,,,,,,,270868,A,2024-07-25_14h17.30.285,EPIDM,2023.1.2,None,
1650.jpg,2130.jpg,1 Points,1 Points,594 Points,PS1_L10.csv,,,,,,,,,,,,,,,,,,,,,,,,,,,,,0,9,9,9,0,20,20,20,,,,,,,,,,,,,,,,,,,1886.7157627919223,p,0.41145520796999335,1887.1939936669078,,,,,,,270868,A,2024-07-25_14h17.30.285,EPIDM,2023.1.2,None,
1280.jpg,9402.jpg,2 Points,2 Points,596 Points,PS1_L10.csv,,,,,,,,,,,,,,,,,,,,,,,,,,,,,0,9,9,9,0,21,21,21,,,,,,,,,,,,,,,,,,,1891.4430009589996,p,0.04353958403225988,1891.561226749909,,,,,,,270868,A,2024-07-25_14h17.30.285,EPIDM,2023.1.2,None,
2214.jpg,4500.jpg,3 Points,3 Points,599 Points,PS1_L10.csv,,,,,,,,,,,,,,,,,,,,,,,,,,,,,0,9,9,9,0,22,22,22,,,,,,,,,,,,,,,,,,,1895.8082587089157,p,0.39861120807472616,1896.2796423749533,,,,,,,270868,A,2024-07-25_14h17.30.285,EPIDM,2023.1.2,None,
7284.jpg,8021.jpg,4 Points,4 Points,603 Points,PS1_L10.csv,,,,,,,,,,,,,,,,,,,,,,,,,,,,,0,9,9,9,0,23,23,23,,,,,,,,,,,,,,,,,,,1900.5110684999963,p,0.11981412500608712,1900.7015556669794,,,,1911.1697848750046,space,1.0117067920509726,270868,A,2024-07-25_14h17.30.285,EPIDM,2023.1.2,None,
