L_Scene,R_Scene,Points_L,Points_R,PtTotal,blockFile,Instructions_Loop.thisRepN,Instructions_Loop.thisTrialN,Instructions_Loop.thisN,Instructions_Loop.thisIndex,Redo_Instructions_Loop.thisRepN,Redo_Instructions_Loop.thisTrialN,Redo_Instructions_Loop.thisN,Redo_Instructions_Loop.thisIndex,Practice_Encoding_Loop.thisRepN,Practice_Encoding_Loop.thisTrialN,Practice_Encoding_Loop.thisN,Practice_Encoding_Loop.thisIndex,Practice_Response_Fail_Loop.thisRepN,Practice_Response_Fail_Loop.thisTrialN,Practice_Response_Fail_Loop.thisN,Practice_Response_Fail_Loop.thisIndex,Practice_FB_Loop.thisRepN,Practice_FB_Loop.thisTrialN,Practice_FB_Loop.thisN,Practice_FB_Loop.thisIndex,Practice_Attention_Loop.thisRepN,Practice_Attention_Loop.thisTrialN,Practice_Attention_Loop.thisN,Practice_Attention_Loop.thisIndex,Practice_EncBrk_Loop.thisRepN,Practice_EncBrk_Loop.thisTrialN,Practice_EncBrk_Loop.thisN,Practice_EncBrk_Loop.thisIndex,Encoding_Loop.thisRepN,Encoding_Loop.thisTrialN,Encoding_Loop.thisN,Encoding_Loop.thisIndex,EncStim_Loop.thisRepN,EncStim_Loop.thisTrialN,EncStim_Loop.thisN,EncStim_Loop.thisIndex,Response_Fail_Loop.thisRepN,Response_Fail_Loop.thisTrialN,Response_Fail_Loop.thisN,Response_Fail_Loop.thisIndex,FB_Loop.thisRepN,FB_Loop.thisTrialN,FB_Loop.thisN,FB_Loop.thisIndex,Attention_Loop.thisRepN,Attention_Loop.thisTrialN,Attention_Loop.thisN,Attention_Loop.thisIndex,EncBrk_Loop.thisRepN,EncBrk_Loop.thisTrialN,EncBrk_Loop.thisN,EncBrk_Loop.thisIndex,Transition_Enc.keys,Transition_Enc.rt,Encoding_Resp.started,Encoding_Resp.keys,Encoding_Resp.rt,R_Point_FB_Stim.started,Attn_resp.keys,Attn_resp.rt,Progress_Tracker.started,EncBrk_Resp.keys,EncBrk_Resp.rt,participant,Group,date,expName,psychopyVersion,frameRate,
,,,,,,,,,,,,,,,,,,,,,,,,,,,,,,,,,,,,,,,,,,,,,,,,,,,,,,,,,,space,13.151863499777392,,,,,,,,,,270859,B,2024-07-25_15h31.28.013,EPIDM,2023.1.2,None,
A060.jpg,F041.jpg,5 Points,5 Points,5 Points,,,,,,,,,,0,0,0,0,,,,,,,,,,,,,,,,,,,,,,,,,,,,,,,,,,,,,,,,,,,192.51565433386713,None,,,,,,,,270859,B,2024-07-25_15h31.28.013,EPIDM,2023.1.2,None,
O161.jpg,1812.jpg,2 Points,2 Points,7 Points,,,,,,,,,,0,1,1,1,,,,,,,,,,,,,,,,,,,,,,,,,,,,,,,,,,,,,,,,,,,200.0208470840007,q,1.00106795784086,201.13117983401753,,,,,,270859,B,2024-07-25_15h31.28.013,EPIDM,2023.1.2,None,
O013.jpg,A001.jpg,3 Points,3 Points,10 Points,,,,,,,,,,0,2,2,2,,,,,,,,,,,,,,,,,,,,,,,,,,,,,,,,,,,,,,,,,,,205.34267625003122,p,1.1106630838476121,206.64087654207833,,,,,,270859,B,2024-07-25_15h31.28.013,EPIDM,2023.1.2,None,
P036.jpg,F273.jpg,5 Points,5 Points,15 Points,,,,,,,,,,0,3,3,3,,,,,,,,,,,,,,,,,,,,,,,,,,,,,,,,,,,,,,,,,,,210.777902666945,q,0.9950261670164764,211.94613591697998,,,,,,270859,B,2024-07-25_15h31.28.013,EPIDM,2023.1.2,None,
L130.jpg,2393.jpg,0 Points,0 Points,15 Points,,,,,,,,,,0,4,4,4,,,,,,,,,,,,,,,,,,,,,,,,,,,,,,,,,,,,,,,,,,,216.1074639998842,q,1.4568719579838216,217.70643549994566,0,6.13951520784758,,,,270859,B,2024-07-25_15h31.28.013,EPIDM,2023.1.2,None,
F279.jpg,P033.jpg,3 Points,3 Points,18 Points,,,,,,,,,,0,5,5,5,,,,,,,,,,,,,,,,,,,,,,,,,,,,,,,,,,,,,,,,,,,228.13852595887147,p,1.5531853327993304,229.8673792090267,,,,,,270859,B,2024-07-25_15h31.28.013,EPIDM,2023.1.2,None,
A104.jpg,2593.jpg,2 Points,2 Points,20 Points,,,,,,,,,,0,6,6,6,,,,,,,,,,,,,,,,,,,,,,,,,,,,,,,,,,,,,,,,,,,234.01807183399796,p,1.1468455828726292,235.29112987499684,,,,,,270859,B,2024-07-25_15h31.28.013,EPIDM,2023.1.2,None,
2598.jpg,2605.jpg,0 Points,0 Points,20 Points,,,,,,,,,,0,7,7,7,,,,,,,,,,,,,,,,,,,,,,,,,,,,,,,,,,,,,,,,,,,239.47663808404468,p,1.4953953330405056,241.07265608408488,,,,,,270859,B,2024-07-25_15h31.28.013,EPIDM,2023.1.2,None,
L005.jpg,O011.jpg,1 Points,1 Points,21 Points,,,,,,,,,,0,8,8,8,,,,,,,,,,,,,,,,,,,,,,,,,,,,,,,,,,,,,,,,,,,245.29521241690964,q,1.6304659170564264,247.0579545418732,,,,,,270859,B,2024-07-25_15h31.28.013,EPIDM,2023.1.2,None,
8186.jpg,F078.jpg,2 Points,2 Points,23 Points,,,,,,,,,,0,9,9,9,,,,,,,,,,,,,,,,,,,,,,,,,,,,,,,,,,,,,,,,,,,251.24126258399338,q,1.0427799997851253,252.4210579590872,2,3.0576052078977227,265.7655593340751,space,27.85429508285597,270859,B,2024-07-25_15h31.28.013,EPIDM,2023.1.2,None,
,,,,,,,,,,,,,,,,,,,,,,,,,,,,,,,,,,,,,,,,,,,,,,,,,,,,,,,,,,space,6.281429874943569,,,,,,,,,,270859,B,2024-07-25_15h31.28.013,EPIDM,2023.1.2,None,
7284.jpg,8021.jpg,4 Points,4 Points,4 Points,PS2_L1.csv,,,,,,,,,,,,,,,,,,,,,,,,,,,,,0,0,0,0,0,0,0,0,,,,,,,,,,,,,,,,,,,312.97335445904173,p,1.4378157909959555,314.4982647919096,,,,,,270859,B,2024-07-25_15h31.28.013,EPIDM,2023.1.2,None,
2214.jpg,4500.jpg,3 Points,3 Points,7 points,PS2_L1.csv,,,,,,,,,,,,,,,,,,,,,,,,,,,,,0,0,0,0,0,1,1,1,,,,,,,,,,,,,,,,,,,318.72648758394644,p,1.1644638339057565,319.96336525003426,3,2.9122405839152634,,,,270859,B,2024-07-25_15h31.28.013,EPIDM,2023.1.2,None,
1280.jpg,9402.jpg,2 Points,2 Points,9 points,PS2_L1.csv,,,,,,,,,,,,,,,,,,,,,,,,,,,,,0,0,0,0,0,2,2,2,,,,,,,,,,,,,,,,,,,327.2129027498886,q,1.7415524579118937,329.02523575001396,,,,,,270859,B,2024-07-25_15h31.28.013,EPIDM,2023.1.2,None,
1650.jpg,2130.jpg,1 Points,1 Points,10 points,PS2_L1.csv,,,,,,,,,,,,,,,,,,,,,,,,,,,,,0,0,0,0,0,3,3,3,,,,,,,,,,,,,,,,,,,333.2809447920881,q,1.097167958971113,334.447383583989,,,,,,270859,B,2024-07-25_15h31.28.013,EPIDM,2023.1.2,None,
2221.jpg,2270.jpg,2 Points,2 Points,12 points,PS2_L1.csv,,,,,,,,,,,,,,,,,,,,,,,,,,,,,0,0,0,0,0,4,4,4,,,,,,,,,,,,,,,,,,,338.7093539170455,p,0.9972358748782426,339.77275366708636,,,,,,270859,B,2024-07-25_15h31.28.013,EPIDM,2023.1.2,None,
9373.jpg,9410.jpg,0 Points,0 Points,12 points,PS2_L1.csv,,,,,,,,,,,,,,,,,,,,,,,,,,,,,0,0,0,0,0,5,5,5,,,,,,,,,,,,,,,,,,,344.02005225000903,p,1.1905243338551372,345.2760451249778,,,,,,270859,B,2024-07-25_15h31.28.013,EPIDM,2023.1.2,None,
4250.jpg,7060.jpg,5 Points,5 Points,17 points,PS2_L1.csv,,,,,,,,,,,,,,,,,,,,,,,,,,,,,0,0,0,0,0,6,6,6,,,,,,,,,,,,,,,,,,,349.52961862506345,q,0.8559994997922331,350.46617370890453,,,,,,270859,B,2024-07-25_15h31.28.013,EPIDM,2023.1.2,None,
5130.jpg,1810.jpg,3 Points,3 Points,20 points,PS2_L1.csv,,,,,,,,,,,,,,,,,,,,,,,,,,,,,0,0,0,0,0,7,7,7,,,,,,,,,,,,,,,,,,,354.7029192089103,p,1.1315695839002728,355.91773620899767,,,,,,270859,B,2024-07-25_15h31.28.013,EPIDM,2023.1.2,None,
6370.jpg,1270.jpg,4 Points,4 Points,24 points,PS2_L1.csv,,,,,,,,,,,,,,,,,,,,,,,,,,,,,0,0,0,0,0,8,8,8,,,,,,,,,,,,,,,,,,,360.1492445000913,p,2.0533715419005603,362.28408574988134,,,,,,270859,B,2024-07-25_15h31.28.013,EPIDM,2023.1.2,None,
5480.jpg,8200.jpg,4 Points,4 Points,28 points,PS2_L1.csv,,,,,,,,,,,,,,,,,,,,,,,,,,,,,0,0,0,0,0,9,9,9,,,,,,,,,,,,,,,,,,,366.5158290420659,p,0.7910140408203006,367.3757736249827,,,,,,270859,B,2024-07-25_15h31.28.013,EPIDM,2023.1.2,None,
2520.jpg,8503.jpg,2 Points,2 Points,30 points,PS2_L1.csv,,,,,,,,,,,,,,,,,,,,,,,,,,,,,0,0,0,0,0,10,10,10,,,,,,,,,,,,,,,,,,,371.6184560840484,p,1.2794300839304924,372.97431895905174,,,,,,270859,B,2024-07-25_15h31.28.013,EPIDM,2023.1.2,None,
5971.jpg,9912.jpg,5 Points,5 Points,35 points,PS2_L1.csv,,,,,,,,,,,,,,,,,,,,,,,,,,,,,0,0,0,0,0,11,11,11,,,,,,,,,,,,,,,,,,,377.21541104186326,q,1.6267557919491082,378.90616520890035,,,,,,270859,B,2024-07-25_15h31.28.013,EPIDM,2023.1.2,None,
7195.jpg,2487.jpg,2 Points,2 Points,37 points,PS2_L1.csv,,,,,,,,,,,,,,,,,,,,,,,,,,,,,0,0,0,0,0,12,12,12,,,,,,,,,,,,,,,,,,,383.1568893750664,q,1.0288269999437034,384.26009920891374,,,,,,270859,B,2024-07-25_15h31.28.013,EPIDM,2023.1.2,None,
6840.jpg,3080.jpg,1 Points,1 Points,38 points,PS2_L1.csv,,,,,,,,,,,,,,,,,,,,,,,,,,,,,0,0,0,0,0,13,13,13,,,,,,,,,,,,,,,,,,,388.5255989169236,q,1.2037220417987555,389.79354270896874,1,2.2881520418450236,,,,270859,B,2024-07-25_15h31.28.013,EPIDM,2023.1.2,None,
5510.jpg,2514.jpg,5 Points,5 Points,43 points,PS2_L1.csv,,,,,,,,,,,,,,,,,,,,,,,,,,,,,0,0,0,0,0,14,14,14,,,,,,,,,,,,,,,,,,,396.4014709170442,q,1.144180707866326,397.6123750000261,,,,,,270859,B,2024-07-25_15h31.28.013,EPIDM,2023.1.2,None,
7170.jpg,2170.jpg,2 Points,2 Points,45 points,PS2_L1.csv,,,,,,,,,,,,,,,,,,,,,,,,,,,,,0,0,0,0,0,15,15,15,,,,,,,,,,,,,,,,,,,401.867384333862,p,0.8718177496921271,402.8231289170217,,,,,,270859,B,2024-07-25_15h31.28.013,EPIDM,2023.1.2,None,
6020.jpg,6300.jpg,2 Points,2 Points,47 points,PS2_L1.csv,,,,,,,,,,,,,,,,,,,,,,,,,,,,,0,0,0,0,0,16,16,16,,,,,,,,,,,,,,,,,,,407.0745294590015,q,0.7178021669387817,407.85910404194146,,,,,,270859,B,2024-07-25_15h31.28.013,EPIDM,2023.1.2,None,
1942.jpg,2890.jpg,1 Points,1 Points,48 points,PS2_L1.csv,,,,,,,,,,,,,,,,,,,,,,,,,,,,,0,0,0,0,0,17,17,17,,,,,,,,,,,,,,,,,,,412.1169962498825,q,1.0049922498874366,413.1854184169788,,,,,,270859,B,2024-07-25_15h31.28.013,EPIDM,2023.1.2,None,
6241.jpg,9561.jpg,3 Points,3 Points,51 points,PS2_L1.csv,,,,,,,,,,,,,,,,,,,,,,,,,,,,,0,0,0,0,0,18,18,18,,,,,,,,,,,,,,,,,,,417.44469733396545,p,0.9800321250222623,418.49589841696434,,,,,,270859,B,2024-07-25_15h31.28.013,EPIDM,2023.1.2,None,
4536.jpg,2280.jpg,4 Points,4 Points,55 points,PS2_L1.csv,,,,,,,,,,,,,,,,,,,,,,,,,,,,,0,0,0,0,0,19,19,19,,,,,,,,,,,,,,,,,,,422.7476877090521,q,0.7091685829218477,423.53257316700183,,,,,,270859,B,2024-07-25_15h31.28.013,EPIDM,2023.1.2,None,
6000.jpg,6836.jpg,4 Points,4 Points,59 points,PS2_L1.csv,,,,,,,,,,,,,,,,,,,,,,,,,,,,,0,0,0,0,0,20,20,20,,,,,,,,,,,,,,,,,,,427.78132337494753,q,1.6746184160001576,429.52643041708507,,,,,,270859,B,2024-07-25_15h31.28.013,EPIDM,2023.1.2,None,
8232.jpg,4279.jpg,5 Points,5 Points,64 points,PS2_L1.csv,,,,,,,,,,,,,,,,,,,,,,,,,,,,,0,0,0,0,0,21,21,21,,,,,,,,,,,,,,,,,,,433.7811745000072,p,0.7472266247496009,434.6107345840428,,,,,,270859,B,2024-07-25_15h31.28.013,EPIDM,2023.1.2,None,
2312.jpg,2722.jpg,1 Points,1 Points,65 points,PS2_L1.csv,,,,,,,,,,,,,,,,,,,,,,,,,,,,,0,0,0,0,0,22,22,22,,,,,,,,,,,,,,,,,,,438.84425366693176,q,1.0361979578156024,439.9490280840546,,,,,,270859,B,2024-07-25_15h31.28.013,EPIDM,2023.1.2,None,
2750.jpg,9050.jpg,4 Points,4 Points,69 points,PS2_L1.csv,,,,,,,,,,,,,,,,,,,,,,,,,,,,,0,0,0,0,0,23,23,23,,,,,,,,,,,,,,,,,,,444.1905769589357,q,1.7536054579541087,446.00337283406407,,,456.49430154194124,space,4.428014332894236,270859,B,2024-07-25_15h31.28.013,EPIDM,2023.1.2,None,
1113.jpg,1240.jpg,3 Points,3 Points,72 points,PS2_L2.csv,,,,,,,,,,,,,,,,,,,,,,,,,,,,,0,1,1,1,0,0,0,0,,,,,,,,,,,,,,,,,,,464.24891883390956,q,1.398741457844153,465.7249366249889,,,,,,270859,B,2024-07-25_15h31.28.013,EPIDM,2023.1.2,None,
8220.jpg,2410.jpg,4 Points,4 Points,76 points,PS2_L2.csv,,,,,,,,,,,,,,,,,,,,,,,,,,,,,0,1,1,1,0,1,1,1,,,,,,,,,,,,,,,,,,,469.9704585419968,p,1.029248874867335,471.06950533390045,4,2.1043766250368208,,,,270859,B,2024-07-25_15h31.28.013,EPIDM,2023.1.2,None,
4621.jpg,3550.jpg,2 Points,2 Points,78 points,PS2_L2.csv,,,,,,,,,,,,,,,,,,,,,,,,,,,,,0,1,1,1,0,2,2,2,,,,,,,,,,,,,,,,,,,477.48332908400334,q,1.1800866250414401,478.73184229200706,,,,,,270859,B,2024-07-25_15h31.28.013,EPIDM,2023.1.2,None,
2751.jpg,6313.jpg,3 Points,3 Points,81 points,PS2_L2.csv,,,,,,,,,,,,,,,,,,,,,,,,,,,,,0,1,1,1,0,3,3,3,,,,,,,,,,,,,,,,,,,482.9804220420774,p,1.4192853330168873,484.4693487919867,,,,,,270859,B,2024-07-25_15h31.28.013,EPIDM,2023.1.2,None,
4689.jpg,7009.jpg,5 Points,5 Points,86 points,PS2_L2.csv,,,,,,,,,,,,,,,,,,,,,,,,,,,,,0,1,1,1,0,4,4,4,,,,,,,,,,,,,,,,,,,488.70989958406426,q,0.6165256667882204,489.4047007090412,,,,,,270859,B,2024-07-25_15h31.28.013,EPIDM,2023.1.2,None,
6831.jpg,2141.jpg,5 Points,5 Points,91 points,PS2_L2.csv,,,,,,,,,,,,,,,,,,,,,,,,,,,,,0,1,1,1,0,5,5,5,,,,,,,,,,,,,,,,,,,493.64643129194155,q,1.2172940408345312,494.92656879196875,,,,,,270859,B,2024-07-25_15h31.28.013,EPIDM,2023.1.2,None,
9417.jpg,6530.jpg,1 Point,1 Point,92 points,PS2_L2.csv,,,,,,,,,,,,,,,,,,,,,,,,,,,,,0,1,1,1,0,6,6,6,,,,,,,,,,,,,,,,,,,499.1759206249844,p,0.7354474579915404,499.9949435419403,,,,,,270859,B,2024-07-25_15h31.28.013,EPIDM,2023.1.2,None,
7237.jpg,8510.jpg,4 Points,4 Points,96 points,PS2_L2.csv,,,,,,,,,,,,,,,,,,,,,,,,,,,,,0,1,1,1,0,7,7,7,,,,,,,,,,,,,,,,,,,504.24243674986064,p,1.300691874930635,505.6234942090232,,,,,,270859,B,2024-07-25_15h31.28.013,EPIDM,2023.1.2,None,
4608.jpg,8320.jpg,1 Point,1 Point,97 points,PS2_L2.csv,,,,,,,,,,,,,,,,,,,,,,,,,,,,,0,1,1,1,0,8,8,8,,,,,,,,,,,,,,,,,,,509.8624430000782,q,0.7288970828521997,510.66187654202804,,,,,,270859,B,2024-07-25_15h31.28.013,EPIDM,2023.1.2,None,
9254.jpg,9290.jpg,2 Points,2 Points,99 points,PS2_L2.csv,,,,,,,,,,,,,,,,,,,,,,,,,,,,,0,1,1,1,0,9,9,9,,,,,,,,,,,,,,,,,,,514.9395349589176,p,1.3980992080178112,516.4086310418788,,,,,,270859,B,2024-07-25_15h31.28.013,EPIDM,2023.1.2,None,
9530.jpg,9220.jpg,1 Point,1 Point,100 points,PS2_L2.csv,,,,,,,,,,,,,,,,,,,,,,,,,,,,,0,1,1,1,0,10,10,10,,,,,,,,,,,,,,,,,,,520.6668773340061,p,1.220203666947782,521.9479746669531,,,,,,270859,B,2024-07-25_15h31.28.013,EPIDM,2023.1.2,None,
2092.jpg,2210.jpg,0 Points,0 Points,100 points,PS2_L2.csv,,,,,,,,,,,,,,,,,,,,,,,,,,,,,0,1,1,1,0,11,11,11,,,,,,,,,,,,,,,,,,,526.2059401250444,q,1.0006478331051767,527.2808004170656,,,,,,270859,B,2024-07-25_15h31.28.013,EPIDM,2023.1.2,None,
9500.jpg,6360.jpg,1 Point,1 Point,101 points,PS2_L2.csv,,,,,,,,,,,,,,,,,,,,,,,,,,,,,0,1,1,1,0,12,12,12,,,,,,,,,,,,,,,,,,,531.5318809589371,q,1.6023931670933962,533.2218869170174,,,,,,270859,B,2024-07-25_15h31.28.013,EPIDM,2023.1.2,None,
2220.jpg,2010.jpg,5 Points,5 Points,106 points,PS2_L2.csv,,,,,,,,,,,,,,,,,,,,,,,,,,,,,0,1,1,1,0,13,13,13,,,,,,,,,,,,,,,,,,,537.4666420419235,q,0.7869363750796765,538.3259594170377,5,1.909880458842963,,,,270859,B,2024-07-25_15h31.28.013,EPIDM,2023.1.2,None,
5940.jpg,9411.jpg,0 Points,0 Points,106 points,PS2_L2.csv,,,,,,,,,,,,,,,,,,,,,,,,,,,,,0,1,1,1,0,14,14,14,,,,,,,,,,,,,,,,,,,544.5642566669267,p,1.2104700829368085,545.8482413750608,,,,,,270859,B,2024-07-25_15h31.28.013,EPIDM,2023.1.2,None,
4533.jpg,2385.jpg,3 Points,3 Points,109 points,PS2_L2.csv,,,,,,,,,,,,,,,,,,,,,,,,,,,,,0,1,1,1,0,15,15,15,,,,,,,,,,,,,,,,,,,550.0862670000643,p,1.5355333748739213,551.6981149169151,,,,,,270859,B,2024-07-25_15h31.28.013,EPIDM,2023.1.2,None,
9340.jpg,6910.jpg,0 Points,0 Points,109 points,PS2_L2.csv,,,,,,,,,,,,,,,,,,,,,,,,,,,,,0,1,1,1,0,16,16,16,,,,,,,,,,,,,,,,,,,555.9452349590138,p,0.9159801658242941,556.9329441250302,,,,,,270859,B,2024-07-25_15h31.28.013,EPIDM,2023.1.2,None,
8350.jpg,7190.jpg,5 Points,5 Points,114 points,PS2_L2.csv,,,,,,,,,,,,,,,,,,,,,,,,,,,,,0,1,1,1,0,17,17,17,,,,,,,,,,,,,,,,,,,561.1815359999891,q,0.6004687498789281,561.8793439590372,,,,,,270859,B,2024-07-25_15h31.28.013,EPIDM,2023.1.2,None,
6211.jpg,9611.jpg,3 Points,3 Points,117 points ,PS2_L2.csv,,,,,,,,,,,,,,,,,,,,,,,,,,,,,0,1,1,1,0,18,18,18,,,,,,,,,,,,,,,,,,,566.1172664170153,p,1.4322521667927504,567.6245642919093,,,,,,270859,B,2024-07-25_15h31.28.013,EPIDM,2023.1.2,None,
2053.jpg,9415.jpg,4 Points,4 Points,121 points,PS2_L2.csv,,,,,,,,,,,,,,,,,,,,,,,,,,,,,0,1,1,1,0,19,19,19,,,,,,,,,,,,,,,,,,,571.8714654590003,q,1.165946666849777,573.0972282500006,,,,,,270859,B,2024-07-25_15h31.28.013,EPIDM,2023.1.2,None,
2110.jpg,7260.jpg,5 Points,5 Points,126 points,PS2_L2.csv,,,,,,,,,,,,,,,,,,,,,,,,,,,,,0,1,1,1,0,20,20,20,,,,,,,,,,,,,,,,,,,577.3611693340354,p,1.043957415735349,578.4772702918854,,,,,,270859,B,2024-07-25_15h31.28.013,EPIDM,2023.1.2,None,
2030.jpg,2495.jpg,0 Points,0 Points,126 points,PS2_L2.csv,,,,,,,,,,,,,,,,,,,,,,,,,,,,,0,1,1,1,0,21,21,21,,,,,,,,,,,,,,,,,,,582.7279795838986,q,1.300983958877623,584.1075723748654,,,,,,270859,B,2024-07-25_15h31.28.013,EPIDM,2023.1.2,None,
1302.jpg,2700.jpg,3 Points,3 Points,129 points,PS2_L2.csv,,,,,,,,,,,,,,,,,,,,,,,,,,,,,0,1,1,1,0,22,22,22,,,,,,,,,,,,,,,,,,,588.3554900418967,q,1.8093620829749852,590.2349482090212,,,,,,270859,B,2024-07-25_15h31.28.013,EPIDM,2023.1.2,None,
9010.jpg,9253.jpg,0 Points,0 Points,129 points,PS2_L2.csv,,,,,,,,,,,,,,,,,,,,,,,,,,,,,0,1,1,1,0,23,23,23,,,,,,,,,,,,,,,,,,,594.5045227920637,q,1.4211200419813395,595.9967279590201,,,606.4671765000094,space,2.153404250042513,270859,B,2024-07-25_15h31.28.013,EPIDM,2023.1.2,None,
1303.jpg,2000.jpg,0 Points,0 Points,129 points,PS2_L3.csv,,,,,,,,,,,,,,,,,,,,,,,,,,,,,0,2,2,2,0,0,0,0,,,,,,,,,,,,,,,,,,,611.9329783339053,p,1.2467944158706814,613.2552569999825,,,,,,270859,B,2024-07-25_15h31.28.013,EPIDM,2023.1.2,None,
2200.jpg,4598.jpg,1 Point,1 Point,130 points,PS2_L3.csv,,,,,,,,,,,,,,,,,,,,,,,,,,,,,0,2,2,2,0,1,1,1,,,,,,,,,,,,,,,,,,,617.5126585839316,p,1.2228260410483927,618.8049432090484,1,1.7068194588646293,,,,270859,B,2024-07-25_15h31.28.013,EPIDM,2023.1.2,None,
6190.jpg,3120.jpg,5 Points,5 Points,135 points,PS2_L3.csv,,,,,,,,,,,,,,,,,,,,,,,,,,,,,0,2,2,2,0,2,2,2,,,,,,,,,,,,,,,,,,,624.8436264169868,q,1.0240262907464057,625.9491284589749,,,,,,270859,B,2024-07-25_15h31.28.013,EPIDM,2023.1.2,None,
2570.jpg,5500.jpg,3 Points,3 Points,138 points,PS2_L3.csv,,,,,,,,,,,,,,,,,,,,,,,,,,,,,0,2,2,2,0,3,3,3,,,,,,,,,,,,,,,,,,,630.1844237500336,p,0.7505025828722864,631.0042970420327,,,,,,270859,B,2024-07-25_15h31.28.013,EPIDM,2023.1.2,None,
8460.jpg,8330.jpg,0 Points,0 Points,138 points,PS2_L3.csv,,,,,,,,,,,,,,,,,,,,,,,,,,,,,0,2,2,2,0,4,4,4,,,,,,,,,,,,,,,,,,,635.2525679168757,q,0.8147268330212682,636.1342593750451,,,,,,270859,B,2024-07-25_15h31.28.013,EPIDM,2023.1.2,None,
9320.jpg,9007.jpg,0 Points,0 Points,138 points,PS2_L3.csv,,,,,,,,,,,,,,,,,,,,,,,,,,,,,0,2,2,2,0,5,5,5,,,,,,,,,,,,,,,,,,,640.3792497089598,p,0.7694263330195099,641.2277657499071,,,,,,270859,B,2024-07-25_15h31.28.013,EPIDM,2023.1.2,None,
2650.jpg,4531.jpg,5 Points,5 Points,143 points,PS2_L3.csv,,,,,,,,,,,,,,,,,,,,,,,,,,,,,0,2,2,2,0,6,6,6,,,,,,,,,,,,,,,,,,,645.478868624894,q,0.9722994999028742,646.5298841248732,,,,,,270859,B,2024-07-25_15h31.28.013,EPIDM,2023.1.2,None,
4100.jpg,6570.2.jpg,3 Points,3 Points,146 points,PS2_L3.csv,,,,,,,,,,,,,,,,,,,,,,,,,,,,,0,2,2,2,0,7,7,7,,,,,,,,,,,,,,,,,,,650.7760997919831,q,1.5960628748871386,652.4459448750131,,,,,,270859,B,2024-07-25_15h31.28.013,EPIDM,2023.1.2,None,
3102.jpg,F032.jpg,1 Point,1 Point,147 points,PS2_L3.csv,,,,,,,,,,,,,,,,,,,,,,,,,,,,,0,2,2,2,0,8,8,8,,,,,,,,,,,,,,,,,,,656.6821389589459,p,0.5775732088368386,657.370049542049,,,,,,270859,B,2024-07-25_15h31.28.013,EPIDM,2023.1.2,None,
2240.jpg,5010.jpg,5 Points,5 Points,152 points,PS2_L3.csv,,,,,,,,,,,,,,,,,,,,,,,,,,,,,0,2,2,2,0,9,9,9,,,,,,,,,,,,,,,,,,,661.5858337499667,p,1.2577557498589158,662.9179939590394,,,,,,270859,B,2024-07-25_15h31.28.013,EPIDM,2023.1.2,None,
4605.jpg,1510.jpg,4 Points,4 Points,156 points,PS2_L3.csv,,,,,,,,,,,,,,,,,,,,,,,,,,,,,0,2,2,2,0,10,10,10,,,,,,,,,,,,,,,,,,,667.1589956670068,p,1.541752832941711,668.7706764999311,,,,,,270859,B,2024-07-25_15h31.28.013,EPIDM,2023.1.2,None,
9490.jpg,9210.jpg,1 Point,1 Point,157 points,PS2_L3.csv,,,,,,,,,,,,,,,,,,,,,,,,,,,,,0,2,2,2,0,11,11,11,,,,,,,,,,,,,,,,,,,673.0108702920843,p,1.039687209064141,674.1074734169524,,,,,,270859,B,2024-07-25_15h31.28.013,EPIDM,2023.1.2,None,
6821.jpg,9622.jpg,2 Points,2 Points,159 points,PS2_L3.csv,,,,,,,,,,,,,,,,,,,,,,,,,,,,,0,2,2,2,0,12,12,12,,,,,,,,,,,,,,,,,,,678.3692147089168,q,1.6735673339571804,680.1021067500114,,,,,,270859,B,2024-07-25_15h31.28.013,EPIDM,2023.1.2,None,
2681.jpg,7100.jpg,3 Points,3 Points,162 points,PS2_L3.csv,,,,,,,,,,,,,,,,,,,,,,,,,,,,,0,2,2,2,0,13,13,13,,,,,,,,,,,,,,,,,,,684.3678915840574,p,1.1793727499898523,685.6070517499465,3,1.9411600828170776,,,,270859,B,2024-07-25_15h31.28.013,EPIDM,2023.1.2,None,
5622.jpg,9156.jpg,4 Points,4 Points,166 points,PS2_L3.csv,,,,,,,,,,,,,,,,,,,,,,,,,,,,,0,2,2,2,0,14,14,14,,,,,,,,,,,,,,,,,,,691.877645208966,q,0.7972030420787632,692.7455289999489,,,,,,270859,B,2024-07-25_15h31.28.013,EPIDM,2023.1.2,None,
1111.jpg,1040.jpg,0 Points,0 Points,166 points,PS2_L3.csv,,,,,,,,,,,,,,,,,,,,,,,,,,,,,0,2,2,2,0,15,15,15,,,,,,,,,,,,,,,,,,,696.9826207088772,q,1.2681508329696953,698.3319397498854,,,,,,270859,B,2024-07-25_15h31.28.013,EPIDM,2023.1.2,None,
1112.jpg,6230.jpg,3 Points,3 Points,169 points,PS2_L3.csv,,,,,,,,,,,,,,,,,,,,,,,,,,,,,0,2,2,2,0,16,16,16,,,,,,,,,,,,,,,,,,,702.5802252499852,q,1.101921624969691,703.7565311249346,,,,,,270859,B,2024-07-25_15h31.28.013,EPIDM,2023.1.2,None,
8161.jpg,1900.jpg,4 Points,4 Points,173 points,PS2_L3.csv,,,,,,,,,,,,,,,,,,,,,,,,,,,,,0,2,2,2,0,17,17,17,,,,,,,,,,,,,,,,,,,707.9936764589511,p,0.7695212499238551,708.8352902920451,,,,,,270859,B,2024-07-25_15h31.28.013,EPIDM,2023.1.2,None,
9800.jpg,9433.jpg,1 Point,1 Point,174 points,PS2_L3.csv,,,,,,,,,,,,,,,,,,,,,,,,,,,,,0,2,2,2,0,18,18,18,,,,,,,,,,,,,,,,,,,713.0846395839471,q,1.4149068328551948,714.5541058338713,,,,,,270859,B,2024-07-25_15h31.28.013,EPIDM,2023.1.2,None,
1390.jpg,9421.jpg,2 Points,2 Points,176 points,PS2_L3.csv,,,,,,,,,,,,,,,,,,,,,,,,,,,,,0,2,2,2,0,19,19,19,,,,,,,,,,,,,,,,,,,718.8181487920228,q,1.7199519998393953,720.604196459055,,,,,,270859,B,2024-07-25_15h31.28.013,EPIDM,2023.1.2,None,
2850.jpg,4532.jpg,3 Points,3 Points,179 points,PS2_L3.csv,,,,,,,,,,,,,,,,,,,,,,,,,,,,,0,2,2,2,0,20,20,20,,,,,,,,,,,,,,,,,,,724.8467104588635,p,0.686318791937083,725.5980660419445,,,,,,270859,B,2024-07-25_15h31.28.013,EPIDM,2023.1.2,None,
1560.jpg,8185.jpg,0 Points,0 Points,179 points,PS2_L3.csv,,,,,,,,,,,,,,,,,,,,,,,,,,,,,0,2,2,2,0,21,21,21,,,,,,,,,,,,,,,,,,,729.8467161250301,p,1.1227602500002831,731.037411083933,,,,,,270859,B,2024-07-25_15h31.28.013,EPIDM,2023.1.2,None,
6314.jpg,O022.jpg,2 Points,2 Points,181 points,PS2_L3.csv,,,,,,,,,,,,,,,,,,,,,,,,,,,,,0,2,2,2,0,22,22,22,,,,,,,,,,,,,,,,,,,735.2835694588721,p,1.3830527917016298,736.781976667,,,,,,270859,B,2024-07-25_15h31.28.013,EPIDM,2023.1.2,None,
4274.jpg,8160.jpg,2 Points,2 Points,183 points,PS2_L3.csv,,,,,,,,,,,,,,,,,,,,,,,,,,,,,0,2,2,2,0,23,23,23,,,,,,,,,,,,,,,,,,,740.9906172920018,q,1.2588727918919176,742.3523630839773,,,752.7724576250184,space,0.876177208032459,270859,B,2024-07-25_15h31.28.013,EPIDM,2023.1.2,None,
8117.jpg,2880.jpg,5 Points,5 Points,188 points,PS2_L4.csv,,,,,,,,,,,,,,,,,,,,,,,,,,,,,0,3,3,3,0,0,0,0,,,,,,,,,,,,,,,,,,,756.964668917004,p,0.949944457737729,757.9944862090051,,,,,,270859,B,2024-07-25_15h31.28.013,EPIDM,2023.1.2,None,
3220.jpg,3063.jpg,5 Points,5 Points,193 points,PS2_L4.csv,,,,,,,,,,,,,,,,,,,,,,,,,,,,,0,3,3,3,0,1,1,1,,,,,,,,,,,,,,,,,,,762.2335864999332,p,0.9676054581068456,763.2602088339627,5,1.6219093748368323,,,,270859,B,2024-07-25_15h31.28.013,EPIDM,2023.1.2,None,
9040.jpg,1120.jpg,3 Points,3 Points,196 points,PS2_L4.csv,,,,,,,,,,,,,,,,,,,,,,,,,,,,,0,3,3,3,0,2,2,2,,,,,,,,,,,,,,,,,,,769.1990779589396,p,1.4739486249163747,770.7429550839588,,,,,,270859,B,2024-07-25_15h31.28.013,EPIDM,2023.1.2,None,
5030.jpg,1670.jpg,3 Points,3 Points,199 points,PS2_L4.csv,,,,,,,,,,,,,,,,,,,,,,,,,,,,,0,3,3,3,0,3,3,3,,,,,,,,,,,,,,,,,,,774.9940682919696,p,1.3112960830330849,776.3764501248952,,,,,,270859,B,2024-07-25_15h31.28.013,EPIDM,2023.1.2,None,
2276.jpg,6540.jpg,3 Points,3 Points,202 points,PS2_L4.csv,,,,,,,,,,,,,,,,,,,,,,,,,,,,,0,3,3,3,0,4,4,4,,,,,,,,,,,,,,,,,,,780.633492999943,p,0.9752094589639455,781.6664275000803,,,,,,270859,B,2024-07-25_15h31.28.013,EPIDM,2023.1.2,None,
1540.jpg,2600.jpg,1 Point,1 Point,203 points,PS2_L4.csv,,,,,,,,,,,,,,,,,,,,,,,,,,,,,0,3,3,3,0,5,5,5,,,,,,,,,,,,,,,,,,,785.9195003339555,q,0.9443366250488907,786.9335366250016,,,,,,270859,B,2024-07-25_15h31.28.013,EPIDM,2023.1.2,None,
8465.jpg,8400.jpg,1 Point,1 Point,204 points,PS2_L4.csv,,,,,,,,,,,,,,,,,,,,,,,,,,,,,0,3,3,3,0,6,6,6,,,,,,,,,,,,,,,,,,,791.1899098339491,p,0.6500637498684227,791.9032672499306,,,,,,270859,B,2024-07-25_15h31.28.013,EPIDM,2023.1.2,None,
3110.jpg,9000.jpg,4 Points,4 Points,208 points,PS2_L4.csv,,,,,,,,,,,,,,,,,,,,,,,,,,,,,0,3,3,3,0,7,7,7,,,,,,,,,,,,,,,,,,,796.1667101669591,q,0.8257771250791848,797.0560205839574,,,,,,270859,B,2024-07-25_15h31.28.013,EPIDM,2023.1.2,None,
9570.jpg,6610.jpg,0 Points,0 Points,208 points,PS2_L4.csv,,,,,,,,,,,,,,,,,,,,,,,,,,,,,0,3,3,3,0,8,8,8,,,,,,,,,,,,,,,,,,,801.3144472918939,p,0.8296577909495682,802.2075809999369,,,,,,270859,B,2024-07-25_15h31.28.013,EPIDM,2023.1.2,None,
2690.jpg,9360.jpg,1 Point,1 Point,209 points,PS2_L4.csv,,,,,,,,,,,,,,,,,,,,,,,,,,,,,0,3,3,3,0,9,9,9,,,,,,,,,,,,,,,,,,,806.4581735420506,q,0.5985502919647843,807.1235505840741,,,,,,270859,B,2024-07-25_15h31.28.013,EPIDM,2023.1.2,None,
8250.jpg,1313.jpg,4 Points,4 Points,213 points,PS2_L4.csv,,,,,,,,,,,,,,,,,,,,,,,,,,,,,0,3,3,3,0,10,10,10,,,,,,,,,,,,,,,,,,,811.3728565420024,p,0.5871213339269161,812.0339825840201,,,,,,270859,B,2024-07-25_15h31.28.013,EPIDM,2023.1.2,None,
3022.jpg,2352.2.jpg,0 Points,0 Points,213 points,PS2_L4.csv,,,,,,,,,,,,,,,,,,,,,,,,,,,,,0,3,3,3,0,11,11,11,,,,,,,,,,,,,,,,,,,816.2750874590129,p,0.725215082988143,817.078757249983,,,,,,270859,B,2024-07-25_15h31.28.013,EPIDM,2023.1.2,None,
9920.jpg,3068.jpg,5 Points,5 Points,218 points,PS2_L4.csv,,,,,,,,,,,,,,,,,,,,,,,,,,,,,0,3,3,3,0,12,12,12,,,,,,,,,,,,,,,,,,,821.3327503339387,p,0.9980493749026209,822.3974467918742,,,,,,270859,B,2024-07-25_15h31.28.013,EPIDM,2023.1.2,None,
7234.jpg,5533.jpg,3 Points,3 Points,221 points,PS2_L4.csv,,,,,,,,,,,,,,,,,,,,,,,,,,,,,0,3,3,3,0,13,13,13,,,,,,,,,,,,,,,,,,,826.6555008750875,p,0.728047417011112,827.4580729589798,3,1.8396723340265453,,,,270859,B,2024-07-25_15h31.28.013,EPIDM,2023.1.2,None,
6250.1.jpg,3301.jpg,0 Points,0 Points,221 points,PS2_L4.csv,,,,,,,,,,,,,,,,,,,,,,,,,,,,,0,3,3,3,0,14,14,14,,,,,,,,,,,,,,,,,,,833.6283196250442,p,0.7228425829671323,834.4161350419745,,,,,,270859,B,2024-07-25_15h31.28.013,EPIDM,2023.1.2,None,
2518.jpg,2381.jpg,1 Point,1 Point,222 points,PS2_L4.csv,,,,,,,,,,,,,,,,,,,,,,,,,,,,,0,3,3,3,0,15,15,15,,,,,,,,,,,,,,,,,,,838.6656485418789,p,0.7424896250013262,839.4768136669882,,,,,,270859,B,2024-07-25_15h31.28.013,EPIDM,2023.1.2,None,
1910.jpg,2575.jpg,2 Points,2 Points,224 points,PS2_L4.csv,,,,,,,,,,,,,,,,,,,,,,,,,,,,,0,3,3,3,0,16,16,16,,,,,,,,,,,,,,,,,,,843.7298610000871,q,0.63730483292602,844.4267750838771,,,,,,270859,B,2024-07-25_15h31.28.013,EPIDM,2023.1.2,None,
1275.jpg,3150.jpg,1 Point,1 Point,225 points,PS2_L4.csv,,,,,,,,,,,,,,,,,,,,,,,,,,,,,0,3,3,3,0,17,17,17,,,,,,,,,,,,,,,,,,,848.6979929590598,q,1.2698312080465257,850.0341762499884,,,,,,270859,B,2024-07-25_15h31.28.013,EPIDM,2023.1.2,None,
2702.jpg,1590.jpg,5 Points,5 Points,230 points,PS2_L4.csv,,,,,,,,,,,,,,,,,,,,,,,,,,,,,0,3,3,3,0,18,18,18,,,,,,,,,,,,,,,,,,,854.2909134589136,q,0.8446748338174075,855.2158733340912,,,,,,270859,B,2024-07-25_15h31.28.013,EPIDM,2023.1.2,None,
8480.jpg,6410.jpg,1 Point,1 Point,231 points,PS2_L4.csv,,,,,,,,,,,,,,,,,,,,,,,,,,,,,0,3,3,3,0,19,19,19,,,,,,,,,,,,,,,,,,,859.4656517920084,q,0.8929930408485234,860.431639791932,,,,,,270859,B,2024-07-25_15h31.28.013,EPIDM,2023.1.2,None,
5621.jpg,5534.jpg,3 Points,3 Points,234 points,PS2_L4.csv,,,,,,,,,,,,,,,,,,,,,,,,,,,,,0,3,3,3,0,20,20,20,,,,,,,,,,,,,,,,,,,864.674604000058,q,1.0431149168871343,865.7953871248756,,,,,,270859,B,2024-07-25_15h31.28.013,EPIDM,2023.1.2,None,
5972.jpg,6838.jpg,5 Points,5 Points,239 points,PS2_L4.csv,,,,,,,,,,,,,,,,,,,,,,,,,,,,,0,3,3,3,0,21,21,21,,,,,,,,,,,,,,,,,,,870.0421825840604,p,0.9320218339562416,871.040029667085,,,,,,270859,B,2024-07-25_15h31.28.013,EPIDM,2023.1.2,None,
2580.jpg,8300.jpg,3 Points,3 Points,242 points,PS2_L4.csv,,,,,,,,,,,,,,,,,,,,,,,,,,,,,0,3,3,3,0,22,22,22,,,,,,,,,,,,,,,,,,,875.2929581669159,p,0.8495747919660062,876.2108815000392,,,,,,270859,B,2024-07-25_15h31.28.013,EPIDM,2023.1.2,None,
7280.jpg,7160.jpg,0 Points,0 Points,242 points,PS2_L4.csv,,,,,,,,,,,,,,,,,,,,,,,,,,,,,0,3,3,3,0,23,23,23,,,,,,,,,,,,,,,,,,,880.4609514588956,q,1.0674267918802798,881.6096272089053,,,892.0722911250778,space,2.3344912079628557,270859,B,2024-07-25_15h31.28.013,EPIDM,2023.1.2,None,
6243.jpg,2752.jpg,2 Points,2 Points,244 points,PS2_L5.csv,,,,,,,,,,,,,,,,,,,,,,,,,,,,,0,4,4,4,0,0,0,0,,,,,,,,,,,,,,,,,,,897.7277954169549,p,1.1839674159418792,898.9837701669894,,,,,,270859,B,2024-07-25_15h31.28.013,EPIDM,2023.1.2,None,
8340.jpg,7546.jpg,2 Points,2 Points,246 points,PS2_L5.csv,,,,,,,,,,,,,,,,,,,,,,,,,,,,,0,4,4,4,0,1,1,1,,,,,,,,,,,,,,,,,,,903.2240840420127,q,1.1176843331195414,904.4169017919339,2,2.1414669998921454,,,,270859,B,2024-07-25_15h31.28.013,EPIDM,2023.1.2,None,
1022.jpg,6930.jpg,1 Point,1 Point,247 points,PS2_L5.csv,,,,,,,,,,,,,,,,,,,,,,,,,,,,,0,4,4,4,0,2,2,2,,,,,,,,,,,,,,,,,,,910.8701842920855,q,1.4155322078149766,912.3503284170292,,,,,,270859,B,2024-07-25_15h31.28.013,EPIDM,2023.1.2,None,
7230.jpg,7570.jpg,5 Points,5 Points,252 points,PS2_L5.csv,,,,,,,,,,,,,,,,,,,,,,,,,,,,,0,4,4,4,0,3,3,3,,,,,,,,,,,,,,,,,,,916.6092088338919,q,0.9491001248825341,917.6333507089876,,,,,,270859,B,2024-07-25_15h31.28.013,EPIDM,2023.1.2,None,
5760.jpg,1602.jpg,1 Point,1 Point,253 points,PS2_L5.csv,,,,,,,,,,,,,,,,,,,,,,,,,,,,,0,4,4,4,0,4,4,4,,,,,,,,,,,,,,,,,,,921.872430624906,p,1.0550827088300139,923.0045631250832,,,,,,270859,B,2024-07-25_15h31.28.013,EPIDM,2023.1.2,None,
9584.jpg,3400.jpg,2 Points,2 Points,255 points,PS2_L5.csv,,,,,,,,,,,,,,,,,,,,,,,,,,,,,0,4,4,4,0,5,5,5,,,,,,,,,,,,,,,,,,,927.2559649590403,p,1.2378146660048515,928.5618071670178,,,,,,270859,B,2024-07-25_15h31.28.013,EPIDM,2023.1.2,None,
2560.jpg,5270.jpg,4 Points,4 Points,259 points,PS2_L5.csv,,,,,,,,,,,,,,,,,,,,,,,,,,,,,0,4,4,4,0,6,6,6,,,,,,,,,,,,,,,,,,,932.8098803339526,p,1.0913331669289619,933.9734539999627,,,,,,270859,B,2024-07-25_15h31.28.013,EPIDM,2023.1.2,None,
3350.jpg,3210.jpg,1 Point,1 Point,260 points,PS2_L5.csv,,,,,,,,,,,,,,,,,,,,,,,,,,,,,0,4,4,4,0,7,7,7,,,,,,,,,,,,,,,,,,,938.2208057919051,p,0.9998972499743104,939.2885160420556,,,,,,270859,B,2024-07-25_15h31.28.013,EPIDM,2023.1.2,None,
5455.jpg,5220.jpg,0 Points,0 Points,260 points,PS2_L5.csv,,,,,,,,,,,,,,,,,,,,,,,,,,,,,0,4,4,4,0,8,8,8,,,,,,,,,,,,,,,,,,,943.5462530839723,p,0.8584385837893933,944.4705584999174,,,,,,270859,B,2024-07-25_15h31.28.013,EPIDM,2023.1.2,None,
7920.jpg,9102.jpg,3 Points,3 Points,263 points,PS2_L5.csv,,,,,,,,,,,,,,,,,,,,,,,,,,,,,0,4,4,4,0,9,9,9,,,,,,,,,,,,,,,,,,,948.7323771249503,p,1.1365812497679144,949.9428188339807,,,,,,270859,B,2024-07-25_15h31.28.013,EPIDM,2023.1.2,None,
1301.jpg,1070.jpg,2 Points,2 Points,265 points,PS2_L5.csv,,,,,,,,,,,,,,,,,,,,,,,,,,,,,0,4,4,4,0,10,10,10,,,,,,,,,,,,,,,,,,,954.19201087486,q,0.934889166848734,955.2037835419178,,,,,,270859,B,2024-07-25_15h31.28.013,EPIDM,2023.1.2,None,
5982.jpg,5260.jpg,5 Points,5 Points,270 points,PS2_L5.csv,,,,,,,,,,,,,,,,,,,,,,,,,,,,,0,4,4,4,0,11,11,11,,,,,,,,,,,,,,,,,,,959.4618432088755,p,0.5421570409089327,960.0837820000015,,,,,,270859,B,2024-07-25_15h31.28.013,EPIDM,2023.1.2,None,
5000.jpg,8180.jpg,4 Points,4 Points,274 points,PS2_L5.csv,,,,,,,,,,,,,,,,,,,,,,,,,,,,,0,4,4,4,0,12,12,12,,,,,,,,,,,,,,,,,,,964.3209714998957,p,0.7067614169791341,965.1063415838871,,,,,,270859,B,2024-07-25_15h31.28.013,EPIDM,2023.1.2,None,
6244.jpg,9265.jpg,0 Points,0 Points,274 points,PS2_L5.csv,,,,,,,,,,,,,,,,,,,,,,,,,,,,,0,4,4,4,0,13,13,13,,,,,,,,,,,,,,,,,,,969.346189541975,p,1.0975382088217884,970.5119887089822,0,1.9757841248065233,,,,270859,B,2024-07-25_15h31.28.013,EPIDM,2023.1.2,None,
5990.jpg,5780.jpg,3 Points,3 Points,277 points,PS2_L5.csv,,,,,,,,,,,,,,,,,,,,,,,,,,,,,0,4,4,4,0,14,14,14,,,,,,,,,,,,,,,,,,,976.7984368340112,q,0.717896374873817,977.5861341669224,,,,,,270859,B,2024-07-25_15h31.28.013,EPIDM,2023.1.2,None,
9440.jpg,6350.jpg,4 Points,4 Points,281 points,PS2_L5.csv,,,,,,,,,,,,,,,,,,,,,,,,,,,,,0,4,4,4,0,15,15,15,,,,,,,,,,,,,,,,,,,981.8415222498588,q,1.1381641668267548,983.0369879999198,,,,,,270859,B,2024-07-25_15h31.28.013,EPIDM,2023.1.2,None,
1850.jpg,5623.jpg,5 Points,5 Points,286 points,PS2_L5.csv,,,,,,,,,,,,,,,,,,,,,,,,,,,,,0,4,4,4,0,16,16,16,,,,,,,,,,,,,,,,,,,987.29471233394,p,0.8534567079041153,988.2122393338941,,,,,,270859,B,2024-07-25_15h31.28.013,EPIDM,2023.1.2,None,
5200.jpg,5020.jpg,0 Points,0 Points,286 points,PS2_L5.csv,,,,,,,,,,,,,,,,,,,,,,,,,,,,,0,4,4,4,0,17,17,17,,,,,,,,,,,,,,,,,,,992.4611288339365,p,1.6311121659819037,994.1603563749231,,,,,,270859,B,2024-07-25_15h31.28.013,EPIDM,2023.1.2,None,
P211.jpg,9041.jpg,4 Points,4 Points,290 points,PS2_L5.csv,,,,,,,,,,,,,,,,,,,,,,,,,,,,,0,4,4,4,0,18,18,18,,,,,,,,,,,,,,,,,,,998.4061744168866,p,1.2125292499549687,999.7422265000641,,,,,,270859,B,2024-07-25_15h31.28.013,EPIDM,2023.1.2,None,
5600.jpg,9080.jpg,5 Points,5 Points,295 points,PS2_L5.csv,,,,,,,,,,,,,,,,,,,,,,,,,,,,,0,4,4,4,0,19,19,19,,,,,,,,,,,,,,,,,,,1003.947674541967,q,0.9034782499074936,1004.929564292077,,,,,,270859,B,2024-07-25_15h31.28.013,EPIDM,2023.1.2,None,
6800.jpg,9190.jpg,0 Points,0 Points,295 points,PS2_L5.csv,,,,,,,,,,,,,,,,,,,,,,,,,,,,,0,4,4,4,0,20,20,20,,,,,,,,,,,,,,,,,,,1009.1701499170158,p,0.9448008327744901,1010.1884699999355,,,,,,270859,B,2024-07-25_15h31.28.013,EPIDM,2023.1.2,None,
3280.jpg,9270.jpg,0 Points,0 Points,295 points,PS2_L5.csv,,,,,,,,,,,,,,,,,,,,,,,,,,,,,0,4,4,4,0,21,21,21,,,,,,,,,,,,,,,,,,,1014.4353448748589,q,1.031639707973227,1015.5199349168688,,,,,,270859,B,2024-07-25_15h31.28.013,EPIDM,2023.1.2,None,
4613.jpg,2720.jpg,4 Points,4 Points,299 points,PS2_L5.csv,,,,,,,,,,,,,,,,,,,,,,,,,,,,,0,4,4,4,0,22,22,22,,,,,,,,,,,,,,,,,,,1019.7840666249394,q,1.4351704169530421,1021.2927970839664,,,,,,270859,B,2024-07-25_15h31.28.013,EPIDM,2023.1.2,None,
1930.jpg,9008.jpg,1 Point,1 Point,300 points,PS2_L5.csv,,,,,,,,,,,,,,,,,,,,,,,,,,,,,0,4,4,4,0,23,23,23,,,,,,,,,,,,,,,,,,,1025.5531323750038,q,0.8259154590778053,1026.4527570419014,,,1036.9118810000364,space,1.0587456249631941,270859,B,2024-07-25_15h31.28.013,EPIDM,2023.1.2,None,
2190.jpg,7503.jpg,2 Points,2 Points,302 points,PS2_L6.csv,,,,,,,,,,,,,,,,,,,,,,,,,,,,,0,5,5,5,0,0,0,0,,,,,,,,,,,,,,,,,,,1041.2861519588623,p,0.69307641685009,1042.0561281249393,,,,,,270859,B,2024-07-25_15h31.28.013,EPIDM,2023.1.2,None,
2490.jpg,2590.jpg,4 Points,4 Points,306 points,PS2_L6.csv,,,,,,,,,,,,,,,,,,,,,,,,,,,,,0,5,5,5,0,1,1,1,,,,,,,,,,,,,,,,,,,1046.29748079204,q,0.7216184590943158,1047.095243708929,4,1.8620715418364853,,,,270859,B,2024-07-25_15h31.28.013,EPIDM,2023.1.2,None,
9592.jpg,1300.jpg,2 Points,2 Points,308 points,PS2_L6.csv,,,,,,,,,,,,,,,,,,,,,,,,,,,,,0,5,5,5,0,2,2,2,,,,,,,,,,,,,,,,,,,1053.2846873339731,p,0.8447277918457985,1054.1848910839763,,,,,,270859,B,2024-07-25_15h31.28.013,EPIDM,2023.1.2,None,
8230.jpg,2682.jpg,5 Points,5 Points,313 points,PS2_L6.csv,,,,,,,,,,,,,,,,,,,,,,,,,,,,,0,5,5,5,0,3,3,3,,,,,,,,,,,,,,,,,,,1058.439604624873,p,1.0108197499066591,1059.5106452920008,,,,,,270859,B,2024-07-25_15h31.28.013,EPIDM,2023.1.2,None,
9090.jpg,7580.jpg,3 Points,3 Points,316 points,PS2_L6.csv,,,,,,,,,,,,,,,,,,,,,,,,,,,,,0,5,5,5,0,4,4,4,,,,,,,,,,,,,,,,,,,1063.759195083985,p,0.8028276248369366,1064.6422131250147,,,,,,270859,B,2024-07-25_15h31.28.013,EPIDM,2023.1.2,None,
3530.jpg,6213.jpg,1 Point,1 Point,317 points,PS2_L6.csv,,,,,,,,,,,,,,,,,,,,,,,,,,,,,0,5,5,5,0,5,5,5,,,,,,,,,,,,,,,,,,,1068.8848876669072,q,1.4288680830504745,1070.3926566669252,,,,,,270859,B,2024-07-25_15h31.28.013,EPIDM,2023.1.2,None,
1640.jpg,5531.jpg,3 Points,3 Points,320 points,PS2_L6.csv,,,,,,,,,,,,,,,,,,,,,,,,,,,,,0,5,5,5,0,6,6,6,,,,,,,,,,,,,,,,,,,1074.643103749957,p,0.9912013749126345,1075.7135028340854,,,,,,270859,B,2024-07-25_15h31.28.013,EPIDM,2023.1.2,None,
3064.jpg,3168.jpg,4 Points,4 Points,324 points,PS2_L6.csv,,,,,,,,,,,,,,,,,,,,,,,,,,,,,0,5,5,5,0,7,7,7,,,,,,,,,,,,,,,,,,,1079.96612287499,p,1.027919374871999,1081.0578126250766,,,,,,270859,B,2024-07-25_15h31.28.013,EPIDM,2023.1.2,None,
2710.jpg,9252.jpg,1 Point,1 Point,325 points,PS2_L6.csv,,,,,,,,,,,,,,,,,,,,,,,,,,,,,0,5,5,5,0,8,8,8,,,,,,,,,,,,,,,,,,,1085.3055957918987,q,0.9195040839258581,1086.2861567500513,,,,,,270859,B,2024-07-25_15h31.28.013,EPIDM,2023.1.2,None,
2260.jpg,2830.jpg,5 Points,5 Points,330 points,PS2_L6.csv,,,,,,,,,,,,,,,,,,,,,,,,,,,,,0,5,5,5,0,9,9,9,,,,,,,,,,,,,,,,,,,1090.5428542089649,p,0.3938943329267204,1091.011658542091,,,,,,270859,B,2024-07-25_15h31.28.013,EPIDM,2023.1.2,None,
6510.jpg,A074.jpg,2 Points,2 Points,332 points,PS2_L6.csv,,,,,,,,,,,,,,,,,,,,,,,,,,,,,0,5,5,5,0,10,10,10,,,,,,,,,,,,,,,,,,,1095.276179583976,p,1.0777451659087092,1096.4634753749706,,,,,,270859,B,2024-07-25_15h31.28.013,EPIDM,2023.1.2,None,
5300.jpg,2372.jpg,1 Point,1 Point,333 points,PS2_L6.csv,,,,,,,,,,,,,,,,,,,,,,,,,,,,,0,5,5,5,0,11,11,11,,,,,,,,,,,,,,,,,,,1100.6750864170026,q,0.5663277078419924,1101.345639667008,,,,,,270859,B,2024-07-25_15h31.28.013,EPIDM,2023.1.2,None,
2749.jpg,7282.jpg,3 Points,3 Points,336 points,PS2_L6.csv,,,,,,,,,,,,,,,,,,,,,,,,,,,,,0,5,5,5,0,12,12,12,,,,,,,,,,,,,,,,,,,1105.558627374936,p,0.7708004168234766,1106.4024283338804,,,,,,270859,B,2024-07-25_15h31.28.013,EPIDM,2023.1.2,None,
3130.jpg,3500.jpg,4 Points,4 Points,340 points,PS2_L6.csv,,,,,,,,,,,,,,,,,,,,,,,,,,,,,0,5,5,5,0,13,13,13,,,,,,,,,,,,,,,,,,,1110.6382834999822,p,0.9624662077985704,1111.6688126248773,4,1.6633312080521137,,,,270859,B,2024-07-25_15h31.28.013,EPIDM,2023.1.2,None,
6312.jpg,3230.jpg,2 Points,2 Points,342 points,PS2_L6.csv,,,,,,,,,,,,,,,,,,,,,,,,,,,,,0,5,5,5,0,14,14,14,,,,,,,,,,,,,,,,,,,1117.658672709018,q,1.0613036670256406,1118.7904283339158,,,,,,270859,B,2024-07-25_15h31.28.013,EPIDM,2023.1.2,None,
2597.jpg,5870.jpg,5 Points,5 Points,347 points,PS2_L6.csv,,,,,,,,,,,,,,,,,,,,,,,,,,,,,0,5,5,5,0,15,15,15,,,,,,,,,,,,,,,,,,,1123.0482471669093,p,0.7529423339292407,1123.8715182919987,,,,,,270859,B,2024-07-25_15h31.28.013,EPIDM,2023.1.2,None,
8033.jpg,7270.jpg,3 Points,3 Points,350 points,PS2_L6.csv,,,,,,,,,,,,,,,,,,,,,,,,,,,,,0,5,5,5,0,16,16,16,,,,,,,,,,,,,,,,,,,1128.1120567920152,q,0.9685481248889118,1129.1523835000116,,,,,,270859,B,2024-07-25_15h31.28.013,EPIDM,2023.1.2,None,
3170.jpg,6560.jpg,2 Points,2 Points,352 points,PS2_L6.csv,,,,,,,,,,,,,,,,,,,,,,,,,,,,,0,5,5,5,0,17,17,17,,,,,,,,,,,,,,,,,,,1133.3980189589784,p,1.129947790876031,1134.5926908750553,,,,,,270859,B,2024-07-25_15h31.28.013,EPIDM,2023.1.2,None,
6242.jpg,F034.jpg,4 Points,4 Points,356 points,PS2_L6.csv,,,,,,,,,,,,,,,,,,,,,,,,,,,,,0,5,5,5,0,18,18,18,,,,,,,,,,,,,,,,,,,1138.8455586670898,q,1.1226882089395076,1140.0785245420411,,,,,,270859,B,2024-07-25_15h31.28.013,EPIDM,2023.1.2,None,
2485.jpg,7350.jpg,0 Points,0 Points,356 points,PS2_L6.csv,,,,,,,,,,,,,,,,,,,,,,,,,,,,,0,5,5,5,0,19,19,19,,,,,,,,,,,,,,,,,,,1144.2982874999288,p,0.47795899980701506,1144.8626002920792,,,,,,270859,B,2024-07-25_15h31.28.013,EPIDM,2023.1.2,None,
2900.jpg,1101.jpg,3 Points,3 Points,359 points,PS2_L6.csv,,,,,,,,,,,,,,,,,,,,,,,,,,,,,0,5,5,5,0,20,20,20,,,,,,,,,,,,,,,,,,,1149.0984716250096,p,0.7249433328397572,1149.9008645000868,,,,,,270859,B,2024-07-25_15h31.28.013,EPIDM,2023.1.2,None,
7002.jpg,4660.jpg,4 Points,4 Points,363 points,PS2_L6.csv,,,,,,,,,,,,,,,,,,,,,,,,,,,,,0,5,5,5,0,21,21,21,,,,,,,,,,,,,,,,,,,1154.1578781250864,p,0.6341140838339925,1154.8668670840561,,,,,,270859,B,2024-07-25_15h31.28.013,EPIDM,2023.1.2,None,
A025.jpg,1051.jpg,0 Points,0 Points,363 points,PS2_L6.csv,,,,,,,,,,,,,,,,,,,,,,,,,,,,,0,5,5,5,0,22,22,22,,,,,,,,,,,,,,,,,,,1159.111657334026,p,1.3934617498889565,1160.6347735419404,,,,,,270859,B,2024-07-25_15h31.28.013,EPIDM,2023.1.2,None,
4510.jpg,2230.jpg,5 Points,5 Points,368 points,PS2_L6.csv,,,,,,,,,,,,,,,,,,,,,,,,,,,,,0,5,5,5,0,23,23,23,,,,,,,,,,,,,,,,,,,1164.8358341250569,q,0.7320719580166042,1165.6475635420065,,,1176.1591251250356,space,1.2159841661341488,270859,B,2024-07-25_15h31.28.013,EPIDM,2023.1.2,None,
2383.jpg,1616.jpg,2 Points,2 Points,370 points,PS2_L7.csv,,,,,,,,,,,,,,,,,,,,,,,,,,,,,0,6,6,6,0,0,0,0,,,,,,,,,,,,,,,,,,,1180.6968437919859,p,0.9739532091189176,1181.7434052920435,,,,,,270859,B,2024-07-25_15h31.28.013,EPIDM,2023.1.2,None,
1310.jpg,3181.jpg,4 Points,4 Points,374 points,PS2_L7.csv,,,,,,,,,,,,,,,,,,,,,,,,,,,,,0,6,6,6,0,1,1,1,,,,,,,,,,,,,,,,,,,1185.9831586249638,q,0.9758094160351902,1187.0352458339185,4,1.963539166841656,,,,270859,B,2024-07-25_15h31.28.013,EPIDM,2023.1.2,None,
7289.jpg,4534.jpg,0 Points,0 Points,374 points,PS2_L7.csv,,,,,,,,,,,,,,,,,,,,,,,,,,,,,0,6,6,6,0,2,2,2,,,,,,,,,,,,,,,,,,,1193.3135444999207,q,0.6297077918425202,1194.0119712499436,,,,,,270859,B,2024-07-25_15h31.28.013,EPIDM,2023.1.2,None,
6010.jpg,7361.jpg,2 Points,2 Points,376 points,PS2_L7.csv,,,,,,,,,,,,,,,,,,,,,,,,,,,,,0,6,6,6,0,3,3,3,,,,,,,,,,,,,,,,,,,1198.2490523750894,p,0.9175829158630222,1199.2391779590398,,,,,,270859,B,2024-07-25_15h31.28.013,EPIDM,2023.1.2,None,
2661.jpg,2870.jpg,5 Points,5 Points,381 points,PS2_L7.csv,,,,,,,,,,,,,,,,,,,,,,,,,,,,,0,6,6,6,0,4,4,4,,,,,,,,,,,,,,,,,,,1203.4798419589642,q,1.278084582882002,1204.8224702088628,,,,,,270859,B,2024-07-25_15h31.28.013,EPIDM,2023.1.2,None,
7220.jpg,8090.jpg,2 Points,2 Points,383 points,PS2_L7.csv,,,,,,,,,,,,,,,,,,,,,,,,,,,,,0,6,6,6,0,5,5,5,,,,,,,,,,,,,,,,,,,1209.0897805839777,p,0.6212199169676751,1209.774080874864,,,,,,270859,B,2024-07-25_15h31.28.013,EPIDM,2023.1.2,None,
9140.jpg,2810.jpg,3 Points,3 Points,386 points,PS2_L7.csv,,,,,,,,,,,,,,,,,,,,,,,,,,,,,0,6,6,6,0,6,6,6,,,,,,,,,,,,,,,,,,,1214.0309219590854,p,0.7842199997976422,1214.8740433340427,,,,,,270859,B,2024-07-25_15h31.28.013,EPIDM,2023.1.2,None,
2516.jpg,8500.jpg,4 Points,4 Points,390 points,PS2_L7.csv,,,,,,,,,,,,,,,,,,,,,,,,,,,,,0,6,6,6,0,7,7,7,,,,,,,,,,,,,,,,,,,1219.129094999982,p,1.5014662079047412,1220.6984618338756,,,,,,270859,B,2024-07-25_15h31.28.013,EPIDM,2023.1.2,None,
9070.jpg,9420.jpg,2 Points,2 Points,392 points,PS2_L7.csv,,,,,,,,,,,,,,,,,,,,,,,,,,,,,0,6,6,6,0,8,8,8,,,,,,,,,,,,,,,,,,,1224.9521110418718,p,0.6857524157967418,1225.7037941669114,,,,,,270859,B,2024-07-25_15h31.28.013,EPIDM,2023.1.2,None,
6561.jpg,1525.jpg,2 Points,2 Points,394 points,PS2_L7.csv,,,,,,,,,,,,,,,,,,,,,,,,,,,,,0,6,6,6,0,9,9,9,,,,,,,,,,,,,,,,,,,1229.9508294998668,q,1.2472880419809371,1231.2635424998589,,,,,,270859,B,2024-07-25_15h31.28.013,EPIDM,2023.1.2,None,
7175.jpg,7490.jpg,2 Points,2 Points,396 points,PS2_L7.csv,,,,,,,,,,,,,,,,,,,,,,,,,,,,,0,6,6,6,0,10,10,10,,,,,,,,,,,,,,,,,,,1235.5312479168642,p,1.002750457962975,1236.6037473338656,,,,,,270859,B,2024-07-25_15h31.28.013,EPIDM,2023.1.2,None,
8010.jpg,2630.jpg,0 Points,0 Points,396 points,PS2_L7.csv,,,,,,,,,,,,,,,,,,,,,,,,,,,,,0,6,6,6,0,11,11,11,,,,,,,,,,,,,,,,,,,1240.8516071250197,p,1.2106370837427676,1242.1314066250343,,,,,,270859,B,2024-07-25_15h31.28.013,EPIDM,2023.1.2,None,
F174.jpg,9404.jpg,5 Points,5 Points,401 points,PS2_L7.csv,,,,,,,,,,,,,,,,,,,,,,,,,,,,,0,6,6,6,0,12,12,12,,,,,,,,,,,,,,,,,,,1246.3791511249729,q,1.162237250013277,1247.6525844589341,,,,,,270859,B,2024-07-25_15h31.28.013,EPIDM,2023.1.2,None,
2692.jpg,8231.jpg,4 Points,4 Points,405 points,PS2_L7.csv,,,,,,,,,,,,,,,,,,,,,,,,,,,,,0,6,6,6,0,13,13,13,,,,,,,,,,,,,,,,,,,1251.863324292004,p,0.9503689580596983,1252.9218731669243,4,1.4952322919853032,,,,270859,B,2024-07-25_15h31.28.013,EPIDM,2023.1.2,None,
5994.jpg,5390.jpg,0 Points,0 Points,405 points,PS2_L7.csv,,,,,,,,,,,,,,,,,,,,,,,,,,,,,0,6,6,6,0,14,14,14,,,,,,,,,,,,,,,,,,,1258.6919124170672,q,0.7204583748243749,1259.4742492500227,,,,,,270859,B,2024-07-25_15h31.28.013,EPIDM,2023.1.2,None,
9560.jpg,3071.jpg,1 Point,1 Point,406 points,PS2_L7.csv,,,,,,,,,,,,,,,,,,,,,,,,,,,,,0,6,6,6,0,15,15,15,,,,,,,,,,,,,,,,,,,1263.738299208926,q,0.8990297918207943,1264.702007374959,,,,,,270859,B,2024-07-25_15h31.28.013,EPIDM,2023.1.2,None,
9330.jpg,3015.jpg,5 Points,5 Points,411 points,PS2_L7.csv,,,,,,,,,,,,,,,,,,,,,,,,,,,,,0,6,6,6,0,16,16,16,,,,,,,,,,,,,,,,,,,1268.948364666896,q,1.3835675418376923,1270.4044522498734,,,,,,270859,B,2024-07-25_15h31.28.013,EPIDM,2023.1.2,None,
2389.jpg,7320.jpg,0 Points,0 Points,411 points,PS2_L7.csv,,,,,,,,,,,,,,,,,,,,,,,,,,,,,0,6,6,6,0,17,17,17,,,,,,,,,,,,,,,,,,,1274.6474618748762,q,1.012441333848983,1275.7381463339552,,,,,,270859,B,2024-07-25_15h31.28.013,EPIDM,2023.1.2,None,
6570.1.jpg,9432.jpg,5 Points,5 Points,416 points,PS2_L7.csv,,,,,,,,,,,,,,,,,,,,,,,,,,,,,0,6,6,6,0,18,18,18,,,,,,,,,,,,,,,,,,,1279.9822454999667,p,0.966619832906872,1281.0175486670341,,,,,,270859,B,2024-07-25_15h31.28.013,EPIDM,2023.1.2,None,
9452.jpg,7184.jpg,4 Points,4 Points,420 points,PS2_L7.csv,,,,,,,,,,,,,,,,,,,,,,,,,,,,,0,6,6,6,0,19,19,19,,,,,,,,,,,,,,,,,,,1285.2607424589805,q,0.8793652497697622,1286.217553583905,,,,,,270859,B,2024-07-25_15h31.28.013,EPIDM,2023.1.2,None,
5120.jpg,5520.jpg,2 Points,2 Points,422 points,PS2_L7.csv,,,,,,,,,,,,,,,,,,,,,,,,,,,,,0,6,6,6,0,20,20,20,,,,,,,,,,,,,,,,,,,1290.4609494588803,p,0.6473510828800499,1291.176652125083,,,,,,270859,B,2024-07-25_15h31.28.013,EPIDM,2023.1.2,None,
5970.jpg,3300.jpg,0 Points,0 Points,422 points,PS2_L7.csv,,,,,,,,,,,,,,,,,,,,,,,,,,,,,0,6,6,6,0,21,21,21,,,,,,,,,,,,,,,,,,,1295.4241997920908,p,0.7247779997996986,1296.2195045000408,,,,,,270859,B,2024-07-25_15h31.28.013,EPIDM,2023.1.2,None,
7620.jpg,5395.jpg,1 Point,1 Point,423 points,PS2_L7.csv,,,,,,,,,,,,,,,,,,,,,,,,,,,,,0,6,6,6,0,22,22,22,,,,,,,,,,,,,,,,,,,1300.461771500064,q,0.6303779580630362,1301.1512132498901,,,,,,270859,B,2024-07-25_15h31.28.013,EPIDM,2023.1.2,None,
P019.jpg,F158.jpg,3 Points,3 Points,426 points,PS2_L7.csv,,,,,,,,,,,,,,,,,,,,,,,,,,,,,0,6,6,6,0,23,23,23,,,,,,,,,,,,,,,,,,,1305.4011016669683,p,1.0431078327819705,1306.5804316669237,,,1317.0548442918807,space,2.5245389589108527,270859,B,2024-07-25_15h31.28.013,EPIDM,2023.1.2,None,
2620.jpg,2594.jpg,0 Points,0 Points,426 points,PS2_L8.csv,,,,,,,,,,,,,,,,,,,,,,,,,,,,,0,7,7,7,0,0,0,0,,,,,,,,,,,,,,,,,,,1322.8998664589599,q,1.2319295417983085,1324.240311749978,,,,,,270859,B,2024-07-25_15h31.28.013,EPIDM,2023.1.2,None,
F369.jpg,3100.jpg,2 Points,2 Points,428 points,PS2_L8.csv,,,,,,,,,,,,,,,,,,,,,,,,,,,,,0,7,7,7,0,1,1,1,,,,,,,,,,,,,,,,,,,1328.4536381668877,p,0.6215212498791516,1329.1715564590413,2,1.3500858328770846,,,,270859,B,2024-07-25_15h31.28.013,EPIDM,2023.1.2,None,
1052.jpg,1201.jpg,3 Points,3 Points,431 points,PS2_L8.csv,,,,,,,,,,,,,,,,,,,,,,,,,,,,,0,7,7,7,0,2,2,2,,,,,,,,,,,,,,,,,,,1334.8455700839404,p,0.8386174999177456,1335.788535125088,,,,,,270859,B,2024-07-25_15h31.28.013,EPIDM,2023.1.2,None,
2606.jpg,2480.jpg,1 Point,1 Point,432 points,PS2_L8.csv,,,,,,,,,,,,,,,,,,,,,,,,,,,,,0,7,7,7,0,3,3,3,,,,,,,,,,,,,,,,,,,1340.0006610420533,q,0.7463216248434037,1340.8114505000412,,,,,,270859,B,2024-07-25_15h31.28.013,EPIDM,2023.1.2,None,
9594.jpg,1080.jpg,4 Points,4 Points,436 points,PS2_L8.csv,,,,,,,,,,,,,,,,,,,,,,,,,,,,,0,7,7,7,0,4,4,4,,,,,,,,,,,,,,,,,,,1345.0658224590588,q,1.035099959000945,1346.172066041967,,,,,,270859,B,2024-07-25_15h31.28.013,EPIDM,2023.1.2,None,
4770.jpg,4275.jpg,3 Points,3 Points,439 points,PS2_L8.csv,,,,,,,,,,,,,,,,,,,,,,,,,,,,,0,7,7,7,0,5,5,5,,,,,,,,,,,,,,,,,,,1350.4196124169976,q,1.2721699997782707,1351.7756059588864,,,,,,270859,B,2024-07-25_15h31.28.013,EPIDM,2023.1.2,None,
P077.jpg,A041.jpg,1 Point,1 Point,440 points,PS2_L8.csv,,,,,,,,,,,,,,,,,,,,,,,,,,,,,0,7,7,7,0,6,6,6,,,,,,,,,,,,,,,,,,,1356.0099409590475,p,0.9927757908590138,1357.1396190419327,,,,,,270859,B,2024-07-25_15h31.28.013,EPIDM,2023.1.2,None,
6550.jpg,9582.jpg,5 Points,5 Points,445 points,PS2_L8.csv,,,,,,,,,,,,,,,,,,,,,,,,,,,,,0,7,7,7,0,7,7,7,,,,,,,,,,,,,,,,,,,1361.3145349998958,p,0.9207193749025464,1362.3500882089138,,,,,,270859,B,2024-07-25_15h31.28.013,EPIDM,2023.1.2,None,
8040.jpg,7185.jpg,1 Point,1 Point,446 points,PS2_L8.csv,,,,,,,,,,,,,,,,,,,,,,,,,,,,,0,7,7,7,0,8,8,8,,,,,,,,,,,,,,,,,,,1366.5656842088792,p,1.3092998748179525,1367.9599614590406,,,,,,270859,B,2024-07-25_15h31.28.013,EPIDM,2023.1.2,None,
P233.jpg,3060.jpg,1 Point,1 Point,447 points,PS2_L8.csv,,,,,,,,,,,,,,,,,,,,,,,,,,,,,0,7,7,7,0,9,9,9,,,,,,,,,,,,,,,,,,,1372.1989005000796,p,1.3010724587365985,1373.6186209588777,,,,,,270859,B,2024-07-25_15h31.28.013,EPIDM,2023.1.2,None,
1090.jpg,P217.jpg,5 Points,5 Points,452 points,PS2_L8.csv,,,,,,,,,,,,,,,,,,,,,,,,,,,,,0,7,7,7,0,10,10,10,,,,,,,,,,,,,,,,,,,1377.8216771669686,p,0.8685327917337418,1378.8296128748916,,,,,,270859,B,2024-07-25_15h31.28.013,EPIDM,2023.1.2,None,
9405.jpg,6250.2.jpg,3 Points,3 Points,455 points,PS2_L8.csv,,,,,,,,,,,,,,,,,,,,,,,,,,,,,0,7,7,7,0,11,11,11,,,,,,,,,,,,,,,,,,,1383.001582375029,q,1.0006295829080045,1384.1152637919877,,,,,,270859,B,2024-07-25_15h31.28.013,EPIDM,2023.1.2,None,
1610.jpg,F203.jpg,0 Points,0 Points,455 points,PS2_L8.csv,,,,,,,,,,,,,,,,,,,,,,,,,,,,,0,7,7,7,0,12,12,12,,,,,,,,,,,,,,,,,,,1388.3313980000094,p,1.4863168748561293,1389.925943542039,,,,,,270859,B,2024-07-25_15h31.28.013,EPIDM,2023.1.2,None,
P222.jpg,9401.jpg,2 Points,2 Points,457 points,PS2_L8.csv,,,,,,,,,,,,,,,,,,,,,,,,,,,,,0,7,7,7,0,13,13,13,,,,,,,,,,,,,,,,,,,1394.131027208874,q,1.6313760839402676,1395.907082249876,2,1.485945082968101,,,,270859,B,2024-07-25_15h31.28.013,EPIDM,2023.1.2,None,
5471.jpg,7352.jpg,2 Points,2 Points,459 points,PS2_L8.csv,,,,,,,,,,,,,,,,,,,,,,,,,,,,,0,7,7,7,0,14,14,14,,,,,,,,,,,,,,,,,,,1401.6743894999381,p,0.7904209168627858,1402.5651493340265,,,,,,270859,B,2024-07-25_15h31.28.013,EPIDM,2023.1.2,None,
9042.jpg,2753.jpg,0 Points,0 Points,459 points,PS2_L8.csv,,,,,,,,,,,,,,,,,,,,,,,,,,,,,0,7,7,7,0,15,15,15,,,,,,,,,,,,,,,,,,,1406.7799739590846,q,1.3028449998237193,1408.1469937500078,,,,,,270859,B,2024-07-25_15h31.28.013,EPIDM,2023.1.2,None,
8311.jpg,4609.jpg,2 Points,2 Points,461 points,PS2_L8.csv,,,,,,,,,,,,,,,,,,,,,,,,,,,,,0,7,7,7,0,16,16,16,,,,,,,,,,,,,,,,,,,1412.39333320898,p,0.5127567918971181,1412.979211084079,,,,,,270859,B,2024-07-25_15h31.28.013,EPIDM,2023.1.2,None,
2320.jpg,2791.jpg,4 Points,4 Points,465 points,PS2_L8.csv,,,,,,,,,,,,,,,,,,,,,,,,,,,,,0,7,7,7,0,17,17,17,,,,,,,,,,,,,,,,,,,1417.2344244590495,p,0.9658527080900967,1418.2627956250217,,,,,,270859,B,2024-07-25_15h31.28.013,EPIDM,2023.1.2,None,
F365.jpg,3180.jpg,5 Points,5 Points,470 points,PS2_L8.csv,,,,,,,,,,,,,,,,,,,,,,,,,,,,,0,7,7,7,0,18,18,18,,,,,,,,,,,,,,,,,,,1422.521021625027,p,2.0242533339187503,1424.647534333868,,,,,,270859,B,2024-07-25_15h31.28.013,EPIDM,2023.1.2,None,
9300.jpg,1050.jpg,4 Points,4 Points,474 points,PS2_L8.csv,,,,,,,,,,,,,,,,,,,,,,,,,,,,,0,7,7,7,0,19,19,19,,,,,,,,,,,,,,,,,,,1428.8637027919758,q,0.9620693328324705,1429.891954333987,,,,,,270859,B,2024-07-25_15h31.28.013,EPIDM,2023.1.2,None,
6150.jpg,2206.jpg,0 Points,0 Points,474 points,PS2_L8.csv,,,,,,,,,,,,,,,,,,,,,,,,,,,,,0,7,7,7,0,20,20,20,,,,,,,,,,,,,,,,,,,1434.137899500085,p,0.9445814578793943,1435.1617079169955,,,,,,270859,B,2024-07-25_15h31.28.013,EPIDM,2023.1.2,None,
6260.jpg,3062.jpg,3 Points,3 Points,477 points,PS2_L8.csv,,,,,,,,,,,,,,,,,,,,,,,,,,,,,0,7,7,7,0,21,21,21,,,,,,,,,,,,,,,,,,,1439.4094997090288,p,0.7029806247446686,1440.1870335000567,,,,,,270859,B,2024-07-25_15h31.28.013,EPIDM,2023.1.2,None,
6571.jpg,P237.jpg,2 Points,2 Points,479 points,PS2_L8.csv,,,,,,,,,,,,,,,,,,,,,,,,,,,,,0,7,7,7,0,22,22,22,,,,,,,,,,,,,,,,,,,1444.4288400840014,p,0.8759810000192374,1445.4218314590398,,,,,,270859,B,2024-07-25_15h31.28.013,EPIDM,2023.1.2,None,
7283.jpg,1720.jpg,4 Points,4 Points,483 points,PS2_L8.csv,,,,,,,,,,,,,,,,,,,,,,,,,,,,,0,7,7,7,0,23,23,23,,,,,,,,,,,,,,,,,,,1449.6334839588962,q,1.0555287909228355,1450.8115373749752,,,1461.2437035420444,space,1.612314332742244,270859,B,2024-07-25_15h31.28.013,EPIDM,2023.1.2,None,
3160.jpg,6210.jpg,1 Point,1 Point,484 points,PS2_L9.csv,,,,,,,,,,,,,,,,,,,,,,,,,,,,,0,8,8,8,0,0,0,0,,,,,,,,,,,,,,,,,,,1466.1865605839994,p,0.9104798340704292,1467.1685547919478,,,,,,270859,B,2024-07-25_15h31.28.013,EPIDM,2023.1.2,None,
2100.jpg,7205.jpg,5 Points,5 Points,489 points,PS2_L9.csv,,,,,,,,,,,,,,,,,,,,,,,,,,,,,0,8,8,8,0,1,1,1,,,,,,,,,,,,,,,,,,,1471.4091935420875,p,0.5662773337680846,1472.0511910419445,5,1.4515407499857247,,,,270859,B,2024-07-25_15h31.28.013,EPIDM,2023.1.2,None,
9110.jpg,3051.jpg,1 Point,1 Point,490 points,PS2_L9.csv,,,,,,,,,,,,,,,,,,,,,,,,,,,,,0,8,8,8,0,2,2,2,,,,,,,,,,,,,,,,,,,1477.8304965840653,p,0.8339750419836491,1478.7422268749215,,,,,,270859,B,2024-07-25_15h31.28.013,EPIDM,2023.1.2,None,
9101.jpg,9571.jpg,2 Points,2 Points,492 points,PS2_L9.csv,,,,,,,,,,,,,,,,,,,,,,,,,,,,,0,8,8,8,0,3,3,3,,,,,,,,,,,,,,,,,,,1482.9853536670562,q,1.0788640407845378,1484.1458784588613,,,,,,270859,B,2024-07-25_15h31.28.013,EPIDM,2023.1.2,None,
5410.jpg,1450.jpg,5 Points,5 Points,497 points,PS2_L9.csv,,,,,,,,,,,,,,,,,,,,,,,,,,,,,0,8,8,8,0,4,4,4,,,,,,,,,,,,,,,,,,,1488.3863355000503,p,1.4050041669979692,1489.8585625418928,,,,,,270859,B,2024-07-25_15h31.28.013,EPIDM,2023.1.2,None,
F149.jpg,3030.jpg,0 Points,0 Points,497 points,PS2_L9.csv,,,,,,,,,,,,,,,,,,,,,,,,,,,,,0,8,8,8,0,5,5,5,,,,,,,,,,,,,,,,,,,1494.1152954590507,q,1.531524125020951,1495.7663153340109,,,,,,270859,B,2024-07-25_15h31.28.013,EPIDM,2023.1.2,None,
3266.jpg,7360.jpg,1 Point,1 Point,498 points,PS2_L9.csv,,,,,,,,,,,,,,,,,,,,,,,,,,,,,0,8,8,8,0,6,6,6,,,,,,,,,,,,,,,,,,,1499.9783039998729,p,0.7888580828439444,1500.8856206249911,,,,,,270859,B,2024-07-25_15h31.28.013,EPIDM,2023.1.2,None,
5660.jpg,5201.jpg,0 Points,0 Points,498 points,PS2_L9.csv,,,,,,,,,,,,,,,,,,,,,,,,,,,,,0,8,8,8,0,7,7,7,,,,,,,,,,,,,,,,,,,1505.0954301669262,q,1.0636374580208212,1506.2339572920464,,,,,,270859,B,2024-07-25_15h31.28.013,EPIDM,2023.1.2,None,
1945.jpg,2800.jpg,4 Points,4 Points,502 points,PS2_L9.csv,,,,,,,,,,,,,,,,,,,,,,,,,,,,,0,8,8,8,0,8,8,8,,,,,,,,,,,,,,,,,,,1510.4774219170213,q,1.0419728748966008,1511.5877781249583,,,,,,270859,B,2024-07-25_15h31.28.013,EPIDM,2023.1.2,None,
3000.jpg,6200.jpg,5 Points,5 Points,507 points,PS2_L9.csv,,,,,,,,,,,,,,,,,,,,,,,,,,,,,0,8,8,8,0,9,9,9,,,,,,,,,,,,,,,,,,,1515.8386252089404,q,1.2003296250477433,1517.102228624979,,,,,,270859,B,2024-07-25_15h31.28.013,EPIDM,2023.1.2,None,
2215.jpg,2512.jpg,1 Point,1 Point,508 points,PS2_L9.csv,,,,,,,,,,,,,,,,,,,,,,,,,,,,,0,8,8,8,0,10,10,10,,,,,,,,,,,,,,,,,,,1521.3491533750203,p,1.257243667030707,1522.6787604999263,,,,,,270859,B,2024-07-25_15h31.28.013,EPIDM,2023.1.2,None,
5460.jpg,5800.jpg,0 Points,0 Points,508 points,PS2_L9.csv,,,,,,,,,,,,,,,,,,,,,,,,,,,,,0,8,8,8,0,11,11,11,,,,,,,,,,,,,,,,,,,1526.9273699170444,q,1.087361083831638,1528.0863182919566,,,,,,270859,B,2024-07-25_15h31.28.013,EPIDM,2023.1.2,None,
3061.jpg,2717.jpg,4 Points,4 Points,512 points,PS2_L9.csv,,,,,,,,,,,,,,,,,,,,,,,,,,,,,0,8,8,8,0,12,12,12,,,,,,,,,,,,,,,,,,,1532.3488296249416,p,1.0169819998554885,1533.4386781670619,,,,,,270859,B,2024-07-25_15h31.28.013,EPIDM,2023.1.2,None,
7380.jpg,1220.jpg,1 Point,1 Point,513 points,PS2_L9.csv,,,,,,,,,,,,,,,,,,,,,,,,,,,,,0,8,8,8,0,13,13,13,,,,,,,,,,,,,,,,,,,1537.6856332090683,p,1.4568604999221861,1539.1962628338952,1,1.3216623340267688,,,,270859,B,2024-07-25_15h31.28.013,EPIDM,2023.1.2,None,
1740.jpg,7480.jpg,0 Points,0 Points,513 points,PS2_L9.csv,,,,,,,,,,,,,,,,,,,,,,,,,,,,,0,8,8,8,0,14,14,14,,,,,,,,,,,,,,,,,,,1544.8402208338957,p,0.7651191249024123,1545.6716847920325,,,,,,270859,B,2024-07-25_15h31.28.013,EPIDM,2023.1.2,None,
7285.jpg,4233.jpg,5 Points,5 Points,518 points,PS2_L9.csv,,,,,,,,,,,,,,,,,,,,,,,,,,,,,0,8,8,8,0,15,15,15,,,,,,,,,,,,,,,,,,,1549.9182343338616,p,1.0163821659516543,1550.9993419169914,,,,,,270859,B,2024-07-25_15h31.28.013,EPIDM,2023.1.2,None,
6830.jpg,6212.jpg,4 Points,4 Points,522 points,PS2_L9.csv,,,,,,,,,,,,,,,,,,,,,,,,,,,,,0,8,8,8,0,16,16,16,,,,,,,,,,,,,,,,,,,1555.24383054208,q,1.2986993337981403,1556.6060659999494,,,,,,270859,B,2024-07-25_15h31.28.013,EPIDM,2023.1.2,None,
7830.jpg,2499.jpg,3 Points,3 Points,525 points,PS2_L9.csv,,,,,,,,,,,,,,,,,,,,,,,,,,,,,0,8,8,8,0,17,17,17,,,,,,,,,,,,,,,,,,,1560.8563579588663,q,0.9087038750294596,1561.8376418340486,,,,,,270859,B,2024-07-25_15h31.28.013,EPIDM,2023.1.2,None,
9520.jpg,1931.jpg,3 Points,3 Points,528 points,PS2_L9.csv,,,,,,,,,,,,,,,,,,,,,,,,,,,,,0,8,8,8,0,18,18,18,,,,,,,,,,,,,,,,,,,1566.0920689590275,p,0.40231899986974895,1566.5610227920115,,,,,,270859,B,2024-07-25_15h31.28.013,EPIDM,2023.1.2,None,
9160.jpg,1200.jpg,4 Points,4 Points,532 points,PS2_L9.csv,,,,,,,,,,,,,,,,,,,,,,,,,,,,,0,8,8,8,0,19,19,19,,,,,,,,,,,,,,,,,,,1570.8209193339571,p,0.5913979997858405,1571.4816514169797,,,,,,270859,B,2024-07-25_15h31.28.013,EPIDM,2023.1.2,None,
2020.jpg,1947.jpg,5 Points,5 Points,537 points,PS2_L9.csv,,,,,,,,,,,,,,,,,,,,,,,,,,,,,0,8,8,8,0,20,20,20,,,,,,,,,,,,,,,,,,,1575.7239439170808,p,0.9613656247965991,1576.7604847920593,,,,,,270859,B,2024-07-25_15h31.28.013,EPIDM,2023.1.2,None,
4535.jpg,1811.jpg,1 Point,1 Point,538 points,PS2_L9.csv,,,,,,,,,,,,,,,,,,,,,,,,,,,,,0,8,8,8,0,21,21,21,,,,,,,,,,,,,,,,,,,1581.0059459998738,p,0.6556506669148803,1581.7372930420097,,,,,,270859,B,2024-07-25_15h31.28.013,EPIDM,2023.1.2,None,
9910.jpg,6940.jpg,2 Points,2 Points,540 points,PS2_L9.csv,,,,,,,,,,,,,,,,,,,,,,,,,,,,,0,8,8,8,0,22,22,22,,,,,,,,,,,,,,,,,,,1585.9827958750539,q,1.3347702499013394,1587.3881705838721,,,,,,270859,B,2024-07-25_15h31.28.013,EPIDM,2023.1.2,None,
9480.jpg,9250.jpg,0 Points,0 Points,540 points,PS2_L9.csv,,,,,,,,,,,,,,,,,,,,,,,,,,,,,0,8,8,8,0,23,23,23,,,,,,,,,,,,,,,,,,,1591.6470279169735,p,1.2381723748985678,1592.9458369170316,,,1603.4396224168595,space,1.4206668748520315,270859,B,2024-07-25_15h31.28.013,EPIDM,2023.1.2,None,
1660.jpg,2840.jpg,2 Points,2 Points,542 points,PS2_L10.csv,,,,,,,,,,,,,,,,,,,,,,,,,,,,,0,9,9,9,0,0,0,0,,,,,,,,,,,,,,,,,,,1608.1728509168606,q,1.3527729159686714,1609.5937504169997,,,,,,270859,B,2024-07-25_15h31.28.013,EPIDM,2023.1.2,None,
2691.jpg,7640.jpg,0 Points,0 Points,542 points,PS2_L10.csv,,,,,,,,,,,,,,,,,,,,,,,,,,,,,0,9,9,9,0,1,1,1,,,,,,,,,,,,,,,,,,,1613.8396651248913,p,1.0377827908378094,1614.942430249881,0,1.821477749850601,,,,270859,B,2024-07-25_15h31.28.013,EPIDM,2023.1.2,None,
9180.jpg,9046.jpg,3 Points,3 Points,545 points,PS2_L10.csv,,,,,,,,,,,,,,,,,,,,,,,,,,,,,0,9,9,9,0,2,2,2,,,,,,,,,,,,,,,,,,,1621.0729321250692,q,0.7960066660307348,1621.9367789169773,,,,,,270859,B,2024-07-25_15h31.28.013,EPIDM,2023.1.2,None,
8041.jpg,2271.jpg,2 Points,2 Points,547 points,PS2_L10.csv,,,,,,,,,,,,,,,,,,,,,,,,,,,,,0,9,9,9,0,3,3,3,,,,,,,,,,,,,,,,,,,1626.1901345420629,q,0.5571099168155342,1626.8146196249872,,,,,,270859,B,2024-07-25_15h31.28.013,EPIDM,2023.1.2,None,
1661.jpg,1321.jpg,3 Points,3 Points,550 points,PS2_L10.csv,,,,,,,,,,,,,,,,,,,,,,,,,,,,,0,9,9,9,0,4,4,4,,,,,,,,,,,,,,,,,,,1631.0585660838988,p,0.6183774578385055,1631.73647416709,,,,,,270859,B,2024-07-25_15h31.28.013,EPIDM,2023.1.2,None,
9430.jpg,3010.jpg,5 Points,5 Points,555 points,PS2_L10.csv,,,,,,,,,,,,,,,,,,,,,,,,,,,,,0,9,9,9,0,5,5,5,,,,,,,,,,,,,,,,,,,1635.9986408748664,q,1.5107282497920096,1637.5655542090535,,,,,,270859,B,2024-07-25_15h31.28.013,EPIDM,2023.1.2,None,
2616.jpg,7238.jpg,4 Points,4 Points,559 points,PS2_L10.csv,,,,,,,,,,,,,,,,,,,,,,,,,,,,,0,9,9,9,0,6,6,6,,,,,,,,,,,,,,,,,,,1641.8283495418727,q,1.239613790763542,1643.1282256669365,,,,,,270859,B,2024-07-25_15h31.28.013,EPIDM,2023.1.2,None,
9470.jpg,9400.jpg,3 Points,3 Points,562 points,PS2_L10.csv,,,,,,,,,,,,,,,,,,,,,,,,,,,,,0,9,9,9,0,7,7,7,,,,,,,,,,,,,,,,,,,1647.3796344590373,p,0.6399585418403149,1648.0855243750848,,,,,,270859,B,2024-07-25_15h31.28.013,EPIDM,2023.1.2,None,
8260.jpg,8280.jpg,3 Points,3 Points,565 points,PS2_L10.csv,,,,,,,,,,,,,,,,,,,,,,,,,,,,,0,9,9,9,0,8,8,8,,,,,,,,,,,,,,,,,,,1652.3448202090804,p,0.6183500417973846,1653.0265399999917,,,,,,270859,B,2024-07-25_15h31.28.013,EPIDM,2023.1.2,None,
9230.jpg,9181.jpg,0 Points,0 Points,565 points,PS2_L10.csv,,,,,,,,,,,,,,,,,,,,,,,,,,,,,0,9,9,9,0,9,9,9,,,,,,,,,,,,,,,,,,,1657.2872321670875,q,1.0994196669198573,1658.4482425418682,,,,,,270859,B,2024-07-25_15h31.28.013,EPIDM,2023.1.2,None,
6834.jpg,9120.jpg,5 Points,5 Points,570 points,PS2_L10.csv,,,,,,,,,,,,,,,,,,,,,,,,,,,,,0,9,9,9,0,10,10,10,,,,,,,,,,,,,,,,,,,1662.7125432500616,q,1.1871196669526398,1663.9648817090783,,,,,,270859,B,2024-07-25_15h31.28.013,EPIDM,2023.1.2,None,
2440.jpg,7351.jpg,4 Points,4 Points,574 points,PS2_L10.csv,,,,,,,,,,,,,,,,,,,,,,,,,,,,,0,9,9,9,0,11,11,11,,,,,,,,,,,,,,,,,,,1668.2290262500755,p,0.7655407078564167,1669.0803694999777,,,,,,270859,B,2024-07-25_15h31.28.013,EPIDM,2023.1.2,None,
9280.jpg,9390.jpg,1 Point,1 Point,575 points,PS2_L10.csv,,,,,,,,,,,,,,,,,,,,,,,,,,,,,0,9,9,9,0,12,12,12,,,,,,,,,,,,,,,,,,,1673.3223022499587,q,0.7449652920477092,1674.1412571668625,,,,,,270859,B,2024-07-25_15h31.28.013,EPIDM,2023.1.2,None,
7186.jpg,9182.jpg,2 Points,2 Points,577 points,PS2_L10.csv,,,,,,,,,,,,,,,,,,,,,,,,,,,,,0,9,9,9,0,13,13,13,,,,,,,,,,,,,,,,,,,1678.3854080419987,q,1.0009075829293579,1679.4620592088904,2,1.841319166822359,,,,270859,B,2024-07-25_15h31.28.013,EPIDM,2023.1.2,None,
7820.jpg,1121.jpg,0 Points,0 Points,577 points,PS2_L10.csv,,,,,,,,,,,,,,,,,,,,,,,,,,,,,0,9,9,9,0,14,14,14,,,,,,,,,,,,,,,,,,,1685.627133958973,q,1.1762238750234246,1686.8796314999927,,,,,,270859,B,2024-07-25_15h31.28.013,EPIDM,2023.1.2,None,
1110.jpg,9331.jpg,2 Points,2 Points,579 points,PS2_L10.csv,,,,,,,,,,,,,,,,,,,,,,,,,,,,,0,9,9,9,0,15,15,15,,,,,,,,,,,,,,,,,,,1691.1153757090215,p,0.7271012908313423,1691.9099045419134,,,,,,270859,B,2024-07-25_15h31.28.013,EPIDM,2023.1.2,None,
9001.jpg,9620.jpg,1 Point,1 Point,580 points,PS2_L10.csv,,,,,,,,,,,,,,,,,,,,,,,,,,,,,0,9,9,9,0,16,16,16,,,,,,,,,,,,,,,,,,,1696.1509484590497,q,1.3878702090587467,1697.6159231669735,,,,,,270859,B,2024-07-25_15h31.28.013,EPIDM,2023.1.2,None,
5535.jpg,8210.jpg,3 Points,3 Points,583 points,PS2_L10.csv,,,,,,,,,,,,,,,,,,,,,,,,,,,,,0,9,9,9,0,17,17,17,,,,,,,,,,,,,,,,,,,1701.8508886250202,q,1.2152356659062207,1703.1370296250097,,,,,,270859,B,2024-07-25_15h31.28.013,EPIDM,2023.1.2,None,
7950.jpg,7187.jpg,1 Point,1 Point,584 points,PS2_L10.csv,,,,,,,,,,,,,,,,,,,,,,,,,,,,,0,9,9,9,0,18,18,18,,,,,,,,,,,,,,,,,,,1707.3800872920547,p,0.7583163748495281,1708.2011974169873,,,,,,270859,B,2024-07-25_15h31.28.013,EPIDM,2023.1.2,None,
3250.jpg,A053.jpg,3 Points,3 Points,587 points,PS2_L10.csv,,,,,,,,,,,,,,,,,,,,,,,,,,,,,0,9,9,9,0,19,19,19,,,,,,,,,,,,,,,,,,,1712.4531731670722,q,3.476411708863452,1716.0406829169951,,,,,,270859,B,2024-07-25_15h31.28.013,EPIDM,2023.1.2,None,
2205.jpg,3053.jpg,4 Points,4 Points,591 points,PS2_L10.csv,,,,,,,,,,,,,,,,,,,,,,,,,,,,,0,9,9,9,0,20,20,20,,,,,,,,,,,,,,,,,,,1720.2477350418922,p,1.082053291844204,1721.395195750054,,,,,,270859,B,2024-07-25_15h31.28.013,EPIDM,2023.1.2,None,
5594.jpg,5750.jpg,5 Points,5 Points,596 points,PS2_L10.csv,,,,,,,,,,,,,,,,,,,,,,,,,,,,,0,9,9,9,0,21,21,21,,,,,,,,,,,,,,,,,,,1725.6535981670022,p,0.638073124922812,1726.3635674170218,,,,,,270859,B,2024-07-25_15h31.28.013,EPIDM,2023.1.2,None,
6900.jpg,8531.jpg,4 Points,4 Points,600 points,PS2_L10.csv,,,,,,,,,,,,,,,,,,,,,,,,,,,,,0,9,9,9,0,22,22,22,,,,,,,,,,,,,,,,,,,1730.6095082089305,p,0.7126957499422133,1731.387951208977,,,,,,270859,B,2024-07-25_15h31.28.013,EPIDM,2023.1.2,None,
1019.jpg,2120.jpg,0 Points,0 Points,600 points,PS2_L10.csv,,,,,,,,,,,,,,,,,,,,,,,,,,,,,0,9,9,9,0,23,23,23,,,,,,,,,,,,,,,,,,,1735.632883583894,q,1.9849174588453025,1737.6950169589836,,,1748.1568113749381,space,3.6359269157983363,270859,B,2024-07-25_15h31.28.013,EPIDM,2023.1.2,None,
