L_Scene,R_Scene,Points_L,Points_R,PtTotal,blockFile,Instructions_Loop.thisRepN,Instructions_Loop.thisTrialN,Instructions_Loop.thisN,Instructions_Loop.thisIndex,Redo_Instructions_Loop.thisRepN,Redo_Instructions_Loop.thisTrialN,Redo_Instructions_Loop.thisN,Redo_Instructions_Loop.thisIndex,Practice_Encoding_Loop.thisRepN,Practice_Encoding_Loop.thisTrialN,Practice_Encoding_Loop.thisN,Practice_Encoding_Loop.thisIndex,Practice_Response_Fail_Loop.thisRepN,Practice_Response_Fail_Loop.thisTrialN,Practice_Response_Fail_Loop.thisN,Practice_Response_Fail_Loop.thisIndex,Practice_FB_Loop.thisRepN,Practice_FB_Loop.thisTrialN,Practice_FB_Loop.thisN,Practice_FB_Loop.thisIndex,Practice_Attention_Loop.thisRepN,Practice_Attention_Loop.thisTrialN,Practice_Attention_Loop.thisN,Practice_Attention_Loop.thisIndex,Practice_EncBrk_Loop.thisRepN,Practice_EncBrk_Loop.thisTrialN,Practice_EncBrk_Loop.thisN,Practice_EncBrk_Loop.thisIndex,Encoding_Loop.thisRepN,Encoding_Loop.thisTrialN,Encoding_Loop.thisN,Encoding_Loop.thisIndex,EncStim_Loop.thisRepN,EncStim_Loop.thisTrialN,EncStim_Loop.thisN,EncStim_Loop.thisIndex,Response_Fail_Loop.thisRepN,Response_Fail_Loop.thisTrialN,Response_Fail_Loop.thisN,Response_Fail_Loop.thisIndex,FB_Loop.thisRepN,FB_Loop.thisTrialN,FB_Loop.thisN,FB_Loop.thisIndex,Attention_Loop.thisRepN,Attention_Loop.thisTrialN,Attention_Loop.thisN,Attention_Loop.thisIndex,EncBrk_Loop.thisRepN,EncBrk_Loop.thisTrialN,EncBrk_Loop.thisN,EncBrk_Loop.thisIndex,Transition_Enc.keys,Transition_Enc.rt,Encoding_Resp.started,Encoding_Resp.stopped,Encoding_Resp.keys,Encoding_Resp.rt,R_Point_FB_Stim.started,Attn_resp.keys,Attn_resp.rt,Progress_Tracker.started,EncBrk_Resp.keys,EncBrk_Resp.rt,participant,Group,date,expName,psychopyVersion,frameRate,
,,,,,,,,,,,,,,,,,,,,,,,,,,,,,,,,,,,,,,,,,,,,,,,,,,,,,,,,,,space,11.436270207865164,,,,,,,,,,,271420,A,2024-08-01_09h16.58.518,EPIDM,2023.1.2,None,
A060.jpg,F041.jpg,5 Points,5 Points,5 Points,,,,,,,,,,0,0,0,0,,,,,,,,,,,,,,,,,,,,,,,,,,,,,,,,,,,,,,,,,,,178.90488837496378,182.6104482500814,None,,,,,,,,271420,A,2024-08-01_09h16.58.518,EPIDM,2023.1.2,None,
O161.jpg,1812.jpg,2 Points,2 Points,7 Points,,,,,,,,,,0,1,1,1,,,,,,,,,,,,,,,,,,,,,,,,,,,,,,,,,,,,,,,,,,,186.40175912505947,,p,1.7785967921372503,188.2930707091,,,,,,271420,A,2024-08-01_09h16.58.518,EPIDM,2023.1.2,None,
O013.jpg,A001.jpg,3 Points,3 Points,10 Points,,,,,,,,,,0,2,2,2,,,,,,,,,,,,,,,,,,,,,,,,,,,,,,,,,,,,,,,,,,,192.50409074989147,,q,2.163463125238195,194.80582804209553,,,,,,271420,A,2024-08-01_09h16.58.518,EPIDM,2023.1.2,None,
P036.jpg,F273.jpg,5 Points,5 Points,15 Points,,,,,,,,,,0,3,3,3,,,,,,,,,,,,,,,,,,,,,,,,,,,,,,,,,,,,,,,,,,,198.99681199993938,,q,2.950507915811613,202.11539195897058,,,,,,271420,A,2024-08-01_09h16.58.518,EPIDM,2023.1.2,None,
L130.jpg,2393.jpg,0 Points,0 Points,15 Points,,,,,,,,,,0,4,4,4,,,,,,,,,,,,,,,,,,,,,,,,,,,,,,,,,,,,,,,,,,,206.26400220906362,,p,2.814838167047128,209.23012808407657,0,4.98675400018692,,,,271420,A,2024-08-01_09h16.58.518,EPIDM,2023.1.2,None,
F279.jpg,P033.jpg,3 Points,3 Points,18 Points,,,,,,,,,,0,5,5,5,,,,,,,,,,,,,,,,,,,,,,,,,,,,,,,,,,,,,,,,,,,218.50085783400573,,p,3.0547589170746505,221.73226233408786,,,,,,271420,A,2024-08-01_09h16.58.518,EPIDM,2023.1.2,None,
A104.jpg,2593.jpg,2 Points,2 Points,20 Points,,,,,,,,,,0,6,6,6,,,,,,,,,,,,,,,,,,,,,,,,,,,,,,,,,,,,,,,,,,,225.88054000004195,,p,2.530959791969508,228.54102145903744,,,,,,271420,A,2024-08-01_09h16.58.518,EPIDM,2023.1.2,None,
2598.jpg,2605.jpg,0 Points,0 Points,20 Points,,,,,,,,,,0,7,7,7,,,,,,,,,,,,,,,,,,,,,,,,,,,,,,,,,,,,,,,,,,,232.72177066700533,,q,2.83358370908536,235.62328474991955,,,,,,271420,A,2024-08-01_09h16.58.518,EPIDM,2023.1.2,None,
L005.jpg,O011.jpg,1 Points,1 Points,21 Points,,,,,,,,,,0,8,8,8,,,,,,,,,,,,,,,,,,,,,,,,,,,,,,,,,,,,,,,,,,,239.8716940418817,,q,2.7950790831819177,242.80076079186983,,,,,,271420,A,2024-08-01_09h16.58.518,EPIDM,2023.1.2,None,
8186.jpg,F078.jpg,2 Points,2 Points,23 Points,,,,,,,,,,0,9,9,9,,,,,,,,,,,,,,,,,,,,,,,,,,,,,,,,,,,,,,,,,,,246.9763847088907,,q,2.2682058340869844,249.3817452089861,2,3.428161167073995,263.08008108404465,space,9.731226041913033,271420,A,2024-08-01_09h16.58.518,EPIDM,2023.1.2,None,
,,,,,,,,,,,,,,,,,,,,,,,,,,,,,,,,,,,,,,,,,,,,,,,,,,,,,,,,,,space,3.6000893330201507,,,,,,,,,,,271420,A,2024-08-01_09h16.58.518,EPIDM,2023.1.2,None,
1019.jpg,2120.jpg,0 Points,0 Points,0 Points,PS1_L1.csv,,,,,,,,,,,,,,,,,,,,,,,,,,,,,0,0,0,0,0,0,0,0,,,,,,,,,,,,,,,,,,,302.966277374886,,q,3.5320999580435455,306.62131558405235,,,,,,271420,A,2024-08-01_09h16.58.518,EPIDM,2023.1.2,None,
6900.jpg,8531.jpg,4 Points,4 Points,4 Points,PS1_L1.csv,,,,,,,,,,,,,,,,,,,,,,,,,,,,,0,0,0,0,0,1,1,1,,,,,,,,,,,,,,,,,,,310.82430079206824,,q,1.9937158750835806,312.8919671669137,4,2.9135445000138134,,,,271420,A,2024-08-01_09h16.58.518,EPIDM,2023.1.2,None,
5594.jpg,5750.jpg,5 Points,5 Points,9 Points,PS1_L1.csv,,,,,,,,,,,,,,,,,,,,,,,,,,,,,0,0,0,0,0,2,2,2,,,,,,,,,,,,,,,,,,,320.12850045901723,,q,2.841067041968927,323.0447482499294,,,,,,271420,A,2024-08-01_09h16.58.518,EPIDM,2023.1.2,None,
2205.jpg,3053.jpg,4 Points,4 Points,13 Points,PS1_L1.csv,,,,,,,,,,,,,,,,,,,,,,,,,,,,,0,0,0,0,0,3,3,3,,,,,,,,,,,,,,,,,,,327.2861286669504,,None,,,,,,,,271420,A,2024-08-01_09h16.58.518,EPIDM,2023.1.2,None,
3250.jpg,A053.jpg,3 Points,3 Points,16 Points,PS1_L1.csv,,,,,,,,,,,,,,,,,,,,,,,,,,,,,0,0,0,0,0,4,4,4,,,,,,,,,,,,,,,,,,,334.7855905839242,,q,2.040500042028725,336.9356065420434,,,,,,271420,A,2024-08-01_09h16.58.518,EPIDM,2023.1.2,None,
7950.jpg,7187.jpg,1 Point,1 Point,17 Points,PS1_L1.csv,,,,,,,,,,,,,,,,,,,,,,,,,,,,,0,0,0,0,0,5,5,5,,,,,,,,,,,,,,,,,,,341.13711883407086,,p,1.9915283329319209,343.1948772498872,,,,,,271420,A,2024-08-01_09h16.58.518,EPIDM,2023.1.2,None,
5535.jpg,8210.jpg,3 Points,3 Points,20 Points,PS1_L1.csv,,,,,,,,,,,,,,,,,,,,,,,,,,,,,0,0,0,0,0,6,6,6,,,,,,,,,,,,,,,,,,,347.4516129998956,,p,2.1259560419712216,349.6451975419186,,,,,,271420,A,2024-08-01_09h16.58.518,EPIDM,2023.1.2,None,
9001.jpg,9620.jpg,1 Point,1 Point,21 Points,PS1_L1.csv,,,,,,,,,,,,,,,,,,,,,,,,,,,,,0,0,0,0,0,7,7,7,,,,,,,,,,,,,,,,,,,353.89753554202616,,p,1.9840777078643441,355.95719125005417,,,,,,271420,A,2024-08-01_09h16.58.518,EPIDM,2023.1.2,None,
1110.jpg,9331.jpg,2 Points,2 Points,23 Points,PS1_L1.csv,,,,,,,,,,,,,,,,,,,,,,,,,,,,,0,0,0,0,0,8,8,8,,,,,,,,,,,,,,,,,,,360.2012313338928,,p,1.8487881671171635,362.13314779195935,,,,,,271420,A,2024-08-01_09h16.58.518,EPIDM,2023.1.2,None,
7820.jpg,1121.jpg,0 Points,0 Points,23 Points,PS1_L1.csv,,,,,,,,,,,,,,,,,,,,,,,,,,,,,0,0,0,0,0,9,9,9,,,,,,,,,,,,,,,,,,,366.3814698748756,,p,1.307177250040695,367.7641615839675,,,,,,271420,A,2024-08-01_09h16.58.518,EPIDM,2023.1.2,None,
7186.jpg,9182.jpg,2 Points,2 Points,25 Points,PS1_L1.csv,,,,,,,,,,,,,,,,,,,,,,,,,,,,,0,0,0,0,0,10,10,10,,,,,,,,,,,,,,,,,,,372.0069944590796,,p,2.698278540978208,374.7802653340623,,,,,,271420,A,2024-08-01_09h16.58.518,EPIDM,2023.1.2,None,
9280.jpg,9390.jpg,1 Point,1 Point,26 Points,PS1_L1.csv,,,,,,,,,,,,,,,,,,,,,,,,,,,,,0,0,0,0,0,11,11,11,,,,,,,,,,,,,,,,,,,379.02204050007276,,q,1.3470364999957383,380.4475089169573,,,,,,271420,A,2024-08-01_09h16.58.518,EPIDM,2023.1.2,None,
2440.jpg,7351.jpg,4 Points,4 Points,30 Points,PS1_L1.csv,,,,,,,,,,,,,,,,,,,,,,,,,,,,,0,0,0,0,0,12,12,12,,,,,,,,,,,,,,,,,,,384.6941818750929,,q,1.4750104579143226,386.24682370899245,,,,,,271420,A,2024-08-01_09h16.58.518,EPIDM,2023.1.2,None,
6834.jpg,9120.jpg,5 Points,5 Points,35 Points,PS1_L1.csv,,,,,,,,,,,,,,,,,,,,,,,,,,,,,0,0,0,0,0,13,13,13,,,,,,,,,,,,,,,,,,,390.48556295898743,,q,2.588893041945994,393.14826970896684,5,4.898002415895462,,,,271420,A,2024-08-01_09h16.58.518,EPIDM,2023.1.2,None,
9230.jpg,9181.jpg,0 Points,0 Points,35 Points,PS1_L1.csv,,,,,,,,,,,,,,,,,,,,,,,,,,,,,0,0,0,0,0,14,14,14,,,,,,,,,,,,,,,,,,,402.3507165838964,,p,2.145554083865136,404.5510983748827,,,,,,271420,A,2024-08-01_09h16.58.518,EPIDM,2023.1.2,None,
8260.jpg,8280.jpg,3 Points,3 Points,38 Points,PS1_L1.csv,,,,,,,,,,,,,,,,,,,,,,,,,,,,,0,0,0,0,0,15,15,15,,,,,,,,,,,,,,,,,,,408.81699933391064,,q,1.3500660411082208,410.2397327090148,,,,,,271420,A,2024-08-01_09h16.58.518,EPIDM,2023.1.2,None,
9470.jpg,9400.jpg,3 Points,3 Points,41 Points,PS1_L1.csv,,,,,,,,,,,,,,,,,,,,,,,,,,,,,0,0,0,0,0,16,16,16,,,,,,,,,,,,,,,,,,,414.48627858399414,,p,2.1709862500429153,416.7251547090709,,,,,,271420,A,2024-08-01_09h16.58.518,EPIDM,2023.1.2,None,
2616.jpg,7238.jpg,4 Points,4 Points,45 Points,PS1_L1.csv,,,,,,,,,,,,,,,,,,,,,,,,,,,,,0,0,0,0,0,17,17,17,,,,,,,,,,,,,,,,,,,420.98712299996987,,q,1.7258474580012262,422.7858662500512,,,,,,271420,A,2024-08-01_09h16.58.518,EPIDM,2023.1.2,None,
9430.jpg,3010.jpg,5 Points,5 Points,50 Points,PS1_L1.csv,,,,,,,,,,,,,,,,,,,,,,,,,,,,,0,0,0,0,0,18,18,18,,,,,,,,,,,,,,,,,,,427.04691258398816,,p,2.8110856250859797,429.9172267920803,,,,,,271420,A,2024-08-01_09h16.58.518,EPIDM,2023.1.2,None,
1661.jpg,1321.jpg,3 Points,3 Points,53 Points,PS1_L1.csv,,,,,,,,,,,,,,,,,,,,,,,,,,,,,0,0,0,0,0,19,19,19,,,,,,,,,,,,,,,,,,,434.16679129190743,,p,2.296322250040248,436.5211056249682,,,,,,271420,A,2024-08-01_09h16.58.518,EPIDM,2023.1.2,None,
8041.jpg,2271.jpg,2 Points,2 Points,55 Points,PS1_L1.csv,,,,,,,,,,,,,,,,,,,,,,,,,,,,,0,0,0,0,0,20,20,20,,,,,,,,,,,,,,,,,,,440.77732516708784,,p,1.7500369171611965,442.5898268749006,,,,,,271420,A,2024-08-01_09h16.58.518,EPIDM,2023.1.2,None,
9180.jpg,9046.jpg,3 Points,3 Points,58 Points,PS1_L1.csv,,,,,,,,,,,,,,,,,,,,,,,,,,,,,0,0,0,0,0,21,21,21,,,,,,,,,,,,,,,,,,,446.8367555839941,,p,2.8268114160746336,449.73124683392234,,,,,,271420,A,2024-08-01_09h16.58.518,EPIDM,2023.1.2,None,
2691.jpg,7640.jpg,0 Points,0 Points,58 Points,PS1_L1.csv,,,,,,,,,,,,,,,,,,,,,,,,,,,,,0,0,0,0,0,22,22,22,,,,,,,,,,,,,,,,,,,453.98865987500176,,q,1.5231342499610037,455.58522537490353,,,,,,271420,A,2024-08-01_09h16.58.518,EPIDM,2023.1.2,None,
1660.jpg,2840.jpg,2 Points,2 Points,60 Points,PS1_L1.csv,,,,,,,,,,,,,,,,,,,,,,,,,,,,,0,0,0,0,0,23,23,23,,,,,,,,,,,,,,,,,,,459.8420196250081,,q,2.0152908749878407,461.92358887498267,,,472.4540390840266,space,5.721128874924034,271420,A,2024-08-01_09h16.58.518,EPIDM,2023.1.2,None,
9480.jpg,9250.jpg,0 Points,0 Points,60 Points,PS1_L2.csv,,,,,,,,,,,,,,,,,,,,,,,,,,,,,0,1,1,1,0,0,0,0,,,,,,,,,,,,,,,,,,,481.4893250418827,,p,2.3980303332209587,483.9780654590577,,,,,,271420,A,2024-08-01_09h16.58.518,EPIDM,2023.1.2,None,
9910.jpg,6940.jpg,2 Points,2 Points,62 Points,PS1_L2.csv,,,,,,,,,,,,,,,,,,,,,,,,,,,,,0,1,1,1,0,1,1,1,,,,,,,,,,,,,,,,,,,488.2233242918737,,q,2.249442166881636,490.5365374588873,2,2.100053209112957,,,,271420,A,2024-08-01_09h16.58.518,EPIDM,2023.1.2,None,
4535.jpg,1811.jpg,1 Point,1 Point,63 Points,PS1_L2.csv,,,,,,,,,,,,,,,,,,,,,,,,,,,,,0,1,1,1,0,2,2,2,,,,,,,,,,,,,,,,,,,496.95819024997763,,p,1.8889879579655826,498.91995662497357,,,,,,271420,A,2024-08-01_09h16.58.518,EPIDM,2023.1.2,None,
2020.jpg,1947.jpg,5 Points,5 Points,68 Points,PS1_L2.csv,,,,,,,,,,,,,,,,,,,,,,,,,,,,,0,1,1,1,0,3,3,3,,,,,,,,,,,,,,,,,,,503.15794379194267,,q,1.4155657081864774,504.6515397920739,,,,,,271420,A,2024-08-01_09h16.58.518,EPIDM,2023.1.2,None,
9160.jpg,1200.jpg,4 Points,4 Points,72 Points,PS1_L2.csv,,,,,,,,,,,,,,,,,,,,,,,,,,,,,0,1,1,1,0,4,4,4,,,,,,,,,,,,,,,,,,,508.8914243339095,,q,1.5624175411649048,510.52758083399385,,,,,,271420,A,2024-08-01_09h16.58.518,EPIDM,2023.1.2,None,
9520.jpg,1931.jpg,3 Points,3 Points,75 Points,PS1_L2.csv,,,,,,,,,,,,,,,,,,,,,,,,,,,,,0,1,1,1,0,5,5,5,,,,,,,,,,,,,,,,,,,514.7749041670468,,q,1.9987456251401454,516.8466729999054,,,,,,271420,A,2024-08-01_09h16.58.518,EPIDM,2023.1.2,None,
7830.jpg,2499.jpg,3 Points,3 Points,78 Points,PS1_L2.csv,,,,,,,,,,,,,,,,,,,,,,,,,,,,,0,1,1,1,0,6,6,6,,,,,,,,,,,,,,,,,,,521.092842916958,,p,2.0736640410032123,523.2353461668827,,,,,,271420,A,2024-08-01_09h16.58.518,EPIDM,2023.1.2,None,
6830.jpg,6212.jpg,4 Points,4 Points,82 Points,PS1_L2.csv,,,,,,,,,,,,,,,,,,,,,,,,,,,,,0,1,1,1,0,7,7,7,,,,,,,,,,,,,,,,,,,527.4978888339829,,p,3.2196984589099884,530.7892161670607,,,,,,271420,A,2024-08-01_09h16.58.518,EPIDM,2023.1.2,None,
7285.jpg,4233.jpg,5 Points,5 Points,87 Points,PS1_L2.csv,,,,,,,,,,,,,,,,,,,,,,,,,,,,,0,1,1,1,0,8,8,8,,,,,,,,,,,,,,,,,,,535.0452792919241,,p,2.544810042018071,537.6665307090152,,,,,,271420,A,2024-08-01_09h16.58.518,EPIDM,2023.1.2,None,
1740.jpg,7480.jpg,0 Points,0 Points,87 Points,PS1_L2.csv,,,,,,,,,,,,,,,,,,,,,,,,,,,,,0,1,1,1,0,9,9,9,,,,,,,,,,,,,,,,,,,541.9083220420871,,q,1.4327587091829628,543.4169598750304,,,,,,271420,A,2024-08-01_09h16.58.518,EPIDM,2023.1.2,None,
7380.jpg,1220.jpg,1 Point,1 Point,88 Points,PS1_L2.csv,,,,,,,,,,,,,,,,,,,,,,,,,,,,,0,1,1,1,0,10,10,10,,,,,,,,,,,,,,,,,,,547.6578131669667,,q,2.2200783751904964,549.9430319170933,,,,,,271420,A,2024-08-01_09h16.58.518,EPIDM,2023.1.2,None,
3061.jpg,2717.jpg,4 Points,4 Points,92 Points,PS1_L2.csv,,,,,,,,,,,,,,,,,,,,,,,,,,,,,0,1,1,1,0,11,11,11,,,,,,,,,,,,,,,,,,,554.2001344170421,,q,2.0774004999548197,556.3350643340964,,,,,,271420,A,2024-08-01_09h16.58.518,EPIDM,2023.1.2,None,
5460.jpg,5800.jpg,0 Points,0 Points,92 Points,PS1_L2.csv,,,,,,,,,,,,,,,,,,,,,,,,,,,,,0,1,1,1,0,12,12,12,,,,,,,,,,,,,,,,,,,560.5983506250195,,q,1.8235572911798954,562.4954860000871,,,,,,271420,A,2024-08-01_09h16.58.518,EPIDM,2023.1.2,None,
2215.jpg,2512.jpg,1 Point,1 Point,93 Points,PS1_L2.csv,,,,,,,,,,,,,,,,,,,,,,,,,,,,,0,1,1,1,0,13,13,13,,,,,,,,,,,,,,,,,,,566.7574537498876,,p,1.9600298330187798,568.7873137919232,1,2.794731375062838,,,,271420,A,2024-08-01_09h16.58.518,EPIDM,2023.1.2,None,
3000.jpg,6200.jpg,5 Points,5 Points,98 Points,PS1_L2.csv,,,,,,,,,,,,,,,,,,,,,,,,,,,,,0,1,1,1,0,14,14,14,,,,,,,,,,,,,,,,,,,575.8876476669684,,q,1.7246570829302073,577.6841584590729,,,,,,271420,A,2024-08-01_09h16.58.518,EPIDM,2023.1.2,None,
1945.jpg,2800.jpg,4 Points,4 Points,102 Points,PS1_L2.csv,,,,,,,,,,,,,,,,,,,,,,,,,,,,,0,1,1,1,0,15,15,15,,,,,,,,,,,,,,,,,,,581.9373731249943,,p,2.5175313751678914,584.5322517920285,,,,,,271420,A,2024-08-01_09h16.58.518,EPIDM,2023.1.2,None,
5660.jpg,5201.jpg,0 Points,0 Points,102 Points,PS1_L2.csv,,,,,,,,,,,,,,,,,,,,,,,,,,,,,0,1,1,1,0,16,16,16,,,,,,,,,,,,,,,,,,,588.787441750057,,p,1.2819991670548916,590.1444317500573,,,,,,271420,A,2024-08-01_09h16.58.518,EPIDM,2023.1.2,None,
3266.jpg,7360.jpg,1 Point,1 Point,103 Points,PS1_L2.csv,,,,,,,,,,,,,,,,,,,,,,,,,,,,,0,1,1,1,0,17,17,17,,,,,,,,,,,,,,,,,,,594.3894498748705,,q,2.4865447080228478,596.9494539999869,,,,,,271420,A,2024-08-01_09h16.58.518,EPIDM,2023.1.2,None,
F149.jpg,3030.jpg,0 Points,0 Points,103 Points,PS1_L2.csv,,,,,,,,,,,,,,,,,,,,,,,,,,,,,0,1,1,1,0,18,18,18,,,,,,,,,,,,,,,,,,,601.1930387499742,,q,2.1884570829570293,603.4901747088879,,,,,,271420,A,2024-08-01_09h16.58.518,EPIDM,2023.1.2,None,
5410.jpg,1450.jpg,5 Points,5 Points,108 Points,PS1_L2.csv,,,,,,,,,,,,,,,,,,,,,,,,,,,,,0,1,1,1,0,19,19,19,,,,,,,,,,,,,,,,,,,607.6990386249963,,q,1.7055325000546873,609.4644435839728,,,,,,271420,A,2024-08-01_09h16.58.518,EPIDM,2023.1.2,None,
9101.jpg,9571.jpg,2 Points,2 Points,110 Points,PS1_L2.csv,,,,,,,,,,,,,,,,,,,,,,,,,,,,,0,1,1,1,0,20,20,20,,,,,,,,,,,,,,,,,,,613.7243870000821,,p,2.167723000049591,615.9605597499758,,,,,,271420,A,2024-08-01_09h16.58.518,EPIDM,2023.1.2,None,
9110.jpg,3051.jpg,1 Point,1 Point,111 Points,PS1_L2.csv,,,,,,,,,,,,,,,,,,,,,,,,,,,,,0,1,1,1,0,21,21,21,,,,,,,,,,,,,,,,,,,620.2129581670742,,p,2.919269541045651,623.214955125004,,,,,,271420,A,2024-08-01_09h16.58.518,EPIDM,2023.1.2,None,
2100.jpg,7205.jpg,5 Points,5 Points,116 Points,PS1_L2.csv,,,,,,,,,,,,,,,,,,,,,,,,,,,,,0,1,1,1,0,22,22,22,,,,,,,,,,,,,,,,,,,627.4488200841006,,q,1.0999007089994848,628.631910166936,,,,,,271420,A,2024-08-01_09h16.58.518,EPIDM,2023.1.2,None,
3160.jpg,6210.jpg,1 Point,1 Point,117 Points,PS1_L2.csv,,,,,,,,,,,,,,,,,,,,,,,,,,,,,0,1,1,1,0,23,23,23,,,,,,,,,,,,,,,,,,,632.8797430419363,,q,2.8361981250345707,635.7842564999592,,,646.2680898339022,space,3.2727252079639584,271420,A,2024-08-01_09h16.58.518,EPIDM,2023.1.2,None,
7283.jpg,1720.jpg,4 Points,4 Points,121 Points,PS1_L3.csv,,,,,,,,,,,,,,,,,,,,,,,,,,,,,0,2,2,2,0,0,0,0,,,,,,,,,,,,,,,,,,,652.86866520904,,p,1.4019220841582865,654.3193415000569,,,,,,271420,A,2024-08-01_09h16.58.518,EPIDM,2023.1.2,None,
6571.jpg,P237.jpg,2 Points,2 Points,123 Points,PS1_L3.csv,,,,,,,,,,,,,,,,,,,,,,,,,,,,,0,2,2,2,0,1,1,1,,,,,,,,,,,,,,,,,,,658.5828633341007,,q,2.724124667234719,661.4050081670284,2,2.1207747920416296,,,,271420,A,2024-08-01_09h16.58.518,EPIDM,2023.1.2,None,
6260.jpg,3062.jpg,3 Points,3 Points,126 Points,PS1_L3.csv,,,,,,,,,,,,,,,,,,,,,,,,,,,,,0,2,2,2,0,2,2,2,,,,,,,,,,,,,,,,,,,667.8544305840041,,p,2.2195813332218677,670.131760291988,,,,,,271420,A,2024-08-01_09h16.58.518,EPIDM,2023.1.2,None,
6150.jpg,2206.jpg,0 Points,0 Points,126 Points,PS1_L3.csv,,,,,,,,,,,,,,,,,,,,,,,,,,,,,0,2,2,2,0,3,3,3,,,,,,,,,,,,,,,,,,,674.4040970420465,,p,2.3344357090536505,676.7876929999329,,,,,,271420,A,2024-08-01_09h16.58.518,EPIDM,2023.1.2,None,
9300.jpg,1050.jpg,4 Points,4 Points,130 Points,PS1_L3.csv,,,,,,,,,,,,,,,,,,,,,,,,,,,,,0,2,2,2,0,4,4,4,,,,,,,,,,,,,,,,,,,681.0577129588928,,q,2.2654219169635326,683.3897144589573,,,,,,271420,A,2024-08-01_09h16.58.518,EPIDM,2023.1.2,None,
F365.jpg,3180.jpg,5 Points,5 Points,135 Points,PS1_L3.csv,,,,,,,,,,,,,,,,,,,,,,,,,,,,,0,2,2,2,0,5,5,5,,,,,,,,,,,,,,,,,,,687.6376116669271,,p,2.26855729194358,690.0062458750326,,,,,,271420,A,2024-08-01_09h16.58.518,EPIDM,2023.1.2,None,
2320.jpg,2791.jpg,4 Points,4 Points,139 Points,PS1_L3.csv,,,,,,,,,,,,,,,,,,,,,,,,,,,,,0,2,2,2,0,6,6,6,,,,,,,,,,,,,,,,,,,694.2210752919782,,q,2.933595416136086,697.2316830419004,,,,,,271420,A,2024-08-01_09h16.58.518,EPIDM,2023.1.2,None,
8311.jpg,4609.jpg,2 Points,2 Points,141 Points,PS1_L3.csv,,,,,,,,,,,,,,,,,,,,,,,,,,,,,0,2,2,2,0,7,7,7,,,,,,,,,,,,,,,,,,,701.4877234168816,,p,1.3814037919510156,702.9299619998783,,,,,,271420,A,2024-08-01_09h16.58.518,EPIDM,2023.1.2,None,
9042.jpg,2753.jpg,0 Points,0 Points,141 Points,PS1_L3.csv,,,,,,,,,,,,,,,,,,,,,,,,,,,,,0,2,2,2,0,8,8,8,,,,,,,,,,,,,,,,,,,707.1839632920455,,q,1.7456069579347968,708.9977777500171,,,,,,271420,A,2024-08-01_09h16.58.518,EPIDM,2023.1.2,None,
5471.jpg,7352.jpg,2 Points,2 Points,143 Points,PS1_L3.csv,,,,,,,,,,,,,,,,,,,,,,,,,,,,,0,2,2,2,0,9,9,9,,,,,,,,,,,,,,,,,,,713.2442332089413,,p,1.3254802089650184,714.6374981249683,,,,,,271420,A,2024-08-01_09h16.58.518,EPIDM,2023.1.2,None,
P222.jpg,9401.jpg,2 Points,2 Points,145 Points,PS1_L3.csv,,,,,,,,,,,,,,,,,,,,,,,,,,,,,0,2,2,2,0,10,10,10,,,,,,,,,,,,,,,,,,,718.8836886249483,,q,2.6135460420046,721.604515499901,,,,,,271420,A,2024-08-01_09h16.58.518,EPIDM,2023.1.2,None,
1610.jpg,F203.jpg,0 Points,0 Points,145 Points,PS1_L3.csv,,,,,,,,,,,,,,,,,,,,,,,,,,,,,0,2,2,2,0,11,11,11,,,,,,,,,,,,,,,,,,,725.8053719999734,,p,2.2686882498674095,728.2283669589087,,,,,,271420,A,2024-08-01_09h16.58.518,EPIDM,2023.1.2,None,
9405.jpg,6250.2.jpg,3 Points,3 Points,148 Points,PS1_L3.csv,,,,,,,,,,,,,,,,,,,,,,,,,,,,,0,2,2,2,0,12,12,12,,,,,,,,,,,,,,,,,,,732.3979033750948,,q,3.5712653340306133,736.0827714169864,,,,,,271420,A,2024-08-01_09h16.58.518,EPIDM,2023.1.2,None,
1090.jpg,P217.jpg,5 Points,5 Points,153 Points,PS1_L3.csv,,,,,,,,,,,,,,,,,,,,,,,,,,,,,0,2,2,2,0,13,13,13,,,,,,,,,,,,,,,,,,,740.293063167017,,p,3.108430084073916,743.5029290420935,5,2.81548541598022,,,,271420,A,2024-08-01_09h16.58.518,EPIDM,2023.1.2,None,
P233.jpg,3060.jpg,1 Point,1 Point,154 Points,PS1_L3.csv,,,,,,,,,,,,,,,,,,,,,,,,,,,,,0,2,2,2,0,14,14,14,,,,,,,,,,,,,,,,,,,750.6260194170754,,p,3.254500250099227,753.997055209009,,,,,,271420,A,2024-08-01_09h16.58.518,EPIDM,2023.1.2,None,
8040.jpg,7185.jpg,1 Point,1 Point,155 Points,PS1_L3.csv,,,,,,,,,,,,,,,,,,,,,,,,,,,,,0,2,2,2,0,15,15,15,,,,,,,,,,,,,,,,,,,758.1992522089276,,q,1.2738341668155044,759.5488071250729,,,,,,271420,A,2024-08-01_09h16.58.518,EPIDM,2023.1.2,None,
6550.jpg,9582.jpg,5 Points,5 Points,160 Points,PS1_L3.csv,,,,,,,,,,,,,,,,,,,,,,,,,,,,,0,2,2,2,0,16,16,16,,,,,,,,,,,,,,,,,,,763.7953085000627,,q,3.404813292203471,767.2797400420532,,,,,,271420,A,2024-08-01_09h16.58.518,EPIDM,2023.1.2,None,
P077.jpg,A041.jpg,1 Point,1 Point,161 Points,PS1_L3.csv,,,,,,,,,,,,,,,,,,,,,,,,,,,,,0,2,2,2,0,17,17,17,,,,,,,,,,,,,,,,,,,771.5323974590283,,q,1.843812125036493,773.5095967499074,,,,,,271420,A,2024-08-01_09h16.58.518,EPIDM,2023.1.2,None,
4770.jpg,4275.jpg,3 Points,3 Points,164 Points,PS1_L3.csv,,,,,,,,,,,,,,,,,,,,,,,,,,,,,0,2,2,2,0,18,18,18,,,,,,,,,,,,,,,,,,,777.6885013340507,,q,2.383678917074576,780.18692354206,,,,,,271420,A,2024-08-01_09h16.58.518,EPIDM,2023.1.2,None,
9594.jpg,1080.jpg,4 Points,4 Points,168 Points,PS1_L3.csv,,,,,,,,,,,,,,,,,,,,,,,,,,,,,0,2,2,2,0,19,19,19,,,,,,,,,,,,,,,,,,,784.3850857089274,,q,3.0878969591576606,787.560443042079,,,,,,271420,A,2024-08-01_09h16.58.518,EPIDM,2023.1.2,None,
2606.jpg,2480.jpg,1 Point,1 Point,169 Points,PS1_L3.csv,,,,,,,,,,,,,,,,,,,,,,,,,,,,,0,2,2,2,0,20,20,20,,,,,,,,,,,,,,,,,,,791.8019661249127,,p,2.406518208095804,794.2818530839868,,,,,,271420,A,2024-08-01_09h16.58.518,EPIDM,2023.1.2,None,
1052.jpg,1201.jpg,3 Points,3 Points,172 Points,PS1_L3.csv,,,,,,,,,,,,,,,,,,,,,,,,,,,,,0,2,2,2,0,21,21,21,,,,,,,,,,,,,,,,,,,798.5391104170121,,q,1.7481752501334995,800.3578312499449,,,,,,271420,A,2024-08-01_09h16.58.518,EPIDM,2023.1.2,None,
F369.jpg,3100.jpg,2 Points,2 Points,174 Points,PS1_L3.csv,,,,,,,,,,,,,,,,,,,,,,,,,,,,,0,2,2,2,0,22,22,22,,,,,,,,,,,,,,,,,,,804.6139196669683,,p,1.7134527920279652,806.4271879999433,,,,,,271420,A,2024-08-01_09h16.58.518,EPIDM,2023.1.2,None,
2620.jpg,2594.jpg,0 Points,0 Points,174 Points,PS1_L3.csv,,,,,,,,,,,,,,,,,,,,,,,,,,,,,0,2,2,2,0,23,23,23,,,,,,,,,,,,,,,,,,,810.6438918339554,,q,1.4760058328974992,812.1827587089501,,,822.6725916250143,space,9.43001791718416,271420,A,2024-08-01_09h16.58.518,EPIDM,2023.1.2,None,
P019.jpg,F158.jpg,3 Points,3 Points,177 Points,PS1_L4.csv,,,,,,,,,,,,,,,,,,,,,,,,,,,,,0,3,3,3,0,0,0,0,,,,,,,,,,,,,,,,,,,835.4147165839095,,q,2.8482847919221967,838.4028767088894,,,,,,271420,A,2024-08-01_09h16.58.518,EPIDM,2023.1.2,None,
7620.jpg,5395.jpg,1 Point,1 Point,178 Points,PS1_L4.csv,,,,,,,,,,,,,,,,,,,,,,,,,,,,,0,3,3,3,0,1,1,1,,,,,,,,,,,,,,,,,,,842.57923449995,,q,2.2276937500573695,844.9118057920132,1,2.189257833175361,,,,271420,A,2024-08-01_09h16.58.518,EPIDM,2023.1.2,None,
5970.jpg,3300.jpg,0 Points,0 Points,178 Points,PS1_L4.csv,,,,,,,,,,,,,,,,,,,,,,,,,,,,,0,3,3,3,0,2,2,2,,,,,,,,,,,,,,,,,,,851.3741493339185,,p,1.6402111661154777,853.087342124898,,,,,,271420,A,2024-08-01_09h16.58.518,EPIDM,2023.1.2,None,
5120.jpg,5520.jpg,2 Points,2 Points,180 Points,PS1_L4.csv,,,,,,,,,,,,,,,,,,,,,,,,,,,,,0,3,3,3,0,3,3,3,,,,,,,,,,,,,,,,,,,857.3464393340982,,p,2.547906958963722,859.9677188750356,,,,,,271420,A,2024-08-01_09h16.58.518,EPIDM,2023.1.2,None,
9452.jpg,7184.jpg,4 Points,4 Points,184 Points,PS1_L4.csv,,,,,,,,,,,,,,,,,,,,,,,,,,,,,0,3,3,3,0,4,4,4,,,,,,,,,,,,,,,,,,,864.2075676668901,,q,2.806546916021034,867.087156958878,,,,,,271420,A,2024-08-01_09h16.58.518,EPIDM,2023.1.2,None,
6570.1.jpg,9432.jpg,5 Points,5 Points,189 Points,PS1_L4.csv,,,,,,,,,,,,,,,,,,,,,,,,,,,,,0,3,3,3,0,5,5,5,,,,,,,,,,,,,,,,,,,871.3405740419403,,p,2.649799375096336,874.059365416877,,,,,,271420,A,2024-08-01_09h16.58.518,EPIDM,2023.1.2,None,
2389.jpg,7320.jpg,0 Points,0 Points,189 Points,PS1_L4.csv,,,,,,,,,,,,,,,,,,,,,,,,,,,,,0,3,3,3,0,6,6,6,,,,,,,,,,,,,,,,,,,878.3069825840648,,q,2.0440362500958145,880.4179582500365,,,,,,271420,A,2024-08-01_09h16.58.518,EPIDM,2023.1.2,None,
9330.jpg,3015.jpg,5 Points,5 Points,194 Points,PS1_L4.csv,,,,,,,,,,,,,,,,,,,,,,,,,,,,,0,3,3,3,0,7,7,7,,,,,,,,,,,,,,,,,,,884.6636718749069,,p,3.238481333013624,887.9715718750376,,,,,,271420,A,2024-08-01_09h16.58.518,EPIDM,2023.1.2,None,
9560.jpg,3071.jpg,1 Point,1 Point,195 Points,PS1_L4.csv,,,,,,,,,,,,,,,,,,,,,,,,,,,,,0,3,3,3,0,8,8,8,,,,,,,,,,,,,,,,,,,892.2134056668729,,p,2.618085333146155,894.9036767499056,,,,,,271420,A,2024-08-01_09h16.58.518,EPIDM,2023.1.2,None,
5994.jpg,5390.jpg,0 Points,0 Points,195 Points,PS1_L4.csv,,,,,,,,,,,,,,,,,,,,,,,,,,,,,0,3,3,3,0,9,9,9,,,,,,,,,,,,,,,,,,,899.1511110840365,,q,0.9906997089274228,900.2157095419243,,,,,,271420,A,2024-08-01_09h16.58.518,EPIDM,2023.1.2,None,
2692.jpg,8231.jpg,4 Points,4 Points,199 Points,PS1_L4.csv,,,,,,,,,,,,,,,,,,,,,,,,,,,,,0,3,3,3,0,10,10,10,,,,,,,,,,,,,,,,,,,904.4666869589128,,q,2.482952459016815,907.0125590420794,,,,,,271420,A,2024-08-01_09h16.58.518,EPIDM,2023.1.2,None,
F174.jpg,9404.jpg,5 Points,5 Points,204 Points,PS1_L4.csv,,,,,,,,,,,,,,,,,,,,,,,,,,,,,0,3,3,3,0,11,11,11,,,,,,,,,,,,,,,,,,,911.279464750085,,p,1.9680121659766883,913.3522299590986,,,,,,271420,A,2024-08-01_09h16.58.518,EPIDM,2023.1.2,None,
8010.jpg,2630.jpg,0 Points,0 Points,204 Points,PS1_L4.csv,,,,,,,,,,,,,,,,,,,,,,,,,,,,,0,3,3,3,0,12,12,12,,,,,,,,,,,,,,,,,,,917.5619744169526,,q,2.0355466671753675,919.6640501250513,,,,,,271420,A,2024-08-01_09h16.58.518,EPIDM,2023.1.2,None,
7175.jpg,7490.jpg,2 Points,2 Points,206 Points,PS1_L4.csv,,,,,,,,,,,,,,,,,,,,,,,,,,,,,0,3,3,3,0,13,13,13,,,,,,,,,,,,,,,,,,,923.910081417067,,p,2.9277847909834236,926.9112169998698,2,1.7707223331090063,,,,271420,A,2024-08-01_09h16.58.518,EPIDM,2023.1.2,None,
6561.jpg,1525.jpg,2 Points,2 Points,208 Points,PS1_L4.csv,,,,,,,,,,,,,,,,,,,,,,,,,,,,,0,3,3,3,0,14,14,14,,,,,,,,,,,,,,,,,,,932.9920082918834,,p,2.3816304579377174,935.4475607920904,,,,,,271420,A,2024-08-01_09h16.58.518,EPIDM,2023.1.2,None,
9070.jpg,9420.jpg,2 Points,2 Points,210 Points,PS1_L4.csv,,,,,,,,,,,,,,,,,,,,,,,,,,,,,0,3,3,3,0,15,15,15,,,,,,,,,,,,,,,,,,,939.6950988750905,,p,3.35837549995631,943.1121752918698,,,,,,271420,A,2024-08-01_09h16.58.518,EPIDM,2023.1.2,None,
2516.jpg,8500.jpg,4 Points,4 Points,214 Points,PS1_L4.csv,,,,,,,,,,,,,,,,,,,,,,,,,,,,,0,3,3,3,0,16,16,16,,,,,,,,,,,,,,,,,,,947.3645674169529,,p,1.3758251671679318,948.8231246669311,,,,,,271420,A,2024-08-01_09h16.58.518,EPIDM,2023.1.2,None,
9140.jpg,2810.jpg,3 Points,3 Points,217 Points,PS1_L4.csv,,,,,,,,,,,,,,,,,,,,,,,,,,,,,0,3,3,3,0,17,17,17,,,,,,,,,,,,,,,,,,,953.0651319168974,,p,2.723368957871571,955.8439564169385,,,,,,271420,A,2024-08-01_09h16.58.518,EPIDM,2023.1.2,None,
7220.jpg,8090.jpg,2 Points,2 Points,219 Points,PS1_L4.csv,,,,,,,,,,,,,,,,,,,,,,,,,,,,,0,3,3,3,0,18,18,18,,,,,,,,,,,,,,,,,,,960.1051381248981,,q,2.034556084079668,962.2034550840035,,,,,,271420,A,2024-08-01_09h16.58.518,EPIDM,2023.1.2,None,
2661.jpg,2870.jpg,5 Points,5 Points,224 Points,PS1_L4.csv,,,,,,,,,,,,,,,,,,,,,,,,,,,,,0,3,3,3,0,19,19,19,,,,,,,,,,,,,,,,,,,966.451411416987,,q,2.52007666695863,969.0443349170964,,,,,,271420,A,2024-08-01_09h16.58.518,EPIDM,2023.1.2,None,
6010.jpg,7361.jpg,2 Points,2 Points,226 Points,PS1_L4.csv,,,,,,,,,,,,,,,,,,,,,,,,,,,,,0,3,3,3,0,20,20,20,,,,,,,,,,,,,,,,,,,973.2959206670057,,None,,,,,,,,271420,A,2024-08-01_09h16.58.518,EPIDM,2023.1.2,None,
7289.jpg,4534.jpg,0 Points,0 Points,226 Points,PS1_L4.csv,,,,,,,,,,,,,,,,,,,,,,,,,,,,,0,3,3,3,0,21,21,21,,,,,,,,,,,,,,,,,,,980.7970993749332,,q,1.4231497501023114,982.293276750017,,,,,,271420,A,2024-08-01_09h16.58.518,EPIDM,2023.1.2,None,
1310.jpg,3181.jpg,4 Points,4 Points,230 Points,PS1_L4.csv,,,,,,,,,,,,,,,,,,,,,,,,,,,,,0,3,3,3,0,22,22,22,,,,,,,,,,,,,,,,,,,986.5375964590348,,p,2.3935910831205547,989.0019851250108,,,,,,271420,A,2024-08-01_09h16.58.518,EPIDM,2023.1.2,None,
2383.jpg,1616.jpg,2 Points,2 Points,232 Points,PS1_L4.csv,,,,,,,,,,,,,,,,,,,,,,,,,,,,,0,3,3,3,0,23,23,23,,,,,,,,,,,,,,,,,,,993.2451178340707,,p,2.166889375075698,995.4812517089304,,,1005.9791596669238,space,1.8170933749061078,271420,A,2024-08-01_09h16.58.518,EPIDM,2023.1.2,None,
4510.jpg,2230.jpg,5 Points,5 Points,237 Points,PS1_L5.csv,,,,,,,,,,,,,,,,,,,,,,,,,,,,,0,4,4,4,0,0,0,0,,,,,,,,,,,,,,,,,,,1011.1256574590225,,q,1.5194972078315914,1012.7192345838994,,,,,,271420,A,2024-08-01_09h16.58.518,EPIDM,2023.1.2,None,
A025.jpg,1051.jpg,0 Points,0 Points,237 Points,PS1_L5.csv,,,,,,,,,,,,,,,,,,,,,,,,,,,,,0,4,4,4,0,1,1,1,,,,,,,,,,,,,,,,,,,1016.9565596668981,,q,2.198429709067568,1019.2662542499602,0,3.214509417070076,,,,271420,A,2024-08-01_09h16.58.518,EPIDM,2023.1.2,None,
7002.jpg,4660.jpg,4 Points,4 Points,241 Points,PS1_L5.csv,,,,,,,,,,,,,,,,,,,,,,,,,,,,,0,4,4,4,0,2,2,2,,,,,,,,,,,,,,,,,,,1026.790623625042,,p,1.1796283749863505,1028.0946946670301,,,,,,271420,A,2024-08-01_09h16.58.518,EPIDM,2023.1.2,None,
2900.jpg,1101.jpg,3 Points,3 Points,244 Points,PS1_L5.csv,,,,,,,,,,,,,,,,,,,,,,,,,,,,,0,4,4,4,0,3,3,3,,,,,,,,,,,,,,,,,,,1032.2868490840774,,q,0.9797924999147654,1033.3439282090403,,,,,,271420,A,2024-08-01_09h16.58.518,EPIDM,2023.1.2,None,
2485.jpg,7350.jpg,0 Points,0 Points,244 Points,PS1_L5.csv,,,,,,,,,,,,,,,,,,,,,,,,,,,,,0,4,4,4,0,4,4,4,,,,,,,,,,,,,,,,,,,1037.579148416873,,q,1.7592659171205014,1039.4143072499428,,,,,,271420,A,2024-08-01_09h16.58.518,EPIDM,2023.1.2,None,
6242.jpg,F034.jpg,4 Points,4 Points,248 Points,PS1_L5.csv,,,,,,,,,,,,,,,,,,,,,,,,,,,,,0,4,4,4,0,5,5,5,,,,,,,,,,,,,,,,,,,1043.6597022500355,,p,1.214208375196904,1044.9817207918968,,,,,,271420,A,2024-08-01_09h16.58.518,EPIDM,2023.1.2,None,
3170.jpg,6560.jpg,2 Points,2 Points,250 Points,PS1_L5.csv,,,,,,,,,,,,,,,,,,,,,,,,,,,,,0,4,4,4,0,6,6,6,,,,,,,,,,,,,,,,,,,1049.1860172089655,,p,1.7042670832015574,1050.95973100001,,,,,,271420,A,2024-08-01_09h16.58.518,EPIDM,2023.1.2,None,
8033.jpg,7270.jpg,3 Points,3 Points,253 Points,PS1_L5.csv,,,,,,,,,,,,,,,,,,,,,,,,,,,,,0,4,4,4,0,7,7,7,,,,,,,,,,,,,,,,,,,1055.2089915419929,,q,1.4800784999970347,1056.762227084022,,,,,,271420,A,2024-08-01_09h16.58.518,EPIDM,2023.1.2,None,
2597.jpg,5870.jpg,5 Points,5 Points,258 Points,PS1_L5.csv,,,,,,,,,,,,,,,,,,,,,,,,,,,,,0,4,4,4,0,8,8,8,,,,,,,,,,,,,,,,,,,1061.0159778750967,,q,2.3780687919352204,1063.4657475000713,,,,,,271420,A,2024-08-01_09h16.58.518,EPIDM,2023.1.2,None,
6312.jpg,3230.jpg,2 Points,2 Points,260 Points,PS1_L5.csv,,,,,,,,,,,,,,,,,,,,,,,,,,,,,0,4,4,4,0,9,9,9,,,,,,,,,,,,,,,,,,,1067.7117457920685,,q,1.8986335000954568,1069.6813095840625,,,,,,271420,A,2024-08-01_09h16.58.518,EPIDM,2023.1.2,None,
3130.jpg,3500.jpg,4 Points,4 Points,264 Points,PS1_L5.csv,,,,,,,,,,,,,,,,,,,,,,,,,,,,,0,4,4,4,0,10,10,10,,,,,,,,,,,,,,,,,,,1073.9213602500968,,p,1.6008767080493271,1075.5918020838872,,,,,,271420,A,2024-08-01_09h16.58.518,EPIDM,2023.1.2,None,
2749.jpg,7282.jpg,3 Points,3 Points,267 Points,PS1_L5.csv,,,,,,,,,,,,,,,,,,,,,,,,,,,,,0,4,4,4,0,11,11,11,,,,,,,,,,,,,,,,,,,1079.8433513750788,,q,2.6866215839982033,1082.6025222090539,,,,,,271420,A,2024-08-01_09h16.58.518,EPIDM,2023.1.2,None,
5300.jpg,2372.jpg,1 Point,1 Point,268 Points,PS1_L5.csv,,,,,,,,,,,,,,,,,,,,,,,,,,,,,0,4,4,4,0,12,12,12,,,,,,,,,,,,,,,,,,,1086.8521291669458,,p,1.9248106661252677,1088.8486348749138,,,,,,271420,A,2024-08-01_09h16.58.518,EPIDM,2023.1.2,None,
6510.jpg,A074.jpg,2 Points,2 Points,270 Points,PS1_L5.csv,,,,,,,,,,,,,,,,,,,,,,,,,,,,,0,4,4,4,0,13,13,13,,,,,,,,,,,,,,,,,,,1093.112316166982,,q,1.9998092921450734,1095.2273315000348,2,2.085341874975711,,,,271420,A,2024-08-01_09h16.58.518,EPIDM,2023.1.2,None,
2260.jpg,2830.jpg,5 Points,5 Points,275 Points,PS1_L5.csv,,,,,,,,,,,,,,,,,,,,,,,,,,,,,0,4,4,4,0,14,14,14,,,,,,,,,,,,,,,,,,,1101.6409360840917,,p,2.584698459133506,1104.3021930418909,,,,,,271420,A,2024-08-01_09h16.58.518,EPIDM,2023.1.2,None,
2710.jpg,9252.jpg,1 Point,1 Point,276 Points,PS1_L5.csv,,,,,,,,,,,,,,,,,,,,,,,,,,,,,0,4,4,4,0,15,15,15,,,,,,,,,,,,,,,,,,,1108.5482690839563,,p,2.7480251248925924,1111.3695376669057,,,,,,271420,A,2024-08-01_09h16.58.518,EPIDM,2023.1.2,None,
3064.jpg,3168.jpg,4 Points,4 Points,280 Points,PS1_L5.csv,,,,,,,,,,,,,,,,,,,,,,,,,,,,,0,4,4,4,0,16,16,16,,,,,,,,,,,,,,,,,,,1115.6144535839558,,q,1.1300172498449683,1116.8031172088813,,,,,,271420,A,2024-08-01_09h16.58.518,EPIDM,2023.1.2,None,
1640.jpg,5531.jpg,3 Points,3 Points,283 Points,PS1_L5.csv,,,,,,,,,,,,,,,,,,,,,,,,,,,,,0,4,4,4,0,17,17,17,,,,,,,,,,,,,,,,,,,1121.053521584021,,q,1.362381709041074,1122.4921931249555,,,,,,271420,A,2024-08-01_09h16.58.518,EPIDM,2023.1.2,None,
3530.jpg,6213.jpg,1 Point,1 Point,284 Points,PS1_L5.csv,,,,,,,,,,,,,,,,,,,,,,,,,,,,,0,4,4,4,0,18,18,18,,,,,,,,,,,,,,,,,,,1126.7383395419456,,q,1.3338993331417441,1128.1430752919987,,,,,,271420,A,2024-08-01_09h16.58.518,EPIDM,2023.1.2,None,
9090.jpg,7580.jpg,3 Points,3 Points,287 Points,PS1_L5.csv,,,,,,,,,,,,,,,,,,,,,,,,,,,,,0,4,4,4,0,19,19,19,,,,,,,,,,,,,,,,,,,1132.3816016248893,,p,1.1149614159949124,1133.5683991669212,,,,,,271420,A,2024-08-01_09h16.58.518,EPIDM,2023.1.2,None,
8230.jpg,2682.jpg,5 Points,5 Points,292 Points,PS1_L5.csv,,,,,,,,,,,,,,,,,,,,,,,,,,,,,0,4,4,4,0,20,20,20,,,,,,,,,,,,,,,,,,,1137.810770999873,,q,1.7581561249680817,1139.645953750005,,,,,,271420,A,2024-08-01_09h16.58.518,EPIDM,2023.1.2,None,
9592.jpg,1300.jpg,2 Points,2 Points,294 Points,PS1_L5.csv,,,,,,,,,,,,,,,,,,,,,,,,,,,,,0,4,4,4,0,21,21,21,,,,,,,,,,,,,,,,,,,1143.8889840838965,,q,1.4956172499805689,1145.4453452921007,,,,,,271420,A,2024-08-01_09h16.58.518,EPIDM,2023.1.2,None,
2490.jpg,2590.jpg,4 Points,4 Points,298 Points,PS1_L5.csv,,,,,,,,,,,,,,,,,,,,,,,,,,,,,0,4,4,4,0,22,22,22,,,,,,,,,,,,,,,,,,,1149.6943227499723,,q,2.2492720000445843,1152.0114814168774,,,,,,271420,A,2024-08-01_09h16.58.518,EPIDM,2023.1.2,None,
2190.jpg,7503.jpg,2 Points,2 Points,300 Points,PS1_L5.csv,,,,,,,,,,,,,,,,,,,,,,,,,,,,,0,4,4,4,0,23,23,23,,,,,,,,,,,,,,,,,,,1156.2609923749696,,p,2.9946773340925574,1159.326595874969,,,1169.8244617499877,space,2.591080125188455,271420,A,2024-08-01_09h16.58.518,EPIDM,2023.1.2,None,
1930.jpg,9008.jpg,1 Point,1 Point,301 Points,PS1_L6.csv,,,,,,,,,,,,,,,,,,,,,,,,,,,,,0,5,5,5,0,0,0,0,,,,,,,,,,,,,,,,,,,1175.7298364168964,,p,1.5892454162240028,1177.3974001249298,,,,,,271420,A,2024-08-01_09h16.58.518,EPIDM,2023.1.2,None,
4613.jpg,2720.jpg,4 Points,4 Points,305 Points,PS1_L6.csv,,,,,,,,,,,,,,,,,,,,,,,,,,,,,0,5,5,5,0,1,1,1,,,,,,,,,,,,,,,,,,,1181.6333265840076,,p,1.557750874897465,1183.2623792090453,4,2.3123602501582354,,,,271420,A,2024-08-01_09h16.58.518,EPIDM,2023.1.2,None,
3280.jpg,9270.jpg,0 Points,0 Points,305 Points,PS1_L6.csv,,,,,,,,,,,,,,,,,,,,,,,,,,,,,0,5,5,5,0,2,2,2,,,,,,,,,,,,,,,,,,,1189.8801139169373,,q,2.767567333066836,1192.7039634590037,,,,,,271420,A,2024-08-01_09h16.58.518,EPIDM,2023.1.2,None,
6800.jpg,9190.jpg,0 Points,0 Points,305 Points,PS1_L6.csv,,,,,,,,,,,,,,,,,,,,,,,,,,,,,0,5,5,5,0,3,3,3,,,,,,,,,,,,,,,,,,,1196.9557945420966,,q,1.4428601248655468,1198.4662442500703,,,,,,271420,A,2024-08-01_09h16.58.518,EPIDM,2023.1.2,None,
5600.jpg,9080.jpg,5 Points,5 Points,310 Points,PS1_L6.csv,,,,,,,,,,,,,,,,,,,,,,,,,,,,,0,5,5,5,0,4,4,4,,,,,,,,,,,,,,,,,,,1202.7261145839002,,p,1.1611717091873288,1203.9630740000866,,,,,,271420,A,2024-08-01_09h16.58.518,EPIDM,2023.1.2,None,
P211.jpg,9041.jpg,4 Points,4 Points,314 Points,PS1_L6.csv,,,,,,,,,,,,,,,,,,,,,,,,,,,,,0,5,5,5,0,5,5,5,,,,,,,,,,,,,,,,,,,1208.2021474589128,,p,2.3893089168705046,1210.7264844588935,,,,,,271420,A,2024-08-01_09h16.58.518,EPIDM,2023.1.2,None,
5200.jpg,5020.jpg,0 Points,0 Points,314 Points,PS1_L6.csv,,,,,,,,,,,,,,,,,,,,,,,,,,,,,0,5,5,5,0,6,6,6,,,,,,,,,,,,,,,,,,,1214.9428608750459,,q,1.5440169170033187,1216.5636718340684,,,,,,271420,A,2024-08-01_09h16.58.518,EPIDM,2023.1.2,None,
1850.jpg,5623.jpg,5 Points,5 Points,319 Points,PS1_L6.csv,,,,,,,,,,,,,,,,,,,,,,,,,,,,,0,5,5,5,0,7,7,7,,,,,,,,,,,,,,,,,,,1220.8177026249468,,q,1.3400085831526667,1222.2328038339037,,,,,,271420,A,2024-08-01_09h16.58.518,EPIDM,2023.1.2,None,
9440.jpg,6350.jpg,4 Points,4 Points,323 Points,PS1_L6.csv,,,,,,,,,,,,,,,,,,,,,,,,,,,,,0,5,5,5,0,8,8,8,,,,,,,,,,,,,,,,,,,1226.479055749951,,p,2.2308104999829084,1228.774295500014,,,,,,271420,A,2024-08-01_09h16.58.518,EPIDM,2023.1.2,None,
5990.jpg,5780.jpg,3 Points,3 Points,326 Points,PS1_L6.csv,,,,,,,,,,,,,,,,,,,,,,,,,,,,,0,5,5,5,0,9,9,9,,,,,,,,,,,,,,,,,,,1233.038740792079,,p,2.9105226250831038,1236.0217663750518,,,,,,271420,A,2024-08-01_09h16.58.518,EPIDM,2023.1.2,None,
6244.jpg,9265.jpg,0 Points,0 Points,326 Points,PS1_L6.csv,,,,,,,,,,,,,,,,,,,,,,,,,,,,,0,5,5,5,0,10,10,10,,,,,,,,,,,,,,,,,,,1240.2712791669182,,p,1.9182951669208705,1242.2700417090673,,,,,,271420,A,2024-08-01_09h16.58.518,EPIDM,2023.1.2,None,
5000.jpg,8180.jpg,4 Points,4 Points,330 Points,PS1_L6.csv,,,,,,,,,,,,,,,,,,,,,,,,,,,,,0,5,5,5,0,11,11,11,,,,,,,,,,,,,,,,,,,1246.5151964998804,,p,1.4023453330155462,1247.9917836249806,,,,,,271420,A,2024-08-01_09h16.58.518,EPIDM,2023.1.2,None,
5982.jpg,5260.jpg,5 Points,5 Points,335 Points,PS1_L6.csv,,,,,,,,,,,,,,,,,,,,,,,,,,,,,0,5,5,5,0,12,12,12,,,,,,,,,,,,,,,,,,,1252.2286764590535,,p,2.1137498752214015,1254.4255380420946,,,,,,271420,A,2024-08-01_09h16.58.518,EPIDM,2023.1.2,None,
1301.jpg,1070.jpg,2 Points,2 Points,337 Points,PS1_L6.csv,,,,,,,,,,,,,,,,,,,,,,,,,,,,,0,5,5,5,0,13,13,13,,,,,,,,,,,,,,,,,,,1258.666894374881,,q,1.8991111658979207,1260.6408977499232,1,2.0010805421043187,,,,271420,A,2024-08-01_09h16.58.518,EPIDM,2023.1.2,None,
7920.jpg,9102.jpg,3 Points,3 Points,340 Points,PS1_L6.csv,,,,,,,,,,,,,,,,,,,,,,,,,,,,,0,5,5,5,0,14,14,14,,,,,,,,,,,,,,,,,,,1266.9708101670258,,p,2.690784541191533,1269.731722916942,,,,,,271420,A,2024-08-01_09h16.58.518,EPIDM,2023.1.2,None,
5455.jpg,5220.jpg,0 Points,0 Points,340 Points,PS1_L6.csv,,,,,,,,,,,,,,,,,,,,,,,,,,,,,0,5,5,5,0,15,15,15,,,,,,,,,,,,,,,,,,,1273.9709143340588,,q,2.8348165419884026,1276.8693307500798,,,,,,271420,A,2024-08-01_09h16.58.518,EPIDM,2023.1.2,None,
3350.jpg,3210.jpg,1 Point,1 Point,341 Points,PS1_L6.csv,,,,,,,,,,,,,,,,,,,,,,,,,,,,,0,5,5,5,0,16,16,16,,,,,,,,,,,,,,,,,,,1281.1176779998932,,q,1.8231516249943525,1283.0054964590818,,,,,,271420,A,2024-08-01_09h16.58.518,EPIDM,2023.1.2,None,
2560.jpg,5270.jpg,4 Points,4 Points,345 Points,PS1_L6.csv,,,,,,,,,,,,,,,,,,,,,,,,,,,,,0,5,5,5,0,17,17,17,,,,,,,,,,,,,,,,,,,1287.2705502500758,,p,2.269993833033368,1289.6065189170185,,,,,,271420,A,2024-08-01_09h16.58.518,EPIDM,2023.1.2,None,
9584.jpg,3400.jpg,2 Points,2 Points,347 Points,PS1_L6.csv,,,,,,,,,,,,,,,,,,,,,,,,,,,,,0,5,5,5,0,18,18,18,,,,,,,,,,,,,,,,,,,1293.8611512919888,,p,1.8725841660052538,1295.8040795419365,,,,,,271420,A,2024-08-01_09h16.58.518,EPIDM,2023.1.2,None,
5760.jpg,1602.jpg,1 Point,1 Point,348 Points,PS1_L6.csv,,,,,,,,,,,,,,,,,,,,,,,,,,,,,0,5,5,5,0,19,19,19,,,,,,,,,,,,,,,,,,,1300.0605739168823,,q,0.8475649589672685,1300.9730479170103,,,,,,271420,A,2024-08-01_09h16.58.518,EPIDM,2023.1.2,None,
7230.jpg,7570.jpg,5 Points,5 Points,353 Points,PS1_L6.csv,,,,,,,,,,,,,,,,,,,,,,,,,,,,,0,5,5,5,0,20,20,20,,,,,,,,,,,,,,,,,,,1305.2270228751004,,p,1.96170458314009,1307.2775189168751,,,,,,271420,A,2024-08-01_09h16.58.518,EPIDM,2023.1.2,None,
1022.jpg,6930.jpg,1 Point,1 Point,354 Points,PS1_L6.csv,,,,,,,,,,,,,,,,,,,,,,,,,,,,,0,5,5,5,0,21,21,21,,,,,,,,,,,,,,,,,,,1311.5141343749128,,q,0.9535218339879066,1312.5415961670224,,,,,,271420,A,2024-08-01_09h16.58.518,EPIDM,2023.1.2,None,
8340.jpg,7546.jpg,2 Points,2 Points,356 Points,PS1_L6.csv,,,,,,,,,,,,,,,,,,,,,,,,,,,,,0,5,5,5,0,22,22,22,,,,,,,,,,,,,,,,,,,1316.784511209,,p,1.3235471670050174,1318.175051084021,,,,,,271420,A,2024-08-01_09h16.58.518,EPIDM,2023.1.2,None,
6243.jpg,2752.jpg,2 Points,2 Points,358 Points,PS1_L6.csv,,,,,,,,,,,,,,,,,,,,,,,,,,,,,0,5,5,5,0,23,23,23,,,,,,,,,,,,,,,,,,,1322.4179142920766,,q,1.2745671670418233,1323.7527429999318,,,1334.2578174169175,space,3.162841333076358,271420,A,2024-08-01_09h16.58.518,EPIDM,2023.1.2,None,
7280.jpg,7160.jpg,0 Points,0 Points,358 Points,PS1_L7.csv,,,,,,,,,,,,,,,,,,,,,,,,,,,,,0,6,6,6,0,0,0,0,,,,,,,,,,,,,,,,,,,1340.7404457919765,,q,2.398202500073239,1343.2284670420922,,,,,,271420,A,2024-08-01_09h16.58.518,EPIDM,2023.1.2,None,
2580.jpg,8300.jpg,3 Points,3 Points,361 Points,PS1_L7.csv,,,,,,,,,,,,,,,,,,,,,,,,,,,,,0,6,6,6,0,1,1,1,,,,,,,,,,,,,,,,,,,1347.4651073750574,,q,2.156130208168179,1349.691193375038,3,2.5452054999768734,,,,271420,A,2024-08-01_09h16.58.518,EPIDM,2023.1.2,None,
5972.jpg,6838.jpg,5 Points,5 Points,366 Points,PS1_L7.csv,,,,,,,,,,,,,,,,,,,,,,,,,,,,,0,6,6,6,0,2,2,2,,,,,,,,,,,,,,,,,,,1356.5460551669821,,p,3.6256567500531673,1360.2376773338765,,,,,,271420,A,2024-08-01_09h16.58.518,EPIDM,2023.1.2,None,
5621.jpg,5534.jpg,3 Points,3 Points,369 Points,PS1_L7.csv,,,,,,,,,,,,,,,,,,,,,,,,,,,,,0,6,6,6,0,3,3,3,,,,,,,,,,,,,,,,,,,1364.4813610420097,,q,1.5061197499744594,1366.0658298749477,,,,,,271420,A,2024-08-01_09h16.58.518,EPIDM,2023.1.2,None,
8480.jpg,6410.jpg,1 Point,1 Point,370 Points,PS1_L7.csv,,,,,,,,,,,,,,,,,,,,,,,,,,,,,0,6,6,6,0,4,4,4,,,,,,,,,,,,,,,,,,,1370.3090428339783,,q,1.750489291967824,1372.1270438339561,,,,,,271420,A,2024-08-01_09h16.58.518,EPIDM,2023.1.2,None,
2702.jpg,1590.jpg,5 Points,5 Points,375 Points,PS1_L7.csv,,,,,,,,,,,,,,,,,,,,,,,,,,,,,0,6,6,6,0,5,5,5,,,,,,,,,,,,,,,,,,,1376.371547125047,,q,1.0238220421597362,1377.473269250011,,,,,,271420,A,2024-08-01_09h16.58.518,EPIDM,2023.1.2,None,
1275.jpg,3150.jpg,1 Point,1 Point,376 Points,PS1_L7.csv,,,,,,,,,,,,,,,,,,,,,,,,,,,,,0,6,6,6,0,6,6,6,,,,,,,,,,,,,,,,,,,1381.712040750077,,p,2.6099214998539537,1384.3971513339784,,,,,,271420,A,2024-08-01_09h16.58.518,EPIDM,2023.1.2,None,
1910.jpg,2575.jpg,2 Points,2 Points,378 Points,PS1_L7.csv,,,,,,,,,,,,,,,,,,,,,,,,,,,,,0,6,6,6,0,7,7,7,,,,,,,,,,,,,,,,,,,1388.6423099169042,,p,1.6558117920067161,1390.3677445838694,,,,,,271420,A,2024-08-01_09h16.58.518,EPIDM,2023.1.2,None,
2518.jpg,2381.jpg,1 Point,1 Point,382 Points,PS1_L7.csv,,,,,,,,,,,,,,,,,,,,,,,,,,,,,0,6,6,6,0,8,8,8,,,,,,,,,,,,,,,,,,,1394.6176941669546,,p,1.321611125022173,1396.008675625082,,,,,,271420,A,2024-08-01_09h16.58.518,EPIDM,2023.1.2,None,
6250.1.jpg,3301.jpg,0 Points,0 Points,382 Points,PS1_L7.csv,,,,,,,,,,,,,,,,,,,,,,,,,,,,,0,6,6,6,0,9,9,9,,,,,,,,,,,,,,,,,,,1400.2677385420538,,q,1.0944512919522822,1401.4331833340693,,,,,,271420,A,2024-08-01_09h16.58.518,EPIDM,2023.1.2,None,
7234.jpg,5533.jpg,3 Points,3 Points,385 Points,PS1_L7.csv,,,,,,,,,,,,,,,,,,,,,,,,,,,,,0,6,6,6,0,10,10,10,,,,,,,,,,,,,,,,,,,1405.6878477500286,,q,1.9782413330394775,1407.7380772500765,,,,,,271420,A,2024-08-01_09h16.58.518,EPIDM,2023.1.2,None,
9920.jpg,3068.jpg,5 Points,5 Points,390 Points,PS1_L7.csv,,,,,,,,,,,,,,,,,,,,,,,,,,,,,0,6,6,6,0,11,11,11,,,,,,,,,,,,,,,,,,,1411.9879307919182,,p,2.1094552089925855,1414.16261737491,,,,,,271420,A,2024-08-01_09h16.58.518,EPIDM,2023.1.2,None,
3022.jpg,2352.2.jpg,0 Points,0 Points,390 Points,PS1_L7.csv,,,,,,,,,,,,,,,,,,,,,,,,,,,,,0,6,6,6,0,12,12,12,,,,,,,,,,,,,,,,,,,1418.4217789999675,,p,1.9399867081083357,1420.4320603339002,,,,,,271420,A,2024-08-01_09h16.58.518,EPIDM,2023.1.2,None,
8250.jpg,1313.jpg,4 Points,4 Points,394 Points,PS1_L7.csv,,,,,,,,,,,,,,,,,,,,,,,,,,,,,0,6,6,6,0,13,13,13,,,,,,,,,,,,,,,,,,,1424.6805478748865,,q,1.6015790000092238,1426.3682174589485,2,2.538464083103463,,,,271420,A,2024-08-01_09h16.58.518,EPIDM,2023.1.2,None,
2690.jpg,9360.jpg,1 Point,1 Point,395 Points,PS1_L7.csv,,,,,,,,,,,,,,,,,,,,,,,,,,,,,0,6,6,6,0,14,14,14,,,,,,,,,,,,,,,,,,,1433.2240639170632,,q,1.6412822909187526,1434.9435870419256,,,,,,271420,A,2024-08-01_09h16.58.518,EPIDM,2023.1.2,None,
9570.jpg,6610.jpg,0 Points,0 Points,395 Points,PS1_L7.csv,,,,,,,,,,,,,,,,,,,,,,,,,,,,,0,6,6,6,0,15,15,15,,,,,,,,,,,,,,,,,,,1439.1943316669203,,None,,,,,,,,271420,A,2024-08-01_09h16.58.518,EPIDM,2023.1.2,None,
3110.jpg,9000.jpg,4 Points,4 Points,399 Points,PS1_L7.csv,,,,,,,,,,,,,,,,,,,,,,,,,,,,,0,6,6,6,0,16,16,16,,,,,,,,,,,,,,,,,,,1446.6867910840083,,q,1.01856975001283,1447.7694174589124,,,,,,271420,A,2024-08-01_09h16.58.518,EPIDM,2023.1.2,None,
8465.jpg,8400.jpg,1 Point,1 Point,400 Points,PS1_L7.csv,,,,,,,,,,,,,,,,,,,,,,,,,,,,,0,6,6,6,0,17,17,17,,,,,,,,,,,,,,,,,,,1452.0204504590947,,q,1.2136371659580618,1453.3029058340471,,,,,,271420,A,2024-08-01_09h16.58.518,EPIDM,2023.1.2,None,
1540.jpg,2600.jpg,1 Point,1 Point,401 Points,PS1_L7.csv,,,,,,,,,,,,,,,,,,,,,,,,,,,,,0,6,6,6,0,18,18,18,,,,,,,,,,,,,,,,,,,1457.553545749979,,q,1.0312129580415785,1458.6496675419621,,,,,,271420,A,2024-08-01_09h16.58.518,EPIDM,2023.1.2,None,
2276.jpg,6540.jpg,3 Points,3 Points,404 Points,PS1_L7.csv,,,,,,,,,,,,,,,,,,,,,,,,,,,,,0,6,6,6,0,19,19,19,,,,,,,,,,,,,,,,,,,1462.895752334036,,p,1.7386432921048254,1464.6976950000972,,,,,,271420,A,2024-08-01_09h16.58.518,EPIDM,2023.1.2,None,
5030.jpg,1670.jpg,3 Points,3 Points,407 Points,PS1_L7.csv,,,,,,,,,,,,,,,,,,,,,,,,,,,,,0,6,6,6,0,20,20,20,,,,,,,,,,,,,,,,,,,1468.9601815000642,,p,0.9600950840394944,1469.984447625,,,,,,271420,A,2024-08-01_09h16.58.518,EPIDM,2023.1.2,None,
9040.jpg,1120.jpg,3 Points,3 Points,410 Points,PS1_L7.csv,,,,,,,,,,,,,,,,,,,,,,,,,,,,,0,6,6,6,0,21,21,21,,,,,,,,,,,,,,,,,,,1474.2363640419208,,q,1.275517791043967,1475.5812317919917,,,,,,271420,A,2024-08-01_09h16.58.518,EPIDM,2023.1.2,None,
3220.jpg,3063.jpg,5 Points,5 Points,415 Points,PS1_L7.csv,,,,,,,,,,,,,,,,,,,,,,,,,,,,,0,6,6,6,0,22,22,22,,,,,,,,,,,,,,,,,,,1479.8429731670767,,p,1.4530190411023796,1481.3570054590236,,,,,,271420,A,2024-08-01_09h16.58.518,EPIDM,2023.1.2,None,
8117.jpg,2880.jpg,5 Points,5 Points,420 Points,PS1_L7.csv,,,,,,,,,,,,,,,,,,,,,,,,,,,,,0,6,6,6,0,23,23,23,,,,,,,,,,,,,,,,,,,1485.609522792045,,q,1.4471833752468228,1487.1222332499456,,,1497.5942051250022,space,8.709692874923348,271420,A,2024-08-01_09h16.58.518,EPIDM,2023.1.2,None,
4274.jpg,8160.jpg,2 Points,2 Points,422 Points,PS1_L8.csv,,,,,,,,,,,,,,,,,,,,,,,,,,,,,0,7,7,7,0,0,0,0,,,,,,,,,,,,,,,,,,,1509.6221147920005,,p,2.025849417084828,1511.7249669590965,,,,,,271420,A,2024-08-01_09h16.58.518,EPIDM,2023.1.2,None,
6314.jpg,O022.jpg,2 Points,2 Points,424 Points,PS1_L8.csv,,,,,,,,,,,,,,,,,,,,,,,,,,,,,0,7,7,7,0,1,1,1,,,,,,,,,,,,,,,,,,,1515.963539917022,,p,1.1789315829519182,1517.2451717918739,2,1.7475850828923285,,,,271420,A,2024-08-01_09h16.58.518,EPIDM,2023.1.2,None,
1560.jpg,8185.jpg,0 Points,0 Points,424 Points,PS1_L8.csv,,,,,,,,,,,,,,,,,,,,,,,,,,,,,0,7,7,7,0,2,2,2,,,,,,,,,,,,,,,,,,,1523.312192125013,,p,1.7345086249988526,1525.1154836250935,,,,,,271420,A,2024-08-01_09h16.58.518,EPIDM,2023.1.2,None,
2850.jpg,4532.jpg,3 Points,3 Points,427 Points,PS1_L8.csv,,,,,,,,,,,,,,,,,,,,,,,,,,,,,0,7,7,7,0,3,3,3,,,,,,,,,,,,,,,,,,,1529.358528458979,,q,1.3195479582063854,1530.751137208892,,,,,,271420,A,2024-08-01_09h16.58.518,EPIDM,2023.1.2,None,
1390.jpg,9421.jpg,2 Points,2 Points,429 Points,PS1_L8.csv,,,,,,,,,,,,,,,,,,,,,,,,,,,,,0,7,7,7,0,4,4,4,,,,,,,,,,,,,,,,,,,1535.0085622090846,,p,1.453863708069548,1536.5296028750017,,,,,,271420,A,2024-08-01_09h16.58.518,EPIDM,2023.1.2,None,
9800.jpg,9433.jpg,1 Point,1 Point,430 Points,PS1_L8.csv,,,,,,,,,,,,,,,,,,,,,,,,,,,,,0,7,7,7,0,5,5,5,,,,,,,,,,,,,,,,,,,1540.7767189589795,,p,1.3182746251113713,1542.1579233340453,,,,,,271420,A,2024-08-01_09h16.58.518,EPIDM,2023.1.2,None,
8161.jpg,1900.jpg,4 Points,4 Points,434 Points,PS1_L8.csv,,,,,,,,,,,,,,,,,,,,,,,,,,,,,0,7,7,7,0,6,6,6,,,,,,,,,,,,,,,,,,,1546.408637125045,,q,1.4945528751704842,1547.9766089168843,,,,,,271420,A,2024-08-01_09h16.58.518,EPIDM,2023.1.2,None,
1112.jpg,6230.jpg,3 Points,3 Points,437 Points,PS1_L8.csv,,,,,,,,,,,,,,,,,,,,,,,,,,,,,0,7,7,7,0,7,7,7,,,,,,,,,,,,,,,,,,,1552.2347323750146,,p,1.3804690830875188,1553.686736417003,,,,,,271420,A,2024-08-01_09h16.58.518,EPIDM,2023.1.2,None,
1111.jpg,1040.jpg,0 Points,0 Points,437 Points,PS1_L8.csv,,,,,,,,,,,,,,,,,,,,,,,,,,,,,0,7,7,7,0,8,8,8,,,,,,,,,,,,,,,,,,,1557.9304365839344,,p,1.220010583056137,1559.2267613750882,,,,,,271420,A,2024-08-01_09h16.58.518,EPIDM,2023.1.2,None,
5622.jpg,9156.jpg,4 Points,4 Points,441 Points,PS1_L8.csv,,,,,,,,,,,,,,,,,,,,,,,,,,,,,0,7,7,7,0,9,9,9,,,,,,,,,,,,,,,,,,,1563.461090875091,,q,1.921475333161652,1565.4691512500867,,,,,,271420,A,2024-08-01_09h16.58.518,EPIDM,2023.1.2,None,
2681.jpg,7100.jpg,3 Points,3 Points,444 Points,PS1_L8.csv,,,,,,,,,,,,,,,,,,,,,,,,,,,,,0,7,7,7,0,10,10,10,,,,,,,,,,,,,,,,,,,1569.7091819590423,,q,0.9767965420614928,1570.7657050839625,,,,,,271420,A,2024-08-01_09h16.58.518,EPIDM,2023.1.2,None,
6821.jpg,9622.jpg,2 Points,2 Points,446 Points,PS1_L8.csv,,,,,,,,,,,,,,,,,,,,,,,,,,,,,0,7,7,7,0,11,11,11,,,,,,,,,,,,,,,,,,,1575.012272916967,,q,1.8983094170689583,1576.9777766249608,,,,,,271420,A,2024-08-01_09h16.58.518,EPIDM,2023.1.2,None,
9490.jpg,9210.jpg,1 Point,1 Point,447 Points,PS1_L8.csv,,,,,,,,,,,,,,,,,,,,,,,,,,,,,0,7,7,7,0,12,12,12,,,,,,,,,,,,,,,,,,,1581.2378229589667,,q,1.0886035829316825,1582.3908238750882,,,,,,271420,A,2024-08-01_09h16.58.518,EPIDM,2023.1.2,None,
4605.jpg,1510.jpg,4 Points,4 Points,451 Points,PS1_L8.csv,,,,,,,,,,,,,,,,,,,,,,,,,,,,,0,7,7,7,0,13,13,13,,,,,,,,,,,,,,,,,,,1586.6540270000696,,q,1.3829147089272738,1588.105174416909,4,1.3169625408481807,,,,271420,A,2024-08-01_09h16.58.518,EPIDM,2023.1.2,None,
2240.jpg,5010.jpg,5 Points,5 Points,456 Points,PS1_L8.csv,,,,,,,,,,,,,,,,,,,,,,,,,,,,,0,7,7,7,0,14,14,14,,,,,,,,,,,,,,,,,,,1593.743695708923,,q,1.278353167232126,1595.107656084001,,,,,,271420,A,2024-08-01_09h16.58.518,EPIDM,2023.1.2,None,
3102.jpg,F032.jpg,1 Point,1 Point,457 Points,PS1_L8.csv,,,,,,,,,,,,,,,,,,,,,,,,,,,,,0,7,7,7,0,15,15,15,,,,,,,,,,,,,,,,,,,1599.339670416899,,q,1.458111000014469,1600.9013119589072,,,,,,271420,A,2024-08-01_09h16.58.518,EPIDM,2023.1.2,None,
4100.jpg,6570.2.jpg,3 Points,3 Points,460 Points,PS1_L8.csv,,,,,,,,,,,,,,,,,,,,,,,,,,,,,0,7,7,7,0,16,16,16,,,,,,,,,,,,,,,,,,,1605.1070953749586,,p,2.1376633748877794,1607.3356154169887,,,,,,271420,A,2024-08-01_09h16.58.518,EPIDM,2023.1.2,None,
2650.jpg,4531.jpg,5 Points,5 Points,465 Points,PS1_L8.csv,,,,,,,,,,,,,,,,,,,,,,,,,,,,,0,7,7,7,0,17,17,17,,,,,,,,,,,,,,,,,,,1611.580962209031,,p,1.8403112920932472,1613.4967354170512,,,,,,271420,A,2024-08-01_09h16.58.518,EPIDM,2023.1.2,None,
9320.jpg,9007.jpg,0 Points,0 Points,465 Points,PS1_L8.csv,,,,,,,,,,,,,,,,,,,,,,,,,,,,,0,7,7,7,0,18,18,18,,,,,,,,,,,,,,,,,,,1617.7323479170445,,q,1.314764500129968,1619.1234949589707,,,,,,271420,A,2024-08-01_09h16.58.518,EPIDM,2023.1.2,None,
8460.jpg,8330.jpg,0 Points,0 Points,465 Points,PS1_L8.csv,,,,,,,,,,,,,,,,,,,,,,,,,,,,,0,7,7,7,0,19,19,19,,,,,,,,,,,,,,,,,,,1623.35928241699,,p,1.5171742499805987,1624.94500241708,,,,,,271420,A,2024-08-01_09h16.58.518,EPIDM,2023.1.2,None,
2570.jpg,5500.jpg,3 Points,3 Points,468 Points,PS1_L8.csv,,,,,,,,,,,,,,,,,,,,,,,,,,,,,0,7,7,7,0,20,20,20,,,,,,,,,,,,,,,,,,,1629.2062393340748,,q,0.7274614160414785,1630.01248949999,,,,,,271420,A,2024-08-01_09h16.58.518,EPIDM,2023.1.2,None,
6190.jpg,3120.jpg,5 Points,5 Points,473 Points,PS1_L8.csv,,,,,,,,,,,,,,,,,,,,,,,,,,,,,0,7,7,7,0,21,21,21,,,,,,,,,,,,,,,,,,,1634.2633239999413,,q,1.3501113750971854,1635.6964049169328,,,,,,271420,A,2024-08-01_09h16.58.518,EPIDM,2023.1.2,None,
2200.jpg,4598.jpg,1 Point,1 Point,474 Points,PS1_L8.csv,,,,,,,,,,,,,,,,,,,,,,,,,,,,,0,7,7,7,0,22,22,22,,,,,,,,,,,,,,,,,,,1639.941491292091,,p,1.4151512500829995,1641.429361042101,,,,,,271420,A,2024-08-01_09h16.58.518,EPIDM,2023.1.2,None,
1303.jpg,2000.jpg,0 Points,0 Points,474 Points,PS1_L8.csv,,,,,,,,,,,,,,,,,,,,,,,,,,,,,0,7,7,7,0,23,23,23,,,,,,,,,,,,,,,,,,,1645.6689055000897,,q,1.8400213751010597,1647.578991208924,,,1658.0413537090644,space,2.4660139579791576,271420,A,2024-08-01_09h16.58.518,EPIDM,2023.1.2,None,
9010.jpg,9253.jpg,0 Points,0 Points,474 Points,PS1_L9.csv,,,,,,,,,,,,,,,,,,,,,,,,,,,,,0,8,8,8,0,0,0,0,,,,,,,,,,,,,,,,,,,1663.8248069589026,,p,1.331045666942373,1665.22796770907,,,,,,271420,A,2024-08-01_09h16.58.518,EPIDM,2023.1.2,None,
1302.jpg,2700.jpg,3 Points,3 Points,477 Points,PS1_L9.csv,,,,,,,,,,,,,,,,,,,,,,,,,,,,,0,8,8,8,0,1,1,1,,,,,,,,,,,,,,,,,,,1669.4820693749934,,q,1.1705447919666767,1670.7184407089371,3,1.571246333187446,,,,271420,A,2024-08-01_09h16.58.518,EPIDM,2023.1.2,None,
2030.jpg,2495.jpg,0 Points,0 Points,477 Points,PS1_L9.csv,,,,,,,,,,,,,,,,,,,,,,,,,,,,,0,8,8,8,0,2,2,2,,,,,,,,,,,,,,,,,,,1676.6114064999856,,q,1.0397408329881728,1677.7301529170945,,,,,,271420,A,2024-08-01_09h16.58.518,EPIDM,2023.1.2,None,
2110.jpg,7260.jpg,5 Points,5 Points,482 Points,PS1_L9.csv,,,,,,,,,,,,,,,,,,,,,,,,,,,,,0,8,8,8,0,3,3,3,,,,,,,,,,,,,,,,,,,1681.9787235420663,,q,0.8804922089911997,1682.9258171669208,,,,,,271420,A,2024-08-01_09h16.58.518,EPIDM,2023.1.2,None,
2053.jpg,9415.jpg,4 Points,4 Points,486 Points,PS1_L9.csv,,,,,,,,,,,,,,,,,,,,,,,,,,,,,0,8,8,8,0,4,4,4,,,,,,,,,,,,,,,,,,,1687.1745885838754,,p,1.8714707079343498,1689.1112322090194,,,,,,271420,A,2024-08-01_09h16.58.518,EPIDM,2023.1.2,None,
6211.jpg,9611.jpg,3 Points,3 Points,489 Points,PS1_L9.csv,,,,,,,,,,,,,,,,,,,,,,,,,,,,,0,8,8,8,0,5,5,5,,,,,,,,,,,,,,,,,,,1693.3646315000951,,q,1.03760483302176,1694.4633199588861,,,,,,271420,A,2024-08-01_09h16.58.518,EPIDM,2023.1.2,None,
8350.jpg,7190.jpg,5 Points,5 Points,494 Points,PS1_L9.csv,,,,,,,,,,,,,,,,,,,,,,,,,,,,,0,8,8,8,0,6,6,6,,,,,,,,,,,,,,,,,,,1698.7277696249075,,q,0.7319586251396686,1699.541119792033,,,,,,271420,A,2024-08-01_09h16.58.518,EPIDM,2023.1.2,None,
9340.jpg,6910.jpg,0 Points,0 Points,494 Points,PS1_L9.csv,,,,,,,,,,,,,,,,,,,,,,,,,,,,,0,8,8,8,0,7,7,7,,,,,,,,,,,,,,,,,,,1703.798094458878,,q,1.030242333887145,1704.9041839169804,,,,,,271420,A,2024-08-01_09h16.58.518,EPIDM,2023.1.2,None,
4533.jpg,2385.jpg,3 Points,3 Points,497 Points,PS1_L9.csv,,,,,,,,,,,,,,,,,,,,,,,,,,,,,0,8,8,8,0,8,8,8,,,,,,,,,,,,,,,,,,,1709.1445525418967,,p,1.3059562090784311,1710.5226239999756,,,,,,271420,A,2024-08-01_09h16.58.518,EPIDM,2023.1.2,None,
5940.jpg,9411.jpg,0 Points,0 Points,497 Points,PS1_L9.csv,,,,,,,,,,,,,,,,,,,,,,,,,,,,,0,8,8,8,0,9,9,9,,,,,,,,,,,,,,,,,,,1714.7709433340933,,p,1.6795083340257406,1716.520319875097,,,,,,271420,A,2024-08-01_09h16.58.518,EPIDM,2023.1.2,None,
2220.jpg,2010.jpg,5 Points,5 Points,502 Points,PS1_L9.csv,,,,,,,,,,,,,,,,,,,,,,,,,,,,,0,8,8,8,0,10,10,10,,,,,,,,,,,,,,,,,,,1720.7634067500476,,q,0.9113823338411748,1721.7479315840174,,,,,,271420,A,2024-08-01_09h16.58.518,EPIDM,2023.1.2,None,
9500.jpg,6360.jpg,1 Point,1 Point,503 Points,PS1_L9.csv,,,,,,,,,,,,,,,,,,,,,,,,,,,,,0,8,8,8,0,11,11,11,,,,,,,,,,,,,,,,,,,1725.9920887919143,,p,1.7541719160508364,1727.8152380839456,,,,,,271420,A,2024-08-01_09h16.58.518,EPIDM,2023.1.2,None,
2092.jpg,2210.jpg,0 Points,0 Points,503 Points,PS1_L9.csv,,,,,,,,,,,,,,,,,,,,,,,,,,,,,0,8,8,8,0,12,12,12,,,,,,,,,,,,,,,,,,,1732.053540624911,,q,1.4456835000310093,1733.5686510419473,,,,,,271420,A,2024-08-01_09h16.58.518,EPIDM,2023.1.2,None,
9530.jpg,9220.jpg,1 Point,1 Point,504 Points,PS1_L9.csv,,,,,,,,,,,,,,,,,,,,,,,,,,,,,0,8,8,8,0,13,13,13,,,,,,,,,,,,,,,,,,,1737.817506249994,,p,1.4100482501089573,1739.2888562500011,1,1.2681603748351336,,,,271420,A,2024-08-01_09h16.58.518,EPIDM,2023.1.2,None,
9254.jpg,9290.jpg,2 Points,2 Points,506 Points,PS1_L9.csv,,,,,,,,,,,,,,,,,,,,,,,,,,,,,0,8,8,8,0,14,14,14,,,,,,,,,,,,,,,,,,,1744.8669767919928,,q,1.7660314170643687,1746.696178500075,,,,,,271420,A,2024-08-01_09h16.58.518,EPIDM,2023.1.2,None,
4608.jpg,8320.jpg,1 Point,1 Point,507 Points,PS1_L9.csv,,,,,,,,,,,,,,,,,,,,,,,,,,,,,0,8,8,8,0,15,15,15,,,,,,,,,,,,,,,,,,,1750.9564606670756,,q,1.0381581669207662,1752.0687664998695,,,,,,271420,A,2024-08-01_09h16.58.518,EPIDM,2023.1.2,None,
7237.jpg,8510.jpg,4 Points,4 Points,511 Points,PS1_L9.csv,,,,,,,,,,,,,,,,,,,,,,,,,,,,,0,8,8,8,0,16,16,16,,,,,,,,,,,,,,,,,,,1756.3290057498962,,p,1.5448922498617321,1757.9455122090876,,,,,,271420,A,2024-08-01_09h16.58.518,EPIDM,2023.1.2,None,
9417.jpg,6530.jpg,1 Point,1 Point,512 Points,PS1_L9.csv,,,,,,,,,,,,,,,,,,,,,,,,,,,,,0,8,8,8,0,17,17,17,,,,,,,,,,,,,,,,,,,1762.1936663750093,,p,1.8335868339054286,1764.1103933339473,,,,,,271420,A,2024-08-01_09h16.58.518,EPIDM,2023.1.2,None,
6831.jpg,2141.jpg,5 Points,5 Points,517 Points,PS1_L9.csv,,,,,,,,,,,,,,,,,,,,,,,,,,,,,0,8,8,8,0,18,18,18,,,,,,,,,,,,,,,,,,,1768.3458831249736,,p,1.5839504168834537,1769.997264625039,,,,,,271420,A,2024-08-01_09h16.58.518,EPIDM,2023.1.2,None,
4689.jpg,7009.jpg,5 Points,5 Points,522 Points,PS1_L9.csv,,,,,,,,,,,,,,,,,,,,,,,,,,,,,0,8,8,8,0,19,19,19,,,,,,,,,,,,,,,,,,,1774.246234250022,,q,0.5706974170170724,1774.8872830420732,,,,,,271420,A,2024-08-01_09h16.58.518,EPIDM,2023.1.2,None,
2751.jpg,6313.jpg,3 Points,3 Points,525 Points,PS1_L9.csv,,,,,,,,,,,,,,,,,,,,,,,,,,,,,0,8,8,8,0,20,20,20,,,,,,,,,,,,,,,,,,,1779.1369154169224,,p,0.9523792502004653,1780.1652897919994,,,,,,271420,A,2024-08-01_09h16.58.518,EPIDM,2023.1.2,None,
4621.jpg,3550.jpg,2 Points,2 Points,527 Points,PS1_L9.csv,,,,,,,,,,,,,,,,,,,,,,,,,,,,,0,8,8,8,0,21,21,21,,,,,,,,,,,,,,,,,,,1784.4088536670897,,p,1.6009559580124915,1786.0744631250855,,,,,,271420,A,2024-08-01_09h16.58.518,EPIDM,2023.1.2,None,
8220.jpg,2410.jpg,4 Points,4 Points,531 Points,PS1_L9.csv,,,,,,,,,,,,,,,,,,,,,,,,,,,,,0,8,8,8,0,22,22,22,,,,,,,,,,,,,,,,,,,1790.318901584018,,p,2.202256000135094,1792.5965422920417,,,,,,271420,A,2024-08-01_09h16.58.518,EPIDM,2023.1.2,None,
1113.jpg,1240.jpg,3 Points,3 Points,534 Points,PS1_L9.csv,,,,,,,,,,,,,,,,,,,,,,,,,,,,,0,8,8,8,0,23,23,23,,,,,,,,,,,,,,,,,,,1796.8423200419638,,q,1.5426392911467701,1798.4516961670015,,,1808.9354876249563,space,1.778032791102305,271420,A,2024-08-01_09h16.58.518,EPIDM,2023.1.2,None,
2750.jpg,9050.jpg,4 Points,4 Points,538 Points,PS1_L10.csv,,,,,,,,,,,,,,,,,,,,,,,,,,,,,0,9,9,9,0,0,0,0,,,,,,,,,,,,,,,,,,,1814.0350826249924,,p,1.5172231670003384,1815.6242414999288,,,,,,271420,A,2024-08-01_09h16.58.518,EPIDM,2023.1.2,None,
2312.jpg,2722.jpg,1 Points,1 Points,539 Points,PS1_L10.csv,,,,,,,,,,,,,,,,,,,,,,,,,,,,,0,9,9,9,0,1,1,1,,,,,,,,,,,,,,,,,,,1819.8788969998714,,q,1.1638723330106586,1821.1103631248698,1,1.2071269999723881,,,,271420,A,2024-08-01_09h16.58.518,EPIDM,2023.1.2,None,
8232.jpg,4279.jpg,5 Points,5 Points,544 Points,PS1_L10.csv,,,,,,,,,,,,,,,,,,,,,,,,,,,,,0,9,9,9,0,2,2,2,,,,,,,,,,,,,,,,,,,1826.6381403750274,,q,1.7878341251052916,1828.502411375055,,,,,,271420,A,2024-08-01_09h16.58.518,EPIDM,2023.1.2,None,
6000.jpg,6836.jpg,4 Points,4 Points,548 Points,PS1_L10.csv,,,,,,,,,,,,,,,,,,,,,,,,,,,,,0,9,9,9,0,3,3,3,,,,,,,,,,,,,,,,,,,1832.7488168340642,,p,1.2353501659817994,1834.0664177918807,,,,,,271420,A,2024-08-01_09h16.58.518,EPIDM,2023.1.2,None,
4536.jpg,2280.jpg,4 Points,4 Points,552 Points,PS1_L10.csv,,,,,,,,,,,,,,,,,,,,,,,,,,,,,0,9,9,9,0,4,4,4,,,,,,,,,,,,,,,,,,,1838.303700374905,,p,1.527759584132582,1839.9060413339175,,,,,,271420,A,2024-08-01_09h16.58.518,EPIDM,2023.1.2,None,
6241.jpg,9561.jpg,3 Points,3 Points,555 Points,PS1_L10.csv,,,,,,,,,,,,,,,,,,,,,,,,,,,,,0,9,9,9,0,5,5,5,,,,,,,,,,,,,,,,,,,1844.1588458339684,,p,1.5528308749198914,1845.7911376669072,,,,,,271420,A,2024-08-01_09h16.58.518,EPIDM,2023.1.2,None,
1942.jpg,2890.jpg,1 Points,1 Points,556 Points,PS1_L10.csv,,,,,,,,,,,,,,,,,,,,,,,,,,,,,0,9,9,9,0,6,6,6,,,,,,,,,,,,,,,,,,,1850.0337564998772,,p,1.7807322079315782,1851.8927400419489,,,,,,271420,A,2024-08-01_09h16.58.518,EPIDM,2023.1.2,None,
6020.jpg,6300.jpg,2 Points,2 Points,558 Points,PS1_L10.csv,,,,,,,,,,,,,,,,,,,,,,,,,,,,,0,9,9,9,0,7,7,7,,,,,,,,,,,,,,,,,,,1856.1442690000404,,q,1.655381582910195,1857.8625567499548,,,,,,271420,A,2024-08-01_09h16.58.518,EPIDM,2023.1.2,None,
7170.jpg,2170.jpg,2 Points,2 Points,560 Points,PS1_L10.csv,,,,,,,,,,,,,,,,,,,,,,,,,,,,,0,9,9,9,0,8,8,8,,,,,,,,,,,,,,,,,,,1862.117477041902,,p,1.5378016668837517,1863.7186566670425,,,,,,271420,A,2024-08-01_09h16.58.518,EPIDM,2023.1.2,None,
5510.jpg,2514.jpg,5 Points,5 Points,565 Points,PS1_L10.csv,,,,,,,,,,,,,,,,,,,,,,,,,,,,,0,9,9,9,0,9,9,9,,,,,,,,,,,,,,,,,,,1867.9637122920249,,p,1.363691250095144,1869.397664041957,,,,,,271420,A,2024-08-01_09h16.58.518,EPIDM,2023.1.2,None,
6840.jpg,3080.jpg,1 Points,1 Points,566 Points,PS1_L10.csv,,,,,,,,,,,,,,,,,,,,,,,,,,,,,0,9,9,9,0,10,10,10,,,,,,,,,,,,,,,,,,,1873.6405482499395,,q,1.5572527500335127,1875.2619908340275,,,,,,271420,A,2024-08-01_09h16.58.518,EPIDM,2023.1.2,None,
7195.jpg,2487.jpg,2 Points,2 Points,568 Points,PS1_L10.csv,,,,,,,,,,,,,,,,,,,,,,,,,,,,,0,9,9,9,0,11,11,11,,,,,,,,,,,,,,,,,,,1879.5194568340667,,p,1.1279566250741482,1880.7098883748986,,,,,,271420,A,2024-08-01_09h16.58.518,EPIDM,2023.1.2,None,
5971.jpg,9912.jpg,5 Points,5 Points,573 Points,PS1_L10.csv,,,,,,,,,,,,,,,,,,,,,,,,,,,,,0,9,9,9,0,12,12,12,,,,,,,,,,,,,,,,,,,1884.963542584097,,q,1.267082542181015,1886.296908166958,,,,,,271420,A,2024-08-01_09h16.58.518,EPIDM,2023.1.2,None,
2520.jpg,8503.jpg,2 Points,2 Points,575 Points,PS1_L10.csv,,,,,,,,,,,,,,,,,,,,,,,,,,,,,0,9,9,9,0,13,13,13,,,,,,,,,,,,,,,,,,,1890.5627536249813,,q,1.4446610840968788,1892.0819230000488,2,1.4848278751596808,,,,271420,A,2024-08-01_09h16.58.518,EPIDM,2023.1.2,None,
5480.jpg,8200.jpg,4 Points,4 Points,579 Points,PS1_L10.csv,,,,,,,,,,,,,,,,,,,,,,,,,,,,,0,9,9,9,0,14,14,14,,,,,,,,,,,,,,,,,,,1897.895907334052,,p,1.967099417001009,1899.9391698339023,,,,,,271420,A,2024-08-01_09h16.58.518,EPIDM,2023.1.2,None,
6370.jpg,1270.jpg,4 Points,4 Points,583 Points,PS1_L10.csv,,,,,,,,,,,,,,,,,,,,,,,,,,,,,0,9,9,9,0,15,15,15,,,,,,,,,,,,,,,,,,,1904.1798509999644,,q,0.9142964170314372,1905.1704610420857,,,,,,271420,A,2024-08-01_09h16.58.518,EPIDM,2023.1.2,None,
5130.jpg,1810.jpg,3 Points,3 Points,586 Points,PS1_L10.csv,,,,,,,,,,,,,,,,,,,,,,,,,,,,,0,9,9,9,0,16,16,16,,,,,,,,,,,,,,,,,,,1909.4163269998971,,p,1.5814439579844475,1911.0812208750285,,,,,,271420,A,2024-08-01_09h16.58.518,EPIDM,2023.1.2,None,
4250.jpg,7060.jpg,5 Points,5 Points,591 Points,PS1_L10.csv,,,,,,,,,,,,,,,,,,,,,,,,,,,,,0,9,9,9,0,17,17,17,,,,,,,,,,,,,,,,,,,1915.318777458975,,q,1.1907292080577463,1916.5908852920402,,,,,,271420,A,2024-08-01_09h16.58.518,EPIDM,2023.1.2,None,
9373.jpg,9410.jpg,0 Points,0 Points,591 Points,PS1_L10.csv,,,,,,,,,,,,,,,,,,,,,,,,,,,,,0,9,9,9,0,18,18,18,,,,,,,,,,,,,,,,,,,1920.825420249952,,p,1.5478562500793487,1922.4544059170876,,,,,,271420,A,2024-08-01_09h16.58.518,EPIDM,2023.1.2,None,
2221.jpg,2270.jpg,2 Points,2 Points,593 Points,PS1_L10.csv,,,,,,,,,,,,,,,,,,,,,,,,,,,,,0,9,9,9,0,19,19,19,,,,,,,,,,,,,,,,,,,1926.696102167014,,q,1.3967427080497146,1928.156201042002,,,,,,271420,A,2024-08-01_09h16.58.518,EPIDM,2023.1.2,None,
1650.jpg,2130.jpg,1 Points,1 Points,594 Points,PS1_L10.csv,,,,,,,,,,,,,,,,,,,,,,,,,,,,,0,9,9,9,0,20,20,20,,,,,,,,,,,,,,,,,,,1932.4259695420042,,p,1.307830500183627,1933.8089268750045,,,,,,271420,A,2024-08-01_09h16.58.518,EPIDM,2023.1.2,None,
1280.jpg,9402.jpg,2 Points,2 Points,596 Points,PS1_L10.csv,,,,,,,,,,,,,,,,,,,,,,,,,,,,,0,9,9,9,0,21,21,21,,,,,,,,,,,,,,,,,,,1938.0585940419696,,p,1.2900995002128184,1939.4193265419453,,,,,,271420,A,2024-08-01_09h16.58.518,EPIDM,2023.1.2,None,
2214.jpg,4500.jpg,3 Points,3 Points,599 Points,PS1_L10.csv,,,,,,,,,,,,,,,,,,,,,,,,,,,,,0,9,9,9,0,22,22,22,,,,,,,,,,,,,,,,,,,1943.6680743340403,,q,1.1453422498889267,1944.8957479998935,,,,,,271420,A,2024-08-01_09h16.58.518,EPIDM,2023.1.2,None,
7284.jpg,8021.jpg,4 Points,4 Points,603 Points,PS1_L10.csv,,,,,,,,,,,,,,,,,,,,,,,,,,,,,0,9,9,9,0,23,23,23,,,,,,,,,,,,,,,,,,,1949.137953874888,,p,1.5954957089852542,1950.8147013338748,,,1961.3088654589374,space,2.336637165863067,271420,A,2024-08-01_09h16.58.518,EPIDM,2023.1.2,None,
